Rating.response,Rating.rt,EndTrial.keys,EndTrial.rt,trials.thisRepN,trials.thisTrialN,trials.thisN,trials.thisIndex,trials.ran,Pos1,Pos2,participant,session,date,expName,psychopyVersion,OS,frameRate,study_id
3,15.2396,space,19.3018,0,0,0,1,1,,,58d0632c2fc72000011f8c57,61ba1b56b3a80c4052940d1a,2021-12-15_16h43.08.809,PRaM,2021.2.3,Win32,59.93048064,61b8f3437b89212fae0dfade
7,9.6869,space,10.4321,0,1,1,242,1,,,58d0632c2fc72000011f8c57,61ba1b56b3a80c4052940d1a,2021-12-15_16h43.08.809,PRaM,2021.2.3,Win32,59.93048064,61b8f3437b89212fae0dfade
4,8.81,space,8.559,0,2,2,343,1,,,58d0632c2fc72000011f8c57,61ba1b56b3a80c4052940d1a,2021-12-15_16h43.08.809,PRaM,2021.2.3,Win32,59.93048064,61b8f3437b89212fae0dfade
1,9.0844,space,9.5628,0,3,3,50,1,,,58d0632c2fc72000011f8c57,61ba1b56b3a80c4052940d1a,2021-12-15_16h43.08.809,PRaM,2021.2.3,Win32,59.93048064,61b8f3437b89212fae0dfade
3,11.0878,space,10.9541,0,4,4,121,1,,,58d0632c2fc72000011f8c57,61ba1b56b3a80c4052940d1a,2021-12-15_16h43.08.809,PRaM,2021.2.3,Win32,59.93048064,61b8f3437b89212fae0dfade
6,9.356,space,8.7927,0,5,5,340,1,,,58d0632c2fc72000011f8c57,61ba1b56b3a80c4052940d1a,2021-12-15_16h43.08.809,PRaM,2021.2.3,Win32,59.93048064,61b8f3437b89212fae0dfade
7,4.7282,space,3.9241,0,6,6,84,1,,,58d0632c2fc72000011f8c57,61ba1b56b3a80c4052940d1a,2021-12-15_16h43.08.809,PRaM,2021.2.3,Win32,59.93048064,61b8f3437b89212fae0dfade
6,10.6281,space,10.0493,0,7,7,376,1,,,58d0632c2fc72000011f8c57,61ba1b56b3a80c4052940d1a,2021-12-15_16h43.08.809,PRaM,2021.2.3,Win32,59.93048064,61b8f3437b89212fae0dfade
6,10.8892,space,10.332,0,8,8,193,1,,,58d0632c2fc72000011f8c57,61ba1b56b3a80c4052940d1a,2021-12-15_16h43.08.809,PRaM,2021.2.3,Win32,59.93048064,61b8f3437b89212fae0dfade
4,4.6334,space,3.8714,0,9,9,8,1,,,58d0632c2fc72000011f8c57,61ba1b56b3a80c4052940d1a,2021-12-15_16h43.08.809,PRaM,2021.2.3,Win32,59.93048064,61b8f3437b89212fae0dfade
7,5.9666,space,5.2658,0,10,10,173,1,,,58d0632c2fc72000011f8c57,61ba1b56b3a80c4052940d1a,2021-12-15_16h43.08.809,PRaM,2021.2.3,Win32,59.93048064,61b8f3437b89212fae0dfade
7,6.9746,space,6.2127,0,11,11,208,1,,,58d0632c2fc72000011f8c57,61ba1b56b3a80c4052940d1a,2021-12-15_16h43.08.809,PRaM,2021.2.3,Win32,59.93048064,61b8f3437b89212fae0dfade
6,6.2608,space,6.1298,0,12,12,66,1,,,58d0632c2fc72000011f8c57,61ba1b56b3a80c4052940d1a,2021-12-15_16h43.08.809,PRaM,2021.2.3,Win32,59.93048064,61b8f3437b89212fae0dfade
6,7.2812,space,6.691,0,13,13,112,1,,,58d0632c2fc72000011f8c57,61ba1b56b3a80c4052940d1a,2021-12-15_16h43.08.809,PRaM,2021.2.3,Win32,59.93048064,61b8f3437b89212fae0dfade
3,9.4155,space,8.8164,0,14,14,129,1,,,58d0632c2fc72000011f8c57,61ba1b56b3a80c4052940d1a,2021-12-15_16h43.08.809,PRaM,2021.2.3,Win32,59.93048064,61b8f3437b89212fae0dfade
2,6.5671,space,6.9262,0,15,15,27,1,,,58d0632c2fc72000011f8c57,61ba1b56b3a80c4052940d1a,2021-12-15_16h43.08.809,PRaM,2021.2.3,Win32,59.93048064,61b8f3437b89212fae0dfade
7,7.3133,space,7.5505,0,16,16,222,1,,,58d0632c2fc72000011f8c57,61ba1b56b3a80c4052940d1a,2021-12-15_16h43.08.809,PRaM,2021.2.3,Win32,59.93048064,61b8f3437b89212fae0dfade
2,3.4135,space,3.354,0,17,17,34,1,,,58d0632c2fc72000011f8c57,61ba1b56b3a80c4052940d1a,2021-12-15_16h43.08.809,PRaM,2021.2.3,Win32,59.93048064,61b8f3437b89212fae0dfade
3,7.1754,space,6.4678,0,18,18,245,1,,,58d0632c2fc72000011f8c57,61ba1b56b3a80c4052940d1a,2021-12-15_16h43.08.809,PRaM,2021.2.3,Win32,59.93048064,61b8f3437b89212fae0dfade
2,9.5991,space,8.9308,0,19,19,295,1,,,58d0632c2fc72000011f8c57,61ba1b56b3a80c4052940d1a,2021-12-15_16h43.08.809,PRaM,2021.2.3,Win32,59.93048064,61b8f3437b89212fae0dfade
6,8.8668,space,7.914,0,20,20,240,1,,,58d0632c2fc72000011f8c57,61ba1b56b3a80c4052940d1a,2021-12-15_16h43.08.809,PRaM,2021.2.3,Win32,59.93048064,61b8f3437b89212fae0dfade
7,3.4766,space,2.5766,0,21,21,154,1,,,58d0632c2fc72000011f8c57,61ba1b56b3a80c4052940d1a,2021-12-15_16h43.08.809,PRaM,2021.2.3,Win32,59.93048064,61b8f3437b89212fae0dfade
4,7.313,space,6.4946,0,22,22,157,1,,,58d0632c2fc72000011f8c57,61ba1b56b3a80c4052940d1a,2021-12-15_16h43.08.809,PRaM,2021.2.3,Win32,59.93048064,61b8f3437b89212fae0dfade
3,4.9606,space,4.2034,0,23,23,234,1,,,58d0632c2fc72000011f8c57,61ba1b56b3a80c4052940d1a,2021-12-15_16h43.08.809,PRaM,2021.2.3,Win32,59.93048064,61b8f3437b89212fae0dfade
3,7.363,space,6.6444,0,24,24,94,1,,,58d0632c2fc72000011f8c57,61ba1b56b3a80c4052940d1a,2021-12-15_16h43.08.809,PRaM,2021.2.3,Win32,59.93048064,61b8f3437b89212fae0dfade
3,3.253,space,2.3541,0,25,25,10,1,,,58d0632c2fc72000011f8c57,61ba1b56b3a80c4052940d1a,2021-12-15_16h43.08.809,PRaM,2021.2.3,Win32,59.93048064,61b8f3437b89212fae0dfade
4,9.2035,space,8.4142,0,26,26,172,1,,,58d0632c2fc72000011f8c57,61ba1b56b3a80c4052940d1a,2021-12-15_16h43.08.809,PRaM,2021.2.3,Win32,59.93048064,61b8f3437b89212fae0dfade
4,7.9649,space,7.6587,0,27,27,257,1,,,58d0632c2fc72000011f8c57,61ba1b56b3a80c4052940d1a,2021-12-15_16h43.08.809,PRaM,2021.2.3,Win32,59.93048064,61b8f3437b89212fae0dfade
4,5.1695,space,4.32,0,28,28,377,1,,,58d0632c2fc72000011f8c57,61ba1b56b3a80c4052940d1a,2021-12-15_16h43.08.809,PRaM,2021.2.3,Win32,59.93048064,61b8f3437b89212fae0dfade
6,6.2388,space,5.4168,0,29,29,110,1,,,58d0632c2fc72000011f8c57,61ba1b56b3a80c4052940d1a,2021-12-15_16h43.08.809,PRaM,2021.2.3,Win32,59.93048064,61b8f3437b89212fae0dfade
6,3.7383,space,4.3253,0,30,30,88,1,,,58d0632c2fc72000011f8c57,61ba1b56b3a80c4052940d1a,2021-12-15_16h43.08.809,PRaM,2021.2.3,Win32,59.93048064,61b8f3437b89212fae0dfade
6,3.2739,space,2.3578,0,31,31,333,1,,,58d0632c2fc72000011f8c57,61ba1b56b3a80c4052940d1a,2021-12-15_16h43.08.809,PRaM,2021.2.3,Win32,59.93048064,61b8f3437b89212fae0dfade
4,6.2441,space,6.2671,0,32,32,374,1,,,58d0632c2fc72000011f8c57,61ba1b56b3a80c4052940d1a,2021-12-15_16h43.08.809,PRaM,2021.2.3,Win32,59.93048064,61b8f3437b89212fae0dfade
6,4.3814,space,3.6896,0,33,33,344,1,,,58d0632c2fc72000011f8c57,61ba1b56b3a80c4052940d1a,2021-12-15_16h43.08.809,PRaM,2021.2.3,Win32,59.93048064,61b8f3437b89212fae0dfade
4,7.0168,space,7.2933,0,34,34,39,1,,,58d0632c2fc72000011f8c57,61ba1b56b3a80c4052940d1a,2021-12-15_16h43.08.809,PRaM,2021.2.3,Win32,59.93048064,61b8f3437b89212fae0dfade
7,6.4335,space,6.7521,0,35,35,56,1,,,58d0632c2fc72000011f8c57,61ba1b56b3a80c4052940d1a,2021-12-15_16h43.08.809,PRaM,2021.2.3,Win32,59.93048064,61b8f3437b89212fae0dfade
6,3.0661,space,2.4283,0,36,36,314,1,,,58d0632c2fc72000011f8c57,61ba1b56b3a80c4052940d1a,2021-12-15_16h43.08.809,PRaM,2021.2.3,Win32,59.93048064,61b8f3437b89212fae0dfade
6,8.1519,space,7.2153,0,37,37,303,1,,,58d0632c2fc72000011f8c57,61ba1b56b3a80c4052940d1a,2021-12-15_16h43.08.809,PRaM,2021.2.3,Win32,59.93048064,61b8f3437b89212fae0dfade
7,6.7192,space,6.065,0,38,38,328,1,,,58d0632c2fc72000011f8c57,61ba1b56b3a80c4052940d1a,2021-12-15_16h43.08.809,PRaM,2021.2.3,Win32,59.93048064,61b8f3437b89212fae0dfade
7,3.6192,space,2.8766,0,39,39,136,1,,,58d0632c2fc72000011f8c57,61ba1b56b3a80c4052940d1a,2021-12-15_16h43.08.809,PRaM,2021.2.3,Win32,59.93048064,61b8f3437b89212fae0dfade
4,5.664,space,4.6411,0,40,40,361,1,,,58d0632c2fc72000011f8c57,61ba1b56b3a80c4052940d1a,2021-12-15_16h43.08.809,PRaM,2021.2.3,Win32,59.93048064,61b8f3437b89212fae0dfade
4,10.0184,space,9.1158,0,41,41,58,1,,,58d0632c2fc72000011f8c57,61ba1b56b3a80c4052940d1a,2021-12-15_16h43.08.809,PRaM,2021.2.3,Win32,59.93048064,61b8f3437b89212fae0dfade
6,3.3924,space,2.6815,0,42,42,302,1,,,58d0632c2fc72000011f8c57,61ba1b56b3a80c4052940d1a,2021-12-15_16h43.08.809,PRaM,2021.2.3,Win32,59.93048064,61b8f3437b89212fae0dfade
4,5.4743,space,4.5516,0,43,43,210,1,,,58d0632c2fc72000011f8c57,61ba1b56b3a80c4052940d1a,2021-12-15_16h43.08.809,PRaM,2021.2.3,Win32,59.93048064,61b8f3437b89212fae0dfade
4,4.1021,space,3.2461,0,44,44,356,1,,,58d0632c2fc72000011f8c57,61ba1b56b3a80c4052940d1a,2021-12-15_16h43.08.809,PRaM,2021.2.3,Win32,59.93048064,61b8f3437b89212fae0dfade
4,9.8931,space,8.9256,0,45,45,167,1,,,58d0632c2fc72000011f8c57,61ba1b56b3a80c4052940d1a,2021-12-15_16h43.08.809,PRaM,2021.2.3,Win32,59.93048064,61b8f3437b89212fae0dfade
6,3.5852,space,2.6336,0,46,46,48,1,,,58d0632c2fc72000011f8c57,61ba1b56b3a80c4052940d1a,2021-12-15_16h43.08.809,PRaM,2021.2.3,Win32,59.93048064,61b8f3437b89212fae0dfade
4,5.7792,space,4.8345,0,47,47,164,1,,,58d0632c2fc72000011f8c57,61ba1b56b3a80c4052940d1a,2021-12-15_16h43.08.809,PRaM,2021.2.3,Win32,59.93048064,61b8f3437b89212fae0dfade
6,3.5615,space,2.7179,0,48,48,43,1,,,58d0632c2fc72000011f8c57,61ba1b56b3a80c4052940d1a,2021-12-15_16h43.08.809,PRaM,2021.2.3,Win32,59.93048064,61b8f3437b89212fae0dfade
7,3.976,space,3.5662,0,49,49,139,1,,,58d0632c2fc72000011f8c57,61ba1b56b3a80c4052940d1a,2021-12-15_16h43.08.809,PRaM,2021.2.3,Win32,59.93048064,61b8f3437b89212fae0dfade
4,3.4563,space,2.5057,0,50,50,101,1,,,58d0632c2fc72000011f8c57,61ba1b56b3a80c4052940d1a,2021-12-15_16h43.08.809,PRaM,2021.2.3,Win32,59.93048064,61b8f3437b89212fae0dfade
4,4.6454,space,3.8383,0,51,51,146,1,,,58d0632c2fc72000011f8c57,61ba1b56b3a80c4052940d1a,2021-12-15_16h43.08.809,PRaM,2021.2.3,Win32,59.93048064,61b8f3437b89212fae0dfade
3,2.818,space,4.3193,0,52,52,70,1,,,58d0632c2fc72000011f8c57,61ba1b56b3a80c4052940d1a,2021-12-15_16h43.08.809,PRaM,2021.2.3,Win32,59.93048064,61b8f3437b89212fae0dfade
6,5.3782,space,4.6607,0,53,53,336,1,,,58d0632c2fc72000011f8c57,61ba1b56b3a80c4052940d1a,2021-12-15_16h43.08.809,PRaM,2021.2.3,Win32,59.93048064,61b8f3437b89212fae0dfade
8,2.7029,space,3.7023,0,54,54,192,1,,,58d0632c2fc72000011f8c57,61ba1b56b3a80c4052940d1a,2021-12-15_16h43.08.809,PRaM,2021.2.3,Win32,59.93048064,61b8f3437b89212fae0dfade
3,3.8897,space,2.8461,0,55,55,308,1,,,58d0632c2fc72000011f8c57,61ba1b56b3a80c4052940d1a,2021-12-15_16h43.08.809,PRaM,2021.2.3,Win32,59.93048064,61b8f3437b89212fae0dfade
6,9.6347,space,8.6498,0,56,56,144,1,,,58d0632c2fc72000011f8c57,61ba1b56b3a80c4052940d1a,2021-12-15_16h43.08.809,PRaM,2021.2.3,Win32,59.93048064,61b8f3437b89212fae0dfade
4,3.9603,space,3.0469,0,57,57,252,1,,,58d0632c2fc72000011f8c57,61ba1b56b3a80c4052940d1a,2021-12-15_16h43.08.809,PRaM,2021.2.3,Win32,59.93048064,61b8f3437b89212fae0dfade
6,3.6633,space,2.9634,0,58,58,63,1,,,58d0632c2fc72000011f8c57,61ba1b56b3a80c4052940d1a,2021-12-15_16h43.08.809,PRaM,2021.2.3,Win32,59.93048064,61b8f3437b89212fae0dfade
7,5.5459,space,4.7271,0,59,59,60,1,,,58d0632c2fc72000011f8c57,61ba1b56b3a80c4052940d1a,2021-12-15_16h43.08.809,PRaM,2021.2.3,Win32,59.93048064,61b8f3437b89212fae0dfade
6,2.9514,space,2.698,0,60,60,75,1,,,58d0632c2fc72000011f8c57,61ba1b56b3a80c4052940d1a,2021-12-15_16h43.08.809,PRaM,2021.2.3,Win32,59.93048064,61b8f3437b89212fae0dfade
7,7.14,space,6.2009,0,61,61,221,1,,,58d0632c2fc72000011f8c57,61ba1b56b3a80c4052940d1a,2021-12-15_16h43.08.809,PRaM,2021.2.3,Win32,59.93048064,61b8f3437b89212fae0dfade
4,3.3362,space,2.5052,0,62,62,181,1,,,58d0632c2fc72000011f8c57,61ba1b56b3a80c4052940d1a,2021-12-15_16h43.08.809,PRaM,2021.2.3,Win32,59.93048064,61b8f3437b89212fae0dfade
7,3.0534,space,2.0034,0,63,63,83,1,,,58d0632c2fc72000011f8c57,61ba1b56b3a80c4052940d1a,2021-12-15_16h43.08.809,PRaM,2021.2.3,Win32,59.93048064,61b8f3437b89212fae0dfade
4,2.5135,space,2.0148,0,64,64,286,1,,,58d0632c2fc72000011f8c57,61ba1b56b3a80c4052940d1a,2021-12-15_16h43.08.809,PRaM,2021.2.3,Win32,59.93048064,61b8f3437b89212fae0dfade
6,3.235,space,2.2364,0,65,65,209,1,,,58d0632c2fc72000011f8c57,61ba1b56b3a80c4052940d1a,2021-12-15_16h43.08.809,PRaM,2021.2.3,Win32,59.93048064,61b8f3437b89212fae0dfade
4,9.8404,space,8.7664,0,66,66,104,1,,,58d0632c2fc72000011f8c57,61ba1b56b3a80c4052940d1a,2021-12-15_16h43.08.809,PRaM,2021.2.3,Win32,59.93048064,61b8f3437b89212fae0dfade
3,3.0085,space,2.1958,0,67,67,15,1,,,58d0632c2fc72000011f8c57,61ba1b56b3a80c4052940d1a,2021-12-15_16h43.08.809,PRaM,2021.2.3,Win32,59.93048064,61b8f3437b89212fae0dfade
6,5.2521,space,4.2434,0,68,68,346,1,,,58d0632c2fc72000011f8c57,61ba1b56b3a80c4052940d1a,2021-12-15_16h43.08.809,PRaM,2021.2.3,Win32,59.93048064,61b8f3437b89212fae0dfade
6,8.7512,space,7.8851,0,69,69,351,1,,,58d0632c2fc72000011f8c57,61ba1b56b3a80c4052940d1a,2021-12-15_16h43.08.809,PRaM,2021.2.3,Win32,59.93048064,61b8f3437b89212fae0dfade
7,3.2736,space,2.2604,0,70,70,127,1,,,58d0632c2fc72000011f8c57,61ba1b56b3a80c4052940d1a,2021-12-15_16h43.08.809,PRaM,2021.2.3,Win32,59.93048064,61b8f3437b89212fae0dfade
4,6.3187,space,5.1787,0,71,71,113,1,,,58d0632c2fc72000011f8c57,61ba1b56b3a80c4052940d1a,2021-12-15_16h43.08.809,PRaM,2021.2.3,Win32,59.93048064,61b8f3437b89212fae0dfade
3,4.6925,space,3.8534,0,72,72,262,1,,,58d0632c2fc72000011f8c57,61ba1b56b3a80c4052940d1a,2021-12-15_16h43.08.809,PRaM,2021.2.3,Win32,59.93048064,61b8f3437b89212fae0dfade
3,3.5107,space,2.5212,0,73,73,251,1,,,58d0632c2fc72000011f8c57,61ba1b56b3a80c4052940d1a,2021-12-15_16h43.08.809,PRaM,2021.2.3,Win32,59.93048064,61b8f3437b89212fae0dfade
6,3.437,space,2.5979,0,74,74,296,1,,,58d0632c2fc72000011f8c57,61ba1b56b3a80c4052940d1a,2021-12-15_16h43.08.809,PRaM,2021.2.3,Win32,59.93048064,61b8f3437b89212fae0dfade
6,3.5655,space,2.6851,0,75,75,311,1,,,58d0632c2fc72000011f8c57,61ba1b56b3a80c4052940d1a,2021-12-15_16h43.08.809,PRaM,2021.2.3,Win32,59.93048064,61b8f3437b89212fae0dfade
3,4.6879,space,3.7663,0,76,76,268,1,,,58d0632c2fc72000011f8c57,61ba1b56b3a80c4052940d1a,2021-12-15_16h43.08.809,PRaM,2021.2.3,Win32,59.93048064,61b8f3437b89212fae0dfade
6,8.722,space,7.6426,0,77,77,191,1,,,58d0632c2fc72000011f8c57,61ba1b56b3a80c4052940d1a,2021-12-15_16h43.08.809,PRaM,2021.2.3,Win32,59.93048064,61b8f3437b89212fae0dfade
4,4.4745,space,3.4389,0,78,78,143,1,,,58d0632c2fc72000011f8c57,61ba1b56b3a80c4052940d1a,2021-12-15_16h43.08.809,PRaM,2021.2.3,Win32,59.93048064,61b8f3437b89212fae0dfade
6,6.8423,space,5.7042,0,79,79,162,1,,,58d0632c2fc72000011f8c57,61ba1b56b3a80c4052940d1a,2021-12-15_16h43.08.809,PRaM,2021.2.3,Win32,59.93048064,61b8f3437b89212fae0dfade
8,7.3372,space,6.2785,0,80,80,276,1,,,58d0632c2fc72000011f8c57,61ba1b56b3a80c4052940d1a,2021-12-15_16h43.08.809,PRaM,2021.2.3,Win32,59.93048064,61b8f3437b89212fae0dfade
3,4.2669,space,3.5241,0,81,81,220,1,,,58d0632c2fc72000011f8c57,61ba1b56b3a80c4052940d1a,2021-12-15_16h43.08.809,PRaM,2021.2.3,Win32,59.93048064,61b8f3437b89212fae0dfade
6,3.1334,space,2.1414,0,82,82,62,1,,,58d0632c2fc72000011f8c57,61ba1b56b3a80c4052940d1a,2021-12-15_16h43.08.809,PRaM,2021.2.3,Win32,59.93048064,61b8f3437b89212fae0dfade
4,4.9605,space,3.988,0,83,83,106,1,,,58d0632c2fc72000011f8c57,61ba1b56b3a80c4052940d1a,2021-12-15_16h43.08.809,PRaM,2021.2.3,Win32,59.93048064,61b8f3437b89212fae0dfade
2,3.1004,space,2.2408,0,84,84,353,1,,,58d0632c2fc72000011f8c57,61ba1b56b3a80c4052940d1a,2021-12-15_16h43.08.809,PRaM,2021.2.3,Win32,59.93048064,61b8f3437b89212fae0dfade
4,5.5579,space,4.5907,0,85,85,18,1,,,58d0632c2fc72000011f8c57,61ba1b56b3a80c4052940d1a,2021-12-15_16h43.08.809,PRaM,2021.2.3,Win32,59.93048064,61b8f3437b89212fae0dfade
4,3.5087,space,2.6163,0,86,86,369,1,,,58d0632c2fc72000011f8c57,61ba1b56b3a80c4052940d1a,2021-12-15_16h43.08.809,PRaM,2021.2.3,Win32,59.93048064,61b8f3437b89212fae0dfade
6,3.9122,space,2.8785,0,87,87,280,1,,,58d0632c2fc72000011f8c57,61ba1b56b3a80c4052940d1a,2021-12-15_16h43.08.809,PRaM,2021.2.3,Win32,59.93048064,61b8f3437b89212fae0dfade
7,3.319,space,2.3911,0,88,88,166,1,,,58d0632c2fc72000011f8c57,61ba1b56b3a80c4052940d1a,2021-12-15_16h43.08.809,PRaM,2021.2.3,Win32,59.93048064,61b8f3437b89212fae0dfade
6,5.3008,space,4.3044,0,89,89,31,1,,,58d0632c2fc72000011f8c57,61ba1b56b3a80c4052940d1a,2021-12-15_16h43.08.809,PRaM,2021.2.3,Win32,59.93048064,61b8f3437b89212fae0dfade
8,2.5188,space,1.5176,0,90,90,334,1,,,58d0632c2fc72000011f8c57,61ba1b56b3a80c4052940d1a,2021-12-15_16h43.08.809,PRaM,2021.2.3,Win32,59.93048064,61b8f3437b89212fae0dfade
4,4.3169,space,3.2166,0,91,91,235,1,,,58d0632c2fc72000011f8c57,61ba1b56b3a80c4052940d1a,2021-12-15_16h43.08.809,PRaM,2021.2.3,Win32,59.93048064,61b8f3437b89212fae0dfade
6,11.1855,space,10.1126,0,92,92,142,1,,,58d0632c2fc72000011f8c57,61ba1b56b3a80c4052940d1a,2021-12-15_16h43.08.809,PRaM,2021.2.3,Win32,59.93048064,61b8f3437b89212fae0dfade
4,2.8306,space,1.7454,0,93,93,373,1,,,58d0632c2fc72000011f8c57,61ba1b56b3a80c4052940d1a,2021-12-15_16h43.08.809,PRaM,2021.2.3,Win32,59.93048064,61b8f3437b89212fae0dfade
6,6.2469,space,5.3202,0,94,94,258,1,,,58d0632c2fc72000011f8c57,61ba1b56b3a80c4052940d1a,2021-12-15_16h43.08.809,PRaM,2021.2.3,Win32,59.93048064,61b8f3437b89212fae0dfade
4,3.2833,space,2.2322,0,95,95,368,1,,,58d0632c2fc72000011f8c57,61ba1b56b3a80c4052940d1a,2021-12-15_16h43.08.809,PRaM,2021.2.3,Win32,59.93048064,61b8f3437b89212fae0dfade
6,3.1284,space,2.6376,0,96,96,281,1,,,58d0632c2fc72000011f8c57,61ba1b56b3a80c4052940d1a,2021-12-15_16h43.08.809,PRaM,2021.2.3,Win32,59.93048064,61b8f3437b89212fae0dfade
4,4.4121,space,3.5403,0,97,97,160,1,,,58d0632c2fc72000011f8c57,61ba1b56b3a80c4052940d1a,2021-12-15_16h43.08.809,PRaM,2021.2.3,Win32,59.93048064,61b8f3437b89212fae0dfade
7,9.326,space,8.3802,0,98,98,59,1,,,58d0632c2fc72000011f8c57,61ba1b56b3a80c4052940d1a,2021-12-15_16h43.08.809,PRaM,2021.2.3,Win32,59.93048064,61b8f3437b89212fae0dfade
7,7.0384,space,6.2325,0,99,99,85,1,,,58d0632c2fc72000011f8c57,61ba1b56b3a80c4052940d1a,2021-12-15_16h43.08.809,PRaM,2021.2.3,Win32,59.93048064,61b8f3437b89212fae0dfade
4,4.5988,space,3.651,0,100,100,223,1,,,58d0632c2fc72000011f8c57,61ba1b56b3a80c4052940d1a,2021-12-15_16h43.08.809,PRaM,2021.2.3,Win32,59.93048064,61b8f3437b89212fae0dfade
4,3.8222,space,3.5189,0,101,101,125,1,,,58d0632c2fc72000011f8c57,61ba1b56b3a80c4052940d1a,2021-12-15_16h43.08.809,PRaM,2021.2.3,Win32,59.93048064,61b8f3437b89212fae0dfade
4,7.7743,space,6.8383,0,102,102,267,1,,,58d0632c2fc72000011f8c57,61ba1b56b3a80c4052940d1a,2021-12-15_16h43.08.809,PRaM,2021.2.3,Win32,59.93048064,61b8f3437b89212fae0dfade
2,4.8037,space,3.8127,0,103,103,41,1,,,58d0632c2fc72000011f8c57,61ba1b56b3a80c4052940d1a,2021-12-15_16h43.08.809,PRaM,2021.2.3,Win32,59.93048064,61b8f3437b89212fae0dfade
3,5.0015,space,4.0492,0,104,104,73,1,,,58d0632c2fc72000011f8c57,61ba1b56b3a80c4052940d1a,2021-12-15_16h43.08.809,PRaM,2021.2.3,Win32,59.93048064,61b8f3437b89212fae0dfade
4,5.1223,space,4.1826,0,105,105,362,1,,,58d0632c2fc72000011f8c57,61ba1b56b3a80c4052940d1a,2021-12-15_16h43.08.809,PRaM,2021.2.3,Win32,59.93048064,61b8f3437b89212fae0dfade
4,3.484,space,2.3667,0,106,106,111,1,,,58d0632c2fc72000011f8c57,61ba1b56b3a80c4052940d1a,2021-12-15_16h43.08.809,PRaM,2021.2.3,Win32,59.93048064,61b8f3437b89212fae0dfade
6,6.1783,space,5.3682,0,107,107,16,1,,,58d0632c2fc72000011f8c57,61ba1b56b3a80c4052940d1a,2021-12-15_16h43.08.809,PRaM,2021.2.3,Win32,59.93048064,61b8f3437b89212fae0dfade
7,2.759,space,1.9499,0,108,108,3,1,,,58d0632c2fc72000011f8c57,61ba1b56b3a80c4052940d1a,2021-12-15_16h43.08.809,PRaM,2021.2.3,Win32,59.93048064,61b8f3437b89212fae0dfade
7,3.9299,space,2.9014,0,109,109,90,1,,,58d0632c2fc72000011f8c57,61ba1b56b3a80c4052940d1a,2021-12-15_16h43.08.809,PRaM,2021.2.3,Win32,59.93048064,61b8f3437b89212fae0dfade
1,6.9613,space,6.3843,0,110,110,9,1,,,58d0632c2fc72000011f8c57,61ba1b56b3a80c4052940d1a,2021-12-15_16h43.08.809,PRaM,2021.2.3,Win32,59.93048064,61b8f3437b89212fae0dfade
8,3.5378,space,4.699,0,111,111,38,1,,,58d0632c2fc72000011f8c57,61ba1b56b3a80c4052940d1a,2021-12-15_16h43.08.809,PRaM,2021.2.3,Win32,59.93048064,61b8f3437b89212fae0dfade
6,5.7051,space,4.9971,0,112,112,230,1,,,58d0632c2fc72000011f8c57,61ba1b56b3a80c4052940d1a,2021-12-15_16h43.08.809,PRaM,2021.2.3,Win32,59.93048064,61b8f3437b89212fae0dfade
6,3.3369,space,2.3685,0,113,113,147,1,,,58d0632c2fc72000011f8c57,61ba1b56b3a80c4052940d1a,2021-12-15_16h43.08.809,PRaM,2021.2.3,Win32,59.93048064,61b8f3437b89212fae0dfade
3,3.2136,space,2.1304,0,114,114,131,1,,,58d0632c2fc72000011f8c57,61ba1b56b3a80c4052940d1a,2021-12-15_16h43.08.809,PRaM,2021.2.3,Win32,59.93048064,61b8f3437b89212fae0dfade
4,3.0264,space,1.9839,0,115,115,237,1,,,58d0632c2fc72000011f8c57,61ba1b56b3a80c4052940d1a,2021-12-15_16h43.08.809,PRaM,2021.2.3,Win32,59.93048064,61b8f3437b89212fae0dfade
3,4.2491,space,3.356,0,116,116,2,1,,,58d0632c2fc72000011f8c57,61ba1b56b3a80c4052940d1a,2021-12-15_16h43.08.809,PRaM,2021.2.3,Win32,59.93048064,61b8f3437b89212fae0dfade
8,3.3759,space,2.5857,0,117,117,372,1,,,58d0632c2fc72000011f8c57,61ba1b56b3a80c4052940d1a,2021-12-15_16h43.08.809,PRaM,2021.2.3,Win32,59.93048064,61b8f3437b89212fae0dfade
3,4.2645,space,3.2622,0,118,118,54,1,,,58d0632c2fc72000011f8c57,61ba1b56b3a80c4052940d1a,2021-12-15_16h43.08.809,PRaM,2021.2.3,Win32,59.93048064,61b8f3437b89212fae0dfade
2,2.4523,space,1.5505,0,119,119,55,1,,,58d0632c2fc72000011f8c57,61ba1b56b3a80c4052940d1a,2021-12-15_16h43.08.809,PRaM,2021.2.3,Win32,59.93048064,61b8f3437b89212fae0dfade
3,11.9682,space,10.9577,0,120,120,122,1,,,58d0632c2fc72000011f8c57,61ba1b56b3a80c4052940d1a,2021-12-15_16h43.08.809,PRaM,2021.2.3,Win32,59.93048064,61b8f3437b89212fae0dfade
6,4.9402,space,3.937,0,121,121,26,1,,,58d0632c2fc72000011f8c57,61ba1b56b3a80c4052940d1a,2021-12-15_16h43.08.809,PRaM,2021.2.3,Win32,59.93048064,61b8f3437b89212fae0dfade
4,3.3706,space,2.1533,0,122,122,260,1,,,58d0632c2fc72000011f8c57,61ba1b56b3a80c4052940d1a,2021-12-15_16h43.08.809,PRaM,2021.2.3,Win32,59.93048064,61b8f3437b89212fae0dfade
6,3.8237,space,2.7209,0,123,123,141,1,,,58d0632c2fc72000011f8c57,61ba1b56b3a80c4052940d1a,2021-12-15_16h43.08.809,PRaM,2021.2.3,Win32,59.93048064,61b8f3437b89212fae0dfade
6,3.1833,space,2.1161,0,124,124,236,1,,,58d0632c2fc72000011f8c57,61ba1b56b3a80c4052940d1a,2021-12-15_16h43.08.809,PRaM,2021.2.3,Win32,59.93048064,61b8f3437b89212fae0dfade
9,4.8343,space,4.4822,0,125,125,320,1,,,58d0632c2fc72000011f8c57,61ba1b56b3a80c4052940d1a,2021-12-15_16h43.08.809,PRaM,2021.2.3,Win32,59.93048064,61b8f3437b89212fae0dfade
8,2.4336,space,1.4523,0,126,126,277,1,,,58d0632c2fc72000011f8c57,61ba1b56b3a80c4052940d1a,2021-12-15_16h43.08.809,PRaM,2021.2.3,Win32,59.93048064,61b8f3437b89212fae0dfade
6,3.0538,space,1.9453,0,127,127,80,1,,,58d0632c2fc72000011f8c57,61ba1b56b3a80c4052940d1a,2021-12-15_16h43.08.809,PRaM,2021.2.3,Win32,59.93048064,61b8f3437b89212fae0dfade
6,3.6262,space,2.7001,0,128,128,152,1,,,58d0632c2fc72000011f8c57,61ba1b56b3a80c4052940d1a,2021-12-15_16h43.08.809,PRaM,2021.2.3,Win32,59.93048064,61b8f3437b89212fae0dfade
3,3.0922,space,1.9646,0,129,129,266,1,,,58d0632c2fc72000011f8c57,61ba1b56b3a80c4052940d1a,2021-12-15_16h43.08.809,PRaM,2021.2.3,Win32,59.93048064,61b8f3437b89212fae0dfade
6,3.6505,space,2.8384,0,130,130,228,1,,,58d0632c2fc72000011f8c57,61ba1b56b3a80c4052940d1a,2021-12-15_16h43.08.809,PRaM,2021.2.3,Win32,59.93048064,61b8f3437b89212fae0dfade
2,7.1663,space,6.1142,0,131,131,275,1,,,58d0632c2fc72000011f8c57,61ba1b56b3a80c4052940d1a,2021-12-15_16h43.08.809,PRaM,2021.2.3,Win32,59.93048064,61b8f3437b89212fae0dfade
2,2.9864,space,1.9,0,132,132,79,1,,,58d0632c2fc72000011f8c57,61ba1b56b3a80c4052940d1a,2021-12-15_16h43.08.809,PRaM,2021.2.3,Win32,59.93048064,61b8f3437b89212fae0dfade
6,3.4091,space,2.3931,0,133,133,99,1,,,58d0632c2fc72000011f8c57,61ba1b56b3a80c4052940d1a,2021-12-15_16h43.08.809,PRaM,2021.2.3,Win32,59.93048064,61b8f3437b89212fae0dfade
2,3.6752,space,2.6731,0,134,134,128,1,,,58d0632c2fc72000011f8c57,61ba1b56b3a80c4052940d1a,2021-12-15_16h43.08.809,PRaM,2021.2.3,Win32,59.93048064,61b8f3437b89212fae0dfade
3,4.7102,space,4.0139,0,135,135,263,1,,,58d0632c2fc72000011f8c57,61ba1b56b3a80c4052940d1a,2021-12-15_16h43.08.809,PRaM,2021.2.3,Win32,59.93048064,61b8f3437b89212fae0dfade
6,3.5719,space,2.8162,0,136,136,156,1,,,58d0632c2fc72000011f8c57,61ba1b56b3a80c4052940d1a,2021-12-15_16h43.08.809,PRaM,2021.2.3,Win32,59.93048064,61b8f3437b89212fae0dfade
1,2.8753,space,2.3164,0,137,137,330,1,,,58d0632c2fc72000011f8c57,61ba1b56b3a80c4052940d1a,2021-12-15_16h43.08.809,PRaM,2021.2.3,Win32,59.93048064,61b8f3437b89212fae0dfade
3,4.0542,space,3.0283,0,138,138,169,1,,,58d0632c2fc72000011f8c57,61ba1b56b3a80c4052940d1a,2021-12-15_16h43.08.809,PRaM,2021.2.3,Win32,59.93048064,61b8f3437b89212fae0dfade
3,3.5315,space,2.6024,0,139,139,231,1,,,58d0632c2fc72000011f8c57,61ba1b56b3a80c4052940d1a,2021-12-15_16h43.08.809,PRaM,2021.2.3,Win32,59.93048064,61b8f3437b89212fae0dfade
6,3.2505,space,2.1845,0,140,140,132,1,,,58d0632c2fc72000011f8c57,61ba1b56b3a80c4052940d1a,2021-12-15_16h43.08.809,PRaM,2021.2.3,Win32,59.93048064,61b8f3437b89212fae0dfade
4,2.9844,space,1.9188,0,141,141,161,1,,,58d0632c2fc72000011f8c57,61ba1b56b3a80c4052940d1a,2021-12-15_16h43.08.809,PRaM,2021.2.3,Win32,59.93048064,61b8f3437b89212fae0dfade
4,3.8499,space,2.8233,0,142,142,170,1,,,58d0632c2fc72000011f8c57,61ba1b56b3a80c4052940d1a,2021-12-15_16h43.08.809,PRaM,2021.2.3,Win32,59.93048064,61b8f3437b89212fae0dfade
6,2.7929,space,2.9361,0,143,143,270,1,,,58d0632c2fc72000011f8c57,61ba1b56b3a80c4052940d1a,2021-12-15_16h43.08.809,PRaM,2021.2.3,Win32,59.93048064,61b8f3437b89212fae0dfade
4,5.8067,space,4.9041,0,144,144,25,1,,,58d0632c2fc72000011f8c57,61ba1b56b3a80c4052940d1a,2021-12-15_16h43.08.809,PRaM,2021.2.3,Win32,59.93048064,61b8f3437b89212fae0dfade
6,4.6945,space,3.75,0,145,145,145,1,,,58d0632c2fc72000011f8c57,61ba1b56b3a80c4052940d1a,2021-12-15_16h43.08.809,PRaM,2021.2.3,Win32,59.93048064,61b8f3437b89212fae0dfade
7,4.7775,space,4.0004,0,146,146,331,1,,,58d0632c2fc72000011f8c57,61ba1b56b3a80c4052940d1a,2021-12-15_16h43.08.809,PRaM,2021.2.3,Win32,59.93048064,61b8f3437b89212fae0dfade
8,4.2757,space,3.3958,0,147,147,168,1,,,58d0632c2fc72000011f8c57,61ba1b56b3a80c4052940d1a,2021-12-15_16h43.08.809,PRaM,2021.2.3,Win32,59.93048064,61b8f3437b89212fae0dfade
6,3.3277,space,2.1722,0,148,148,256,1,,,58d0632c2fc72000011f8c57,61ba1b56b3a80c4052940d1a,2021-12-15_16h43.08.809,PRaM,2021.2.3,Win32,59.93048064,61b8f3437b89212fae0dfade
6,4.6883,space,3.5836,0,149,149,370,1,,,58d0632c2fc72000011f8c57,61ba1b56b3a80c4052940d1a,2021-12-15_16h43.08.809,PRaM,2021.2.3,Win32,59.93048064,61b8f3437b89212fae0dfade
3,2.7519,space,1.7412,0,150,150,108,1,,,58d0632c2fc72000011f8c57,61ba1b56b3a80c4052940d1a,2021-12-15_16h43.08.809,PRaM,2021.2.3,Win32,59.93048064,61b8f3437b89212fae0dfade
2,2.7096,space,1.7446,0,151,151,292,1,,,58d0632c2fc72000011f8c57,61ba1b56b3a80c4052940d1a,2021-12-15_16h43.08.809,PRaM,2021.2.3,Win32,59.93048064,61b8f3437b89212fae0dfade
6,5.3596,space,4.2566,0,152,152,22,1,,,58d0632c2fc72000011f8c57,61ba1b56b3a80c4052940d1a,2021-12-15_16h43.08.809,PRaM,2021.2.3,Win32,59.93048064,61b8f3437b89212fae0dfade
4,7.2542,space,6.0444,0,153,153,189,1,,,58d0632c2fc72000011f8c57,61ba1b56b3a80c4052940d1a,2021-12-15_16h43.08.809,PRaM,2021.2.3,Win32,59.93048064,61b8f3437b89212fae0dfade
4,4.084,space,3.091,0,154,154,6,1,,,58d0632c2fc72000011f8c57,61ba1b56b3a80c4052940d1a,2021-12-15_16h43.08.809,PRaM,2021.2.3,Win32,59.93048064,61b8f3437b89212fae0dfade
3,4.1901,space,3.1841,0,155,155,82,1,,,58d0632c2fc72000011f8c57,61ba1b56b3a80c4052940d1a,2021-12-15_16h43.08.809,PRaM,2021.2.3,Win32,59.93048064,61b8f3437b89212fae0dfade
6,3.6357,space,2.5829,0,156,156,306,1,,,58d0632c2fc72000011f8c57,61ba1b56b3a80c4052940d1a,2021-12-15_16h43.08.809,PRaM,2021.2.3,Win32,59.93048064,61b8f3437b89212fae0dfade
7,7.6439,space,6.5631,0,157,157,326,1,,,58d0632c2fc72000011f8c57,61ba1b56b3a80c4052940d1a,2021-12-15_16h43.08.809,PRaM,2021.2.3,Win32,59.93048064,61b8f3437b89212fae0dfade
6,2.5533,space,1.4363,0,158,158,327,1,,,58d0632c2fc72000011f8c57,61ba1b56b3a80c4052940d1a,2021-12-15_16h43.08.809,PRaM,2021.2.3,Win32,59.93048064,61b8f3437b89212fae0dfade
6,4.828,space,3.9286,0,159,159,261,1,,,58d0632c2fc72000011f8c57,61ba1b56b3a80c4052940d1a,2021-12-15_16h43.08.809,PRaM,2021.2.3,Win32,59.93048064,61b8f3437b89212fae0dfade
6,2.6908,space,1.7006,0,160,160,158,1,,,58d0632c2fc72000011f8c57,61ba1b56b3a80c4052940d1a,2021-12-15_16h43.08.809,PRaM,2021.2.3,Win32,59.93048064,61b8f3437b89212fae0dfade
8,6.715,space,6.1069,0,161,161,186,1,,,58d0632c2fc72000011f8c57,61ba1b56b3a80c4052940d1a,2021-12-15_16h43.08.809,PRaM,2021.2.3,Win32,59.93048064,61b8f3437b89212fae0dfade
6,3.6397,space,2.5411,0,162,162,117,1,,,58d0632c2fc72000011f8c57,61ba1b56b3a80c4052940d1a,2021-12-15_16h43.08.809,PRaM,2021.2.3,Win32,59.93048064,61b8f3437b89212fae0dfade
3,4.9159,space,3.9017,0,163,163,375,1,,,58d0632c2fc72000011f8c57,61ba1b56b3a80c4052940d1a,2021-12-15_16h43.08.809,PRaM,2021.2.3,Win32,59.93048064,61b8f3437b89212fae0dfade
2,3.7762,space,2.7646,0,164,164,318,1,,,58d0632c2fc72000011f8c57,61ba1b56b3a80c4052940d1a,2021-12-15_16h43.08.809,PRaM,2021.2.3,Win32,59.93048064,61b8f3437b89212fae0dfade
4,4.6431,space,3.7761,0,165,165,188,1,,,58d0632c2fc72000011f8c57,61ba1b56b3a80c4052940d1a,2021-12-15_16h43.08.809,PRaM,2021.2.3,Win32,59.93048064,61b8f3437b89212fae0dfade
6,2.6567,space,1.6335,0,166,166,201,1,,,58d0632c2fc72000011f8c57,61ba1b56b3a80c4052940d1a,2021-12-15_16h43.08.809,PRaM,2021.2.3,Win32,59.93048064,61b8f3437b89212fae0dfade
7,3.1778,space,1.9856,0,167,167,279,1,,,58d0632c2fc72000011f8c57,61ba1b56b3a80c4052940d1a,2021-12-15_16h43.08.809,PRaM,2021.2.3,Win32,59.93048064,61b8f3437b89212fae0dfade
7,3.5799,space,2.5343,0,168,168,182,1,,,58d0632c2fc72000011f8c57,61ba1b56b3a80c4052940d1a,2021-12-15_16h43.08.809,PRaM,2021.2.3,Win32,59.93048064,61b8f3437b89212fae0dfade
7,4.289,space,3.3692,0,169,169,199,1,,,58d0632c2fc72000011f8c57,61ba1b56b3a80c4052940d1a,2021-12-15_16h43.08.809,PRaM,2021.2.3,Win32,59.93048064,61b8f3437b89212fae0dfade
8,3.5088,space,2.4384,0,170,170,159,1,,,58d0632c2fc72000011f8c57,61ba1b56b3a80c4052940d1a,2021-12-15_16h43.08.809,PRaM,2021.2.3,Win32,59.93048064,61b8f3437b89212fae0dfade
1,4.1671,space,3.4389,0,171,171,312,1,,,58d0632c2fc72000011f8c57,61ba1b56b3a80c4052940d1a,2021-12-15_16h43.08.809,PRaM,2021.2.3,Win32,59.93048064,61b8f3437b89212fae0dfade
4,4.9299,space,4.0592,0,172,172,47,1,,,58d0632c2fc72000011f8c57,61ba1b56b3a80c4052940d1a,2021-12-15_16h43.08.809,PRaM,2021.2.3,Win32,59.93048064,61b8f3437b89212fae0dfade
6,3.2935,space,2.1946,0,173,173,0,1,,,58d0632c2fc72000011f8c57,61ba1b56b3a80c4052940d1a,2021-12-15_16h43.08.809,PRaM,2021.2.3,Win32,59.93048064,61b8f3437b89212fae0dfade
4,2.7317,space,1.5854,0,174,174,95,1,,,58d0632c2fc72000011f8c57,61ba1b56b3a80c4052940d1a,2021-12-15_16h43.08.809,PRaM,2021.2.3,Win32,59.93048064,61b8f3437b89212fae0dfade
7,3.1017,space,2.1178,0,175,175,213,1,,,58d0632c2fc72000011f8c57,61ba1b56b3a80c4052940d1a,2021-12-15_16h43.08.809,PRaM,2021.2.3,Win32,59.93048064,61b8f3437b89212fae0dfade
4,6.1832,space,5.1907,0,176,176,243,1,,,58d0632c2fc72000011f8c57,61ba1b56b3a80c4052940d1a,2021-12-15_16h43.08.809,PRaM,2021.2.3,Win32,59.93048064,61b8f3437b89212fae0dfade
6,3.076,space,2.1007,0,177,177,249,1,,,58d0632c2fc72000011f8c57,61ba1b56b3a80c4052940d1a,2021-12-15_16h43.08.809,PRaM,2021.2.3,Win32,59.93048064,61b8f3437b89212fae0dfade
6,3.5597,space,2.5179,0,178,178,294,1,,,58d0632c2fc72000011f8c57,61ba1b56b3a80c4052940d1a,2021-12-15_16h43.08.809,PRaM,2021.2.3,Win32,59.93048064,61b8f3437b89212fae0dfade
4,3.1114,space,1.969,0,179,179,71,1,,,58d0632c2fc72000011f8c57,61ba1b56b3a80c4052940d1a,2021-12-15_16h43.08.809,PRaM,2021.2.3,Win32,59.93048064,61b8f3437b89212fae0dfade
7,2.9521,space,1.9275,0,180,180,205,1,,,58d0632c2fc72000011f8c57,61ba1b56b3a80c4052940d1a,2021-12-15_16h43.08.809,PRaM,2021.2.3,Win32,59.93048064,61b8f3437b89212fae0dfade
3,3.7397,space,2.636,0,181,181,133,1,,,58d0632c2fc72000011f8c57,61ba1b56b3a80c4052940d1a,2021-12-15_16h43.08.809,PRaM,2021.2.3,Win32,59.93048064,61b8f3437b89212fae0dfade
7,3.7739,space,3.0126,0,182,182,348,1,,,58d0632c2fc72000011f8c57,61ba1b56b3a80c4052940d1a,2021-12-15_16h43.08.809,PRaM,2021.2.3,Win32,59.93048064,61b8f3437b89212fae0dfade
6,2.7757,space,1.6622,0,183,183,14,1,,,58d0632c2fc72000011f8c57,61ba1b56b3a80c4052940d1a,2021-12-15_16h43.08.809,PRaM,2021.2.3,Win32,59.93048064,61b8f3437b89212fae0dfade
3,2.5519,space,1.4047,0,184,184,155,1,,,58d0632c2fc72000011f8c57,61ba1b56b3a80c4052940d1a,2021-12-15_16h43.08.809,PRaM,2021.2.3,Win32,59.93048064,61b8f3437b89212fae0dfade
2,3.6777,space,2.8331,0,185,185,232,1,,,58d0632c2fc72000011f8c57,61ba1b56b3a80c4052940d1a,2021-12-15_16h43.08.809,PRaM,2021.2.3,Win32,59.93048064,61b8f3437b89212fae0dfade
3,6.2315,space,5.402,0,186,186,195,1,,,58d0632c2fc72000011f8c57,61ba1b56b3a80c4052940d1a,2021-12-15_16h43.08.809,PRaM,2021.2.3,Win32,59.93048064,61b8f3437b89212fae0dfade
6,6.3269,space,5.2642,0,187,187,202,1,,,58d0632c2fc72000011f8c57,61ba1b56b3a80c4052940d1a,2021-12-15_16h43.08.809,PRaM,2021.2.3,Win32,59.93048064,61b8f3437b89212fae0dfade
3,2.9043,space,1.7096,0,188,188,78,1,,,58d0632c2fc72000011f8c57,61ba1b56b3a80c4052940d1a,2021-12-15_16h43.08.809,PRaM,2021.2.3,Win32,59.93048064,61b8f3437b89212fae0dfade
7,4.3339,space,3.3408,0,189,189,42,1,,,58d0632c2fc72000011f8c57,61ba1b56b3a80c4052940d1a,2021-12-15_16h43.08.809,PRaM,2021.2.3,Win32,59.93048064,61b8f3437b89212fae0dfade
8,4.0105,space,3.8173,0,190,190,352,1,,,58d0632c2fc72000011f8c57,61ba1b56b3a80c4052940d1a,2021-12-15_16h43.08.809,PRaM,2021.2.3,Win32,59.93048064,61b8f3437b89212fae0dfade
3,2.8088,space,1.9521,0,191,191,218,1,,,58d0632c2fc72000011f8c57,61ba1b56b3a80c4052940d1a,2021-12-15_16h43.08.809,PRaM,2021.2.3,Win32,59.93048064,61b8f3437b89212fae0dfade
6,4.2591,space,3.4835,0,192,192,254,1,,,58d0632c2fc72000011f8c57,61ba1b56b3a80c4052940d1a,2021-12-15_16h43.08.809,PRaM,2021.2.3,Win32,59.93048064,61b8f3437b89212fae0dfade
1,7.3725,space,6.3993,0,193,193,290,1,,,58d0632c2fc72000011f8c57,61ba1b56b3a80c4052940d1a,2021-12-15_16h43.08.809,PRaM,2021.2.3,Win32,59.93048064,61b8f3437b89212fae0dfade
1,2.9096,space,1.9742,0,194,194,313,1,,,58d0632c2fc72000011f8c57,61ba1b56b3a80c4052940d1a,2021-12-15_16h43.08.809,PRaM,2021.2.3,Win32,59.93048064,61b8f3437b89212fae0dfade
4,3.5726,space,2.5276,0,195,195,96,1,,,58d0632c2fc72000011f8c57,61ba1b56b3a80c4052940d1a,2021-12-15_16h43.08.809,PRaM,2021.2.3,Win32,59.93048064,61b8f3437b89212fae0dfade
4,3.8224,space,2.6773,0,196,196,321,1,,,58d0632c2fc72000011f8c57,61ba1b56b3a80c4052940d1a,2021-12-15_16h43.08.809,PRaM,2021.2.3,Win32,59.93048064,61b8f3437b89212fae0dfade
9,7.9038,space,7.0282,0,197,197,137,1,,,58d0632c2fc72000011f8c57,61ba1b56b3a80c4052940d1a,2021-12-15_16h43.08.809,PRaM,2021.2.3,Win32,59.93048064,61b8f3437b89212fae0dfade
4,5.359,space,4.5603,0,198,198,203,1,,,58d0632c2fc72000011f8c57,61ba1b56b3a80c4052940d1a,2021-12-15_16h43.08.809,PRaM,2021.2.3,Win32,59.93048064,61b8f3437b89212fae0dfade
7,4.8287,space,3.7849,0,199,199,86,1,,,58d0632c2fc72000011f8c57,61ba1b56b3a80c4052940d1a,2021-12-15_16h43.08.809,PRaM,2021.2.3,Win32,59.93048064,61b8f3437b89212fae0dfade
2,7.7065,space,6.7287,0,200,200,299,1,,,58d0632c2fc72000011f8c57,61ba1b56b3a80c4052940d1a,2021-12-15_16h43.08.809,PRaM,2021.2.3,Win32,59.93048064,61b8f3437b89212fae0dfade
4,2.7312,space,1.6945,0,201,201,360,1,,,58d0632c2fc72000011f8c57,61ba1b56b3a80c4052940d1a,2021-12-15_16h43.08.809,PRaM,2021.2.3,Win32,59.93048064,61b8f3437b89212fae0dfade
3,3.4302,space,2.4233,0,202,202,316,1,,,58d0632c2fc72000011f8c57,61ba1b56b3a80c4052940d1a,2021-12-15_16h43.08.809,PRaM,2021.2.3,Win32,59.93048064,61b8f3437b89212fae0dfade
7,2.7947,space,1.8521,0,203,203,153,1,,,58d0632c2fc72000011f8c57,61ba1b56b3a80c4052940d1a,2021-12-15_16h43.08.809,PRaM,2021.2.3,Win32,59.93048064,61b8f3437b89212fae0dfade
2,3.65,space,2.6217,0,204,204,354,1,,,58d0632c2fc72000011f8c57,61ba1b56b3a80c4052940d1a,2021-12-15_16h43.08.809,PRaM,2021.2.3,Win32,59.93048064,61b8f3437b89212fae0dfade
7,3.8072,space,2.8528,0,205,205,278,1,,,58d0632c2fc72000011f8c57,61ba1b56b3a80c4052940d1a,2021-12-15_16h43.08.809,PRaM,2021.2.3,Win32,59.93048064,61b8f3437b89212fae0dfade
6,2.8283,space,1.7245,0,206,206,365,1,,,58d0632c2fc72000011f8c57,61ba1b56b3a80c4052940d1a,2021-12-15_16h43.08.809,PRaM,2021.2.3,Win32,59.93048064,61b8f3437b89212fae0dfade
4,3.7585,space,3.1004,0,207,207,349,1,,,58d0632c2fc72000011f8c57,61ba1b56b3a80c4052940d1a,2021-12-15_16h43.08.809,PRaM,2021.2.3,Win32,59.93048064,61b8f3437b89212fae0dfade
4,4.1631,space,3.1665,0,208,208,37,1,,,58d0632c2fc72000011f8c57,61ba1b56b3a80c4052940d1a,2021-12-15_16h43.08.809,PRaM,2021.2.3,Win32,59.93048064,61b8f3437b89212fae0dfade
6,3.2809,space,2.2392,0,209,209,105,1,,,58d0632c2fc72000011f8c57,61ba1b56b3a80c4052940d1a,2021-12-15_16h43.08.809,PRaM,2021.2.3,Win32,59.93048064,61b8f3437b89212fae0dfade
3,2.5436,space,1.4827,0,210,210,332,1,,,58d0632c2fc72000011f8c57,61ba1b56b3a80c4052940d1a,2021-12-15_16h43.08.809,PRaM,2021.2.3,Win32,59.93048064,61b8f3437b89212fae0dfade
6,3.4771,space,2.4516,0,211,211,46,1,,,58d0632c2fc72000011f8c57,61ba1b56b3a80c4052940d1a,2021-12-15_16h43.08.809,PRaM,2021.2.3,Win32,59.93048064,61b8f3437b89212fae0dfade
3,4.6884,space,3.7509,0,212,212,283,1,,,58d0632c2fc72000011f8c57,61ba1b56b3a80c4052940d1a,2021-12-15_16h43.08.809,PRaM,2021.2.3,Win32,59.93048064,61b8f3437b89212fae0dfade
6,10.6445,space,9.5921,0,213,213,45,1,,,58d0632c2fc72000011f8c57,61ba1b56b3a80c4052940d1a,2021-12-15_16h43.08.809,PRaM,2021.2.3,Win32,59.93048064,61b8f3437b89212fae0dfade
8,2.5615,space,1.6575,0,214,214,319,1,,,58d0632c2fc72000011f8c57,61ba1b56b3a80c4052940d1a,2021-12-15_16h43.08.809,PRaM,2021.2.3,Win32,59.93048064,61b8f3437b89212fae0dfade
4,4.642,space,3.651,0,215,215,224,1,,,58d0632c2fc72000011f8c57,61ba1b56b3a80c4052940d1a,2021-12-15_16h43.08.809,PRaM,2021.2.3,Win32,59.93048064,61b8f3437b89212fae0dfade
6,2.9261,space,1.8921,0,216,216,216,1,,,58d0632c2fc72000011f8c57,61ba1b56b3a80c4052940d1a,2021-12-15_16h43.08.809,PRaM,2021.2.3,Win32,59.93048064,61b8f3437b89212fae0dfade
3,2.7824,space,1.6941,0,217,217,24,1,,,58d0632c2fc72000011f8c57,61ba1b56b3a80c4052940d1a,2021-12-15_16h43.08.809,PRaM,2021.2.3,Win32,59.93048064,61b8f3437b89212fae0dfade
8,4.1273,space,3.1836,0,218,218,288,1,,,58d0632c2fc72000011f8c57,61ba1b56b3a80c4052940d1a,2021-12-15_16h43.08.809,PRaM,2021.2.3,Win32,59.93048064,61b8f3437b89212fae0dfade
4,2.6253,space,1.5165,0,219,219,116,1,,,58d0632c2fc72000011f8c57,61ba1b56b3a80c4052940d1a,2021-12-15_16h43.08.809,PRaM,2021.2.3,Win32,59.93048064,61b8f3437b89212fae0dfade
3,4.827,space,3.8356,0,220,220,49,1,,,58d0632c2fc72000011f8c57,61ba1b56b3a80c4052940d1a,2021-12-15_16h43.08.809,PRaM,2021.2.3,Win32,59.93048064,61b8f3437b89212fae0dfade
6,3.0309,space,2.0187,0,221,221,301,1,,,58d0632c2fc72000011f8c57,61ba1b56b3a80c4052940d1a,2021-12-15_16h43.08.809,PRaM,2021.2.3,Win32,59.93048064,61b8f3437b89212fae0dfade
7,2.7468,space,1.8495,0,222,222,196,1,,,58d0632c2fc72000011f8c57,61ba1b56b3a80c4052940d1a,2021-12-15_16h43.08.809,PRaM,2021.2.3,Win32,59.93048064,61b8f3437b89212fae0dfade
7,2.7592,space,1.67,0,223,223,335,1,,,58d0632c2fc72000011f8c57,61ba1b56b3a80c4052940d1a,2021-12-15_16h43.08.809,PRaM,2021.2.3,Win32,59.93048064,61b8f3437b89212fae0dfade
2,3.2744,space,2.1247,0,224,224,97,1,,,58d0632c2fc72000011f8c57,61ba1b56b3a80c4052940d1a,2021-12-15_16h43.08.809,PRaM,2021.2.3,Win32,59.93048064,61b8f3437b89212fae0dfade
1,3.2277,space,2.9178,0,225,225,107,1,,,58d0632c2fc72000011f8c57,61ba1b56b3a80c4052940d1a,2021-12-15_16h43.08.809,PRaM,2021.2.3,Win32,59.93048064,61b8f3437b89212fae0dfade
6,5.8351,space,4.6257,0,226,226,40,1,,,58d0632c2fc72000011f8c57,61ba1b56b3a80c4052940d1a,2021-12-15_16h43.08.809,PRaM,2021.2.3,Win32,59.93048064,61b8f3437b89212fae0dfade
7,2.6668,space,1.6161,0,227,227,297,1,,,58d0632c2fc72000011f8c57,61ba1b56b3a80c4052940d1a,2021-12-15_16h43.08.809,PRaM,2021.2.3,Win32,59.93048064,61b8f3437b89212fae0dfade
3,3.3749,space,2.4049,0,228,228,215,1,,,58d0632c2fc72000011f8c57,61ba1b56b3a80c4052940d1a,2021-12-15_16h43.08.809,PRaM,2021.2.3,Win32,59.93048064,61b8f3437b89212fae0dfade
2,3.1004,space,2.0324,0,229,229,91,1,,,58d0632c2fc72000011f8c57,61ba1b56b3a80c4052940d1a,2021-12-15_16h43.08.809,PRaM,2021.2.3,Win32,59.93048064,61b8f3437b89212fae0dfade
1,3.5165,space,2.559,0,230,230,289,1,,,58d0632c2fc72000011f8c57,61ba1b56b3a80c4052940d1a,2021-12-15_16h43.08.809,PRaM,2021.2.3,Win32,59.93048064,61b8f3437b89212fae0dfade
6,3.5881,space,2.523,0,231,231,134,1,,,58d0632c2fc72000011f8c57,61ba1b56b3a80c4052940d1a,2021-12-15_16h43.08.809,PRaM,2021.2.3,Win32,59.93048064,61b8f3437b89212fae0dfade
3,4.9894,space,3.8871,0,232,232,309,1,,,58d0632c2fc72000011f8c57,61ba1b56b3a80c4052940d1a,2021-12-15_16h43.08.809,PRaM,2021.2.3,Win32,59.93048064,61b8f3437b89212fae0dfade
7,4.3637,space,3.511,0,233,233,69,1,,,58d0632c2fc72000011f8c57,61ba1b56b3a80c4052940d1a,2021-12-15_16h43.08.809,PRaM,2021.2.3,Win32,59.93048064,61b8f3437b89212fae0dfade
6,3.0307,space,1.9532,0,234,234,175,1,,,58d0632c2fc72000011f8c57,61ba1b56b3a80c4052940d1a,2021-12-15_16h43.08.809,PRaM,2021.2.3,Win32,59.93048064,61b8f3437b89212fae0dfade
6,5.201,space,4.0668,0,235,235,317,1,,,58d0632c2fc72000011f8c57,61ba1b56b3a80c4052940d1a,2021-12-15_16h43.08.809,PRaM,2021.2.3,Win32,59.93048064,61b8f3437b89212fae0dfade
6,5.2475,space,4.2158,0,236,236,282,1,,,58d0632c2fc72000011f8c57,61ba1b56b3a80c4052940d1a,2021-12-15_16h43.08.809,PRaM,2021.2.3,Win32,59.93048064,61b8f3437b89212fae0dfade
6,3.9701,space,2.8674,0,237,237,140,1,,,58d0632c2fc72000011f8c57,61ba1b56b3a80c4052940d1a,2021-12-15_16h43.08.809,PRaM,2021.2.3,Win32,59.93048064,61b8f3437b89212fae0dfade
6,3.9096,space,2.933,0,238,238,98,1,,,58d0632c2fc72000011f8c57,61ba1b56b3a80c4052940d1a,2021-12-15_16h43.08.809,PRaM,2021.2.3,Win32,59.93048064,61b8f3437b89212fae0dfade
7,3.7818,space,2.7252,0,239,239,120,1,,,58d0632c2fc72000011f8c57,61ba1b56b3a80c4052940d1a,2021-12-15_16h43.08.809,PRaM,2021.2.3,Win32,59.93048064,61b8f3437b89212fae0dfade
3,2.709,space,1.5828,0,240,240,5,1,,,58d0632c2fc72000011f8c57,61ba1b56b3a80c4052940d1a,2021-12-15_16h43.08.809,PRaM,2021.2.3,Win32,59.93048064,61b8f3437b89212fae0dfade
2,2.8598,space,1.7385,0,241,241,92,1,,,58d0632c2fc72000011f8c57,61ba1b56b3a80c4052940d1a,2021-12-15_16h43.08.809,PRaM,2021.2.3,Win32,59.93048064,61b8f3437b89212fae0dfade
6,7.4085,space,6.5351,0,242,242,304,1,,,58d0632c2fc72000011f8c57,61ba1b56b3a80c4052940d1a,2021-12-15_16h43.08.809,PRaM,2021.2.3,Win32,59.93048064,61b8f3437b89212fae0dfade
6,3.0766,space,1.9012,0,243,243,179,1,,,58d0632c2fc72000011f8c57,61ba1b56b3a80c4052940d1a,2021-12-15_16h43.08.809,PRaM,2021.2.3,Win32,59.93048064,61b8f3437b89212fae0dfade
6,2.4441,space,1.2918,0,244,244,32,1,,,58d0632c2fc72000011f8c57,61ba1b56b3a80c4052940d1a,2021-12-15_16h43.08.809,PRaM,2021.2.3,Win32,59.93048064,61b8f3437b89212fae0dfade
6,3.683,space,2.6469,0,245,245,271,1,,,58d0632c2fc72000011f8c57,61ba1b56b3a80c4052940d1a,2021-12-15_16h43.08.809,PRaM,2021.2.3,Win32,59.93048064,61b8f3437b89212fae0dfade
2,3.0594,space,2.7929,0,246,246,68,1,,,58d0632c2fc72000011f8c57,61ba1b56b3a80c4052940d1a,2021-12-15_16h43.08.809,PRaM,2021.2.3,Win32,59.93048064,61b8f3437b89212fae0dfade
7,4.438,space,3.2995,0,247,247,165,1,,,58d0632c2fc72000011f8c57,61ba1b56b3a80c4052940d1a,2021-12-15_16h43.08.809,PRaM,2021.2.3,Win32,59.93048064,61b8f3437b89212fae0dfade
4,4.7612,space,3.6181,0,248,248,342,1,,,58d0632c2fc72000011f8c57,61ba1b56b3a80c4052940d1a,2021-12-15_16h43.08.809,PRaM,2021.2.3,Win32,59.93048064,61b8f3437b89212fae0dfade
7,2.6867,space,1.5074,0,249,249,53,1,,,58d0632c2fc72000011f8c57,61ba1b56b3a80c4052940d1a,2021-12-15_16h43.08.809,PRaM,2021.2.3,Win32,59.93048064,61b8f3437b89212fae0dfade
6,5.6499,space,4.6081,0,250,250,21,1,,,58d0632c2fc72000011f8c57,61ba1b56b3a80c4052940d1a,2021-12-15_16h43.08.809,PRaM,2021.2.3,Win32,59.93048064,61b8f3437b89212fae0dfade
4,5.3978,space,4.3102,0,251,251,72,1,,,58d0632c2fc72000011f8c57,61ba1b56b3a80c4052940d1a,2021-12-15_16h43.08.809,PRaM,2021.2.3,Win32,59.93048064,61b8f3437b89212fae0dfade
6,3.0174,space,2.0906,0,252,252,194,1,,,58d0632c2fc72000011f8c57,61ba1b56b3a80c4052940d1a,2021-12-15_16h43.08.809,PRaM,2021.2.3,Win32,59.93048064,61b8f3437b89212fae0dfade
8,6.5851,space,6.0865,0,253,253,20,1,,,58d0632c2fc72000011f8c57,61ba1b56b3a80c4052940d1a,2021-12-15_16h43.08.809,PRaM,2021.2.3,Win32,59.93048064,61b8f3437b89212fae0dfade
3,3.0123,space,2.0992,0,254,254,23,1,,,58d0632c2fc72000011f8c57,61ba1b56b3a80c4052940d1a,2021-12-15_16h43.08.809,PRaM,2021.2.3,Win32,59.93048064,61b8f3437b89212fae0dfade
3,4.2957,space,3.2011,0,255,255,57,1,,,58d0632c2fc72000011f8c57,61ba1b56b3a80c4052940d1a,2021-12-15_16h43.08.809,PRaM,2021.2.3,Win32,59.93048064,61b8f3437b89212fae0dfade
6,4.3894,space,3.2526,0,256,256,246,1,,,58d0632c2fc72000011f8c57,61ba1b56b3a80c4052940d1a,2021-12-15_16h43.08.809,PRaM,2021.2.3,Win32,59.93048064,61b8f3437b89212fae0dfade
8,2.7354,space,1.5867,0,257,257,61,1,,,58d0632c2fc72000011f8c57,61ba1b56b3a80c4052940d1a,2021-12-15_16h43.08.809,PRaM,2021.2.3,Win32,59.93048064,61b8f3437b89212fae0dfade
6,3.8663,space,2.9937,0,258,258,298,1,,,58d0632c2fc72000011f8c57,61ba1b56b3a80c4052940d1a,2021-12-15_16h43.08.809,PRaM,2021.2.3,Win32,59.93048064,61b8f3437b89212fae0dfade
7,3.5197,space,3.2713,0,259,259,115,1,,,58d0632c2fc72000011f8c57,61ba1b56b3a80c4052940d1a,2021-12-15_16h43.08.809,PRaM,2021.2.3,Win32,59.93048064,61b8f3437b89212fae0dfade
6,3.8706,space,2.9841,0,260,260,126,1,,,58d0632c2fc72000011f8c57,61ba1b56b3a80c4052940d1a,2021-12-15_16h43.08.809,PRaM,2021.2.3,Win32,59.93048064,61b8f3437b89212fae0dfade
7,3.7082,space,2.7721,0,261,261,198,1,,,58d0632c2fc72000011f8c57,61ba1b56b3a80c4052940d1a,2021-12-15_16h43.08.809,PRaM,2021.2.3,Win32,59.93048064,61b8f3437b89212fae0dfade
7,3.2678,space,2.0442,0,262,262,337,1,,,58d0632c2fc72000011f8c57,61ba1b56b3a80c4052940d1a,2021-12-15_16h43.08.809,PRaM,2021.2.3,Win32,59.93048064,61b8f3437b89212fae0dfade
6,3.8092,space,2.7227,0,263,263,371,1,,,58d0632c2fc72000011f8c57,61ba1b56b3a80c4052940d1a,2021-12-15_16h43.08.809,PRaM,2021.2.3,Win32,59.93048064,61b8f3437b89212fae0dfade
6,4.3006,space,3.4226,0,264,264,51,1,,,58d0632c2fc72000011f8c57,61ba1b56b3a80c4052940d1a,2021-12-15_16h43.08.809,PRaM,2021.2.3,Win32,59.93048064,61b8f3437b89212fae0dfade
1,5.1993,space,4.2328,0,265,265,214,1,,,58d0632c2fc72000011f8c57,61ba1b56b3a80c4052940d1a,2021-12-15_16h43.08.809,PRaM,2021.2.3,Win32,59.93048064,61b8f3437b89212fae0dfade
4,3.4767,space,2.5584,0,266,266,341,1,,,58d0632c2fc72000011f8c57,61ba1b56b3a80c4052940d1a,2021-12-15_16h43.08.809,PRaM,2021.2.3,Win32,59.93048064,61b8f3437b89212fae0dfade
6,3.4909,space,2.3258,0,267,267,100,1,,,58d0632c2fc72000011f8c57,61ba1b56b3a80c4052940d1a,2021-12-15_16h43.08.809,PRaM,2021.2.3,Win32,59.93048064,61b8f3437b89212fae0dfade
3,6.2408,space,4.9679,0,268,268,253,1,,,58d0632c2fc72000011f8c57,61ba1b56b3a80c4052940d1a,2021-12-15_16h43.08.809,PRaM,2021.2.3,Win32,59.93048064,61b8f3437b89212fae0dfade
6,2.5409,space,1.4045,0,269,269,307,1,,,58d0632c2fc72000011f8c57,61ba1b56b3a80c4052940d1a,2021-12-15_16h43.08.809,PRaM,2021.2.3,Win32,59.93048064,61b8f3437b89212fae0dfade
7,2.5394,space,1.4614,0,270,270,244,1,,,58d0632c2fc72000011f8c57,61ba1b56b3a80c4052940d1a,2021-12-15_16h43.08.809,PRaM,2021.2.3,Win32,59.93048064,61b8f3437b89212fae0dfade
3,4.0764,space,3.0099,0,271,271,109,1,,,58d0632c2fc72000011f8c57,61ba1b56b3a80c4052940d1a,2021-12-15_16h43.08.809,PRaM,2021.2.3,Win32,59.93048064,61b8f3437b89212fae0dfade
2,3.157,space,1.909,0,272,272,217,1,,,58d0632c2fc72000011f8c57,61ba1b56b3a80c4052940d1a,2021-12-15_16h43.08.809,PRaM,2021.2.3,Win32,59.93048064,61b8f3437b89212fae0dfade
7,2.8995,space,1.8776,0,273,273,239,1,,,58d0632c2fc72000011f8c57,61ba1b56b3a80c4052940d1a,2021-12-15_16h43.08.809,PRaM,2021.2.3,Win32,59.93048064,61b8f3437b89212fae0dfade
1,3.8046,space,3.1672,0,274,274,67,1,,,58d0632c2fc72000011f8c57,61ba1b56b3a80c4052940d1a,2021-12-15_16h43.08.809,PRaM,2021.2.3,Win32,59.93048064,61b8f3437b89212fae0dfade
4,3.2085,space,2.0743,0,275,275,174,1,,,58d0632c2fc72000011f8c57,61ba1b56b3a80c4052940d1a,2021-12-15_16h43.08.809,PRaM,2021.2.3,Win32,59.93048064,61b8f3437b89212fae0dfade
7,3.295,space,2.1442,0,276,276,259,1,,,58d0632c2fc72000011f8c57,61ba1b56b3a80c4052940d1a,2021-12-15_16h43.08.809,PRaM,2021.2.3,Win32,59.93048064,61b8f3437b89212fae0dfade
6,2.8619,space,1.8288,0,277,277,364,1,,,58d0632c2fc72000011f8c57,61ba1b56b3a80c4052940d1a,2021-12-15_16h43.08.809,PRaM,2021.2.3,Win32,59.93048064,61b8f3437b89212fae0dfade
4,3.8342,space,2.5559,0,278,278,345,1,,,58d0632c2fc72000011f8c57,61ba1b56b3a80c4052940d1a,2021-12-15_16h43.08.809,PRaM,2021.2.3,Win32,59.93048064,61b8f3437b89212fae0dfade
4,3.8997,space,2.8239,0,279,279,44,1,,,58d0632c2fc72000011f8c57,61ba1b56b3a80c4052940d1a,2021-12-15_16h43.08.809,PRaM,2021.2.3,Win32,59.93048064,61b8f3437b89212fae0dfade
2,4.6353,space,3.6174,0,280,280,339,1,,,58d0632c2fc72000011f8c57,61ba1b56b3a80c4052940d1a,2021-12-15_16h43.08.809,PRaM,2021.2.3,Win32,59.93048064,61b8f3437b89212fae0dfade
2,3.5378,space,2.4449,0,281,281,206,1,,,58d0632c2fc72000011f8c57,61ba1b56b3a80c4052940d1a,2021-12-15_16h43.08.809,PRaM,2021.2.3,Win32,59.93048064,61b8f3437b89212fae0dfade
6,6.158,space,5.0766,0,282,282,274,1,,,58d0632c2fc72000011f8c57,61ba1b56b3a80c4052940d1a,2021-12-15_16h43.08.809,PRaM,2021.2.3,Win32,59.93048064,61b8f3437b89212fae0dfade
4,6.466,space,5.5297,0,283,283,171,1,,,58d0632c2fc72000011f8c57,61ba1b56b3a80c4052940d1a,2021-12-15_16h43.08.809,PRaM,2021.2.3,Win32,59.93048064,61b8f3437b89212fae0dfade
6,4.4797,space,3.4636,0,284,284,324,1,,,58d0632c2fc72000011f8c57,61ba1b56b3a80c4052940d1a,2021-12-15_16h43.08.809,PRaM,2021.2.3,Win32,59.93048064,61b8f3437b89212fae0dfade
2,3.9371,space,2.8181,0,285,285,284,1,,,58d0632c2fc72000011f8c57,61ba1b56b3a80c4052940d1a,2021-12-15_16h43.08.809,PRaM,2021.2.3,Win32,59.93048064,61b8f3437b89212fae0dfade
2,4.3934,space,3.4071,0,286,286,185,1,,,58d0632c2fc72000011f8c57,61ba1b56b3a80c4052940d1a,2021-12-15_16h43.08.809,PRaM,2021.2.3,Win32,59.93048064,61b8f3437b89212fae0dfade
2,6.0623,space,4.9879,0,287,287,359,1,,,58d0632c2fc72000011f8c57,61ba1b56b3a80c4052940d1a,2021-12-15_16h43.08.809,PRaM,2021.2.3,Win32,59.93048064,61b8f3437b89212fae0dfade
2,4.074,space,2.9065,0,288,288,212,1,,,58d0632c2fc72000011f8c57,61ba1b56b3a80c4052940d1a,2021-12-15_16h43.08.809,PRaM,2021.2.3,Win32,59.93048064,61b8f3437b89212fae0dfade
6,4.4438,space,3.2352,0,289,289,33,1,,,58d0632c2fc72000011f8c57,61ba1b56b3a80c4052940d1a,2021-12-15_16h43.08.809,PRaM,2021.2.3,Win32,59.93048064,61b8f3437b89212fae0dfade
3,2.8135,space,1.6639,0,290,290,103,1,,,58d0632c2fc72000011f8c57,61ba1b56b3a80c4052940d1a,2021-12-15_16h43.08.809,PRaM,2021.2.3,Win32,59.93048064,61b8f3437b89212fae0dfade
6,3.1595,space,2.1641,0,291,291,357,1,,,58d0632c2fc72000011f8c57,61ba1b56b3a80c4052940d1a,2021-12-15_16h43.08.809,PRaM,2021.2.3,Win32,59.93048064,61b8f3437b89212fae0dfade
1,3.211,space,2.0366,0,292,292,247,1,,,58d0632c2fc72000011f8c57,61ba1b56b3a80c4052940d1a,2021-12-15_16h43.08.809,PRaM,2021.2.3,Win32,59.93048064,61b8f3437b89212fae0dfade
3,4.0027,space,2.7281,0,293,293,184,1,,,58d0632c2fc72000011f8c57,61ba1b56b3a80c4052940d1a,2021-12-15_16h43.08.809,PRaM,2021.2.3,Win32,59.93048064,61b8f3437b89212fae0dfade
4,3.2763,space,2.3474,0,294,294,272,1,,,58d0632c2fc72000011f8c57,61ba1b56b3a80c4052940d1a,2021-12-15_16h43.08.809,PRaM,2021.2.3,Win32,59.93048064,61b8f3437b89212fae0dfade
2,3.2459,space,2.8023,0,295,295,130,1,,,58d0632c2fc72000011f8c57,61ba1b56b3a80c4052940d1a,2021-12-15_16h43.08.809,PRaM,2021.2.3,Win32,59.93048064,61b8f3437b89212fae0dfade
3,4.1236,space,2.9576,0,296,296,227,1,,,58d0632c2fc72000011f8c57,61ba1b56b3a80c4052940d1a,2021-12-15_16h43.08.809,PRaM,2021.2.3,Win32,59.93048064,61b8f3437b89212fae0dfade
3,2.7744,space,1.6067,0,297,297,293,1,,,58d0632c2fc72000011f8c57,61ba1b56b3a80c4052940d1a,2021-12-15_16h43.08.809,PRaM,2021.2.3,Win32,59.93048064,61b8f3437b89212fae0dfade
6,5.4153,space,4.255,0,298,298,347,1,,,58d0632c2fc72000011f8c57,61ba1b56b3a80c4052940d1a,2021-12-15_16h43.08.809,PRaM,2021.2.3,Win32,59.93048064,61b8f3437b89212fae0dfade
6,3.2679,space,2.0501,0,299,299,367,1,,,58d0632c2fc72000011f8c57,61ba1b56b3a80c4052940d1a,2021-12-15_16h43.08.809,PRaM,2021.2.3,Win32,59.93048064,61b8f3437b89212fae0dfade
3,4.4233,space,3.1905,0,300,300,204,1,,,58d0632c2fc72000011f8c57,61ba1b56b3a80c4052940d1a,2021-12-15_16h43.08.809,PRaM,2021.2.3,Win32,59.93048064,61b8f3437b89212fae0dfade
8,3.0916,space,3.277,0,301,301,197,1,,,58d0632c2fc72000011f8c57,61ba1b56b3a80c4052940d1a,2021-12-15_16h43.08.809,PRaM,2021.2.3,Win32,59.93048064,61b8f3437b89212fae0dfade
3,2.9572,space,1.7591,0,302,302,11,1,,,58d0632c2fc72000011f8c57,61ba1b56b3a80c4052940d1a,2021-12-15_16h43.08.809,PRaM,2021.2.3,Win32,59.93048064,61b8f3437b89212fae0dfade
8,4.4116,space,3.4474,0,303,303,17,1,,,58d0632c2fc72000011f8c57,61ba1b56b3a80c4052940d1a,2021-12-15_16h43.08.809,PRaM,2021.2.3,Win32,59.93048064,61b8f3437b89212fae0dfade
6,4.0747,space,2.8422,0,304,304,124,1,,,58d0632c2fc72000011f8c57,61ba1b56b3a80c4052940d1a,2021-12-15_16h43.08.809,PRaM,2021.2.3,Win32,59.93048064,61b8f3437b89212fae0dfade
3,3.3189,space,2.1316,0,305,305,65,1,,,58d0632c2fc72000011f8c57,61ba1b56b3a80c4052940d1a,2021-12-15_16h43.08.809,PRaM,2021.2.3,Win32,59.93048064,61b8f3437b89212fae0dfade
6,3.4092,space,2.3205,0,306,306,366,1,,,58d0632c2fc72000011f8c57,61ba1b56b3a80c4052940d1a,2021-12-15_16h43.08.809,PRaM,2021.2.3,Win32,59.93048064,61b8f3437b89212fae0dfade
6,5.4489,space,4.3154,0,307,307,76,1,,,58d0632c2fc72000011f8c57,61ba1b56b3a80c4052940d1a,2021-12-15_16h43.08.809,PRaM,2021.2.3,Win32,59.93048064,61b8f3437b89212fae0dfade
3,3.7715,space,2.8859,0,308,308,163,1,,,58d0632c2fc72000011f8c57,61ba1b56b3a80c4052940d1a,2021-12-15_16h43.08.809,PRaM,2021.2.3,Win32,59.93048064,61b8f3437b89212fae0dfade
4,3.687,space,2.4643,0,309,309,241,1,,,58d0632c2fc72000011f8c57,61ba1b56b3a80c4052940d1a,2021-12-15_16h43.08.809,PRaM,2021.2.3,Win32,59.93048064,61b8f3437b89212fae0dfade
3,3.8612,space,2.664,0,310,310,35,1,,,58d0632c2fc72000011f8c57,61ba1b56b3a80c4052940d1a,2021-12-15_16h43.08.809,PRaM,2021.2.3,Win32,59.93048064,61b8f3437b89212fae0dfade
8,5.4625,space,4.4775,0,311,311,207,1,,,58d0632c2fc72000011f8c57,61ba1b56b3a80c4052940d1a,2021-12-15_16h43.08.809,PRaM,2021.2.3,Win32,59.93048064,61b8f3437b89212fae0dfade
6,3.1179,space,2.0853,0,312,312,114,1,,,58d0632c2fc72000011f8c57,61ba1b56b3a80c4052940d1a,2021-12-15_16h43.08.809,PRaM,2021.2.3,Win32,59.93048064,61b8f3437b89212fae0dfade
3,3.1089,space,1.9888,0,313,313,229,1,,,58d0632c2fc72000011f8c57,61ba1b56b3a80c4052940d1a,2021-12-15_16h43.08.809,PRaM,2021.2.3,Win32,59.93048064,61b8f3437b89212fae0dfade
6,5.2313,space,4.0909,0,314,314,29,1,,,58d0632c2fc72000011f8c57,61ba1b56b3a80c4052940d1a,2021-12-15_16h43.08.809,PRaM,2021.2.3,Win32,59.93048064,61b8f3437b89212fae0dfade
7,4.5862,space,3.5361,0,315,315,180,1,,,58d0632c2fc72000011f8c57,61ba1b56b3a80c4052940d1a,2021-12-15_16h43.08.809,PRaM,2021.2.3,Win32,59.93048064,61b8f3437b89212fae0dfade
6,7.4725,space,6.2349,0,316,316,178,1,,,58d0632c2fc72000011f8c57,61ba1b56b3a80c4052940d1a,2021-12-15_16h43.08.809,PRaM,2021.2.3,Win32,59.93048064,61b8f3437b89212fae0dfade
4,2.5387,space,1.2442,0,317,317,13,1,,,58d0632c2fc72000011f8c57,61ba1b56b3a80c4052940d1a,2021-12-15_16h43.08.809,PRaM,2021.2.3,Win32,59.93048064,61b8f3437b89212fae0dfade
6,3.2267,space,1.9389,0,318,318,355,1,,,58d0632c2fc72000011f8c57,61ba1b56b3a80c4052940d1a,2021-12-15_16h43.08.809,PRaM,2021.2.3,Win32,59.93048064,61b8f3437b89212fae0dfade
3,2.495,space,1.1148,0,319,319,36,1,,,58d0632c2fc72000011f8c57,61ba1b56b3a80c4052940d1a,2021-12-15_16h43.08.809,PRaM,2021.2.3,Win32,59.93048064,61b8f3437b89212fae0dfade
6,3.3184,space,1.9756,0,320,320,264,1,,,58d0632c2fc72000011f8c57,61ba1b56b3a80c4052940d1a,2021-12-15_16h43.08.809,PRaM,2021.2.3,Win32,59.93048064,61b8f3437b89212fae0dfade
7,2.5498,space,1.3697,0,321,321,325,1,,,58d0632c2fc72000011f8c57,61ba1b56b3a80c4052940d1a,2021-12-15_16h43.08.809,PRaM,2021.2.3,Win32,59.93048064,61b8f3437b89212fae0dfade
7,2.3668,space,1.198,0,322,322,118,1,,,58d0632c2fc72000011f8c57,61ba1b56b3a80c4052940d1a,2021-12-15_16h43.08.809,PRaM,2021.2.3,Win32,59.93048064,61b8f3437b89212fae0dfade
6,3.1388,space,1.9319,0,323,323,305,1,,,58d0632c2fc72000011f8c57,61ba1b56b3a80c4052940d1a,2021-12-15_16h43.08.809,PRaM,2021.2.3,Win32,59.93048064,61b8f3437b89212fae0dfade
4,4.9289,space,3.7516,0,324,324,183,1,,,58d0632c2fc72000011f8c57,61ba1b56b3a80c4052940d1a,2021-12-15_16h43.08.809,PRaM,2021.2.3,Win32,59.93048064,61b8f3437b89212fae0dfade
2,2.6477,space,1.8778,0,325,325,190,1,,,58d0632c2fc72000011f8c57,61ba1b56b3a80c4052940d1a,2021-12-15_16h43.08.809,PRaM,2021.2.3,Win32,59.93048064,61b8f3437b89212fae0dfade
4,7.7025,space,6.4241,0,326,326,123,1,,,58d0632c2fc72000011f8c57,61ba1b56b3a80c4052940d1a,2021-12-15_16h43.08.809,PRaM,2021.2.3,Win32,59.93048064,61b8f3437b89212fae0dfade
6,2.7261,space,1.4824,0,327,327,151,1,,,58d0632c2fc72000011f8c57,61ba1b56b3a80c4052940d1a,2021-12-15_16h43.08.809,PRaM,2021.2.3,Win32,59.93048064,61b8f3437b89212fae0dfade
6,3.1596,space,2.2569,0,328,328,19,1,,,58d0632c2fc72000011f8c57,61ba1b56b3a80c4052940d1a,2021-12-15_16h43.08.809,PRaM,2021.2.3,Win32,59.93048064,61b8f3437b89212fae0dfade
2,3.8578,space,2.5526,0,329,329,338,1,,,58d0632c2fc72000011f8c57,61ba1b56b3a80c4052940d1a,2021-12-15_16h43.08.809,PRaM,2021.2.3,Win32,59.93048064,61b8f3437b89212fae0dfade
6,2.8033,space,1.646,0,330,330,358,1,,,58d0632c2fc72000011f8c57,61ba1b56b3a80c4052940d1a,2021-12-15_16h43.08.809,PRaM,2021.2.3,Win32,59.93048064,61b8f3437b89212fae0dfade
6,3.4614,space,2.2121,0,331,331,269,1,,,58d0632c2fc72000011f8c57,61ba1b56b3a80c4052940d1a,2021-12-15_16h43.08.809,PRaM,2021.2.3,Win32,59.93048064,61b8f3437b89212fae0dfade
2,3.0149,space,1.8564,0,332,332,28,1,,,58d0632c2fc72000011f8c57,61ba1b56b3a80c4052940d1a,2021-12-15_16h43.08.809,PRaM,2021.2.3,Win32,59.93048064,61b8f3437b89212fae0dfade
4,4.338,space,3.0126,0,333,333,135,1,,,58d0632c2fc72000011f8c57,61ba1b56b3a80c4052940d1a,2021-12-15_16h43.08.809,PRaM,2021.2.3,Win32,59.93048064,61b8f3437b89212fae0dfade
6,4.1417,space,2.9815,0,334,334,52,1,,,58d0632c2fc72000011f8c57,61ba1b56b3a80c4052940d1a,2021-12-15_16h43.08.809,PRaM,2021.2.3,Win32,59.93048064,61b8f3437b89212fae0dfade
6,2.5628,space,1.2656,0,335,335,291,1,,,58d0632c2fc72000011f8c57,61ba1b56b3a80c4052940d1a,2021-12-15_16h43.08.809,PRaM,2021.2.3,Win32,59.93048064,61b8f3437b89212fae0dfade
6,3.8237,space,2.5654,0,336,336,177,1,,,58d0632c2fc72000011f8c57,61ba1b56b3a80c4052940d1a,2021-12-15_16h43.08.809,PRaM,2021.2.3,Win32,59.93048064,61b8f3437b89212fae0dfade
3,3.8749,space,2.4862,0,337,337,77,1,,,58d0632c2fc72000011f8c57,61ba1b56b3a80c4052940d1a,2021-12-15_16h43.08.809,PRaM,2021.2.3,Win32,59.93048064,61b8f3437b89212fae0dfade
3,2.7621,space,1.4912,0,338,338,265,1,,,58d0632c2fc72000011f8c57,61ba1b56b3a80c4052940d1a,2021-12-15_16h43.08.809,PRaM,2021.2.3,Win32,59.93048064,61b8f3437b89212fae0dfade
6,4.5934,space,3.5494,0,339,339,255,1,,,58d0632c2fc72000011f8c57,61ba1b56b3a80c4052940d1a,2021-12-15_16h43.08.809,PRaM,2021.2.3,Win32,59.93048064,61b8f3437b89212fae0dfade
2,2.2275,space,0.9155,0,340,340,329,1,,,58d0632c2fc72000011f8c57,61ba1b56b3a80c4052940d1a,2021-12-15_16h43.08.809,PRaM,2021.2.3,Win32,59.93048064,61b8f3437b89212fae0dfade
4,4.3589,space,3.1024,0,341,341,322,1,,,58d0632c2fc72000011f8c57,61ba1b56b3a80c4052940d1a,2021-12-15_16h43.08.809,PRaM,2021.2.3,Win32,59.93048064,61b8f3437b89212fae0dfade
4,4.0414,space,2.6773,0,342,342,233,1,,,58d0632c2fc72000011f8c57,61ba1b56b3a80c4052940d1a,2021-12-15_16h43.08.809,PRaM,2021.2.3,Win32,59.93048064,61b8f3437b89212fae0dfade
8,3.6759,space,6.319,0,343,343,225,1,,,58d0632c2fc72000011f8c57,61ba1b56b3a80c4052940d1a,2021-12-15_16h43.08.809,PRaM,2021.2.3,Win32,59.93048064,61b8f3437b89212fae0dfade
6,2.5461,space,1.4327,0,344,344,30,1,,,58d0632c2fc72000011f8c57,61ba1b56b3a80c4052940d1a,2021-12-15_16h43.08.809,PRaM,2021.2.3,Win32,59.93048064,61b8f3437b89212fae0dfade
4,5.5222,space,4.3151,0,345,345,87,1,,,58d0632c2fc72000011f8c57,61ba1b56b3a80c4052940d1a,2021-12-15_16h43.08.809,PRaM,2021.2.3,Win32,59.93048064,61b8f3437b89212fae0dfade
6,2.5328,space,1.233,0,346,346,74,1,,,58d0632c2fc72000011f8c57,61ba1b56b3a80c4052940d1a,2021-12-15_16h43.08.809,PRaM,2021.2.3,Win32,59.93048064,61b8f3437b89212fae0dfade
9,6.3981,space,5.3576,0,347,347,285,1,,,58d0632c2fc72000011f8c57,61ba1b56b3a80c4052940d1a,2021-12-15_16h43.08.809,PRaM,2021.2.3,Win32,59.93048064,61b8f3437b89212fae0dfade
4,3.4916,space,2.1469,0,348,348,176,1,,,58d0632c2fc72000011f8c57,61ba1b56b3a80c4052940d1a,2021-12-15_16h43.08.809,PRaM,2021.2.3,Win32,59.93048064,61b8f3437b89212fae0dfade
4,5.5912,space,4.2503,0,349,349,81,1,,,58d0632c2fc72000011f8c57,61ba1b56b3a80c4052940d1a,2021-12-15_16h43.08.809,PRaM,2021.2.3,Win32,59.93048064,61b8f3437b89212fae0dfade
6,3.2951,space,1.9784,0,350,350,226,1,,,58d0632c2fc72000011f8c57,61ba1b56b3a80c4052940d1a,2021-12-15_16h43.08.809,PRaM,2021.2.3,Win32,59.93048064,61b8f3437b89212fae0dfade
2,3.8302,space,2.5617,0,351,351,315,1,,,58d0632c2fc72000011f8c57,61ba1b56b3a80c4052940d1a,2021-12-15_16h43.08.809,PRaM,2021.2.3,Win32,59.93048064,61b8f3437b89212fae0dfade
1,3.6703,space,2.5971,0,352,352,248,1,,,58d0632c2fc72000011f8c57,61ba1b56b3a80c4052940d1a,2021-12-15_16h43.08.809,PRaM,2021.2.3,Win32,59.93048064,61b8f3437b89212fae0dfade
7,4.2674,space,3.0347,0,353,353,93,1,,,58d0632c2fc72000011f8c57,61ba1b56b3a80c4052940d1a,2021-12-15_16h43.08.809,PRaM,2021.2.3,Win32,59.93048064,61b8f3437b89212fae0dfade
7,2.7879,space,1.5187,0,354,354,102,1,,,58d0632c2fc72000011f8c57,61ba1b56b3a80c4052940d1a,2021-12-15_16h43.08.809,PRaM,2021.2.3,Win32,59.93048064,61b8f3437b89212fae0dfade
8,2.1909,space,1.0446,0,355,355,64,1,,,58d0632c2fc72000011f8c57,61ba1b56b3a80c4052940d1a,2021-12-15_16h43.08.809,PRaM,2021.2.3,Win32,59.93048064,61b8f3437b89212fae0dfade
2,2.0597,space,0.7619,0,356,356,287,1,,,58d0632c2fc72000011f8c57,61ba1b56b3a80c4052940d1a,2021-12-15_16h43.08.809,PRaM,2021.2.3,Win32,59.93048064,61b8f3437b89212fae0dfade
7,3.4605,space,2.0688,0,357,357,211,1,,,58d0632c2fc72000011f8c57,61ba1b56b3a80c4052940d1a,2021-12-15_16h43.08.809,PRaM,2021.2.3,Win32,59.93048064,61b8f3437b89212fae0dfade
6,3.3518,space,2.0323,0,358,358,12,1,,,58d0632c2fc72000011f8c57,61ba1b56b3a80c4052940d1a,2021-12-15_16h43.08.809,PRaM,2021.2.3,Win32,59.93048064,61b8f3437b89212fae0dfade
6,2.8351,space,1.9165,0,359,359,273,1,,,58d0632c2fc72000011f8c57,61ba1b56b3a80c4052940d1a,2021-12-15_16h43.08.809,PRaM,2021.2.3,Win32,59.93048064,61b8f3437b89212fae0dfade
3,4.9982,space,4.1408,0,360,360,250,1,,,58d0632c2fc72000011f8c57,61ba1b56b3a80c4052940d1a,2021-12-15_16h43.08.809,PRaM,2021.2.3,Win32,59.93048064,61b8f3437b89212fae0dfade
3,8.1917,space,7.1175,0,361,361,89,1,,,58d0632c2fc72000011f8c57,61ba1b56b3a80c4052940d1a,2021-12-15_16h43.08.809,PRaM,2021.2.3,Win32,59.93048064,61b8f3437b89212fae0dfade
6,4.4413,space,3.5458,0,362,362,187,1,,,58d0632c2fc72000011f8c57,61ba1b56b3a80c4052940d1a,2021-12-15_16h43.08.809,PRaM,2021.2.3,Win32,59.93048064,61b8f3437b89212fae0dfade
7,2.8969,space,1.7383,0,363,363,4,1,,,58d0632c2fc72000011f8c57,61ba1b56b3a80c4052940d1a,2021-12-15_16h43.08.809,PRaM,2021.2.3,Win32,59.93048064,61b8f3437b89212fae0dfade
4,3.2151,space,1.9449,0,364,364,138,1,,,58d0632c2fc72000011f8c57,61ba1b56b3a80c4052940d1a,2021-12-15_16h43.08.809,PRaM,2021.2.3,Win32,59.93048064,61b8f3437b89212fae0dfade
6,3.6561,space,2.7015,0,365,365,119,1,,,58d0632c2fc72000011f8c57,61ba1b56b3a80c4052940d1a,2021-12-15_16h43.08.809,PRaM,2021.2.3,Win32,59.93048064,61b8f3437b89212fae0dfade
6,5.4479,space,4.3167,0,366,366,200,1,,,58d0632c2fc72000011f8c57,61ba1b56b3a80c4052940d1a,2021-12-15_16h43.08.809,PRaM,2021.2.3,Win32,59.93048064,61b8f3437b89212fae0dfade
6,5.3316,space,3.9817,0,367,367,238,1,,,58d0632c2fc72000011f8c57,61ba1b56b3a80c4052940d1a,2021-12-15_16h43.08.809,PRaM,2021.2.3,Win32,59.93048064,61b8f3437b89212fae0dfade
6,2.9097,space,2.0145,0,368,368,350,1,,,58d0632c2fc72000011f8c57,61ba1b56b3a80c4052940d1a,2021-12-15_16h43.08.809,PRaM,2021.2.3,Win32,59.93048064,61b8f3437b89212fae0dfade
6,2.5792,space,1.314,0,369,369,310,1,,,58d0632c2fc72000011f8c57,61ba1b56b3a80c4052940d1a,2021-12-15_16h43.08.809,PRaM,2021.2.3,Win32,59.93048064,61b8f3437b89212fae0dfade
6,3.1134,space,1.775,0,370,370,150,1,,,58d0632c2fc72000011f8c57,61ba1b56b3a80c4052940d1a,2021-12-15_16h43.08.809,PRaM,2021.2.3,Win32,59.93048064,61b8f3437b89212fae0dfade
7,4.0398,space,2.8482,0,371,371,7,1,,,58d0632c2fc72000011f8c57,61ba1b56b3a80c4052940d1a,2021-12-15_16h43.08.809,PRaM,2021.2.3,Win32,59.93048064,61b8f3437b89212fae0dfade
9,3.4664,space,2.4552,0,372,372,323,1,,,58d0632c2fc72000011f8c57,61ba1b56b3a80c4052940d1a,2021-12-15_16h43.08.809,PRaM,2021.2.3,Win32,59.93048064,61b8f3437b89212fae0dfade
7,3.8847,space,2.9266,0,373,373,149,1,,,58d0632c2fc72000011f8c57,61ba1b56b3a80c4052940d1a,2021-12-15_16h43.08.809,PRaM,2021.2.3,Win32,59.93048064,61b8f3437b89212fae0dfade
6,3.6788,space,2.3482,0,374,374,219,1,,,58d0632c2fc72000011f8c57,61ba1b56b3a80c4052940d1a,2021-12-15_16h43.08.809,PRaM,2021.2.3,Win32,59.93048064,61b8f3437b89212fae0dfade
6,7.6209,space,6.3521,0,375,375,363,1,,,58d0632c2fc72000011f8c57,61ba1b56b3a80c4052940d1a,2021-12-15_16h43.08.809,PRaM,2021.2.3,Win32,59.93048064,61b8f3437b89212fae0dfade
4,3.0828,space,1.8177,0,376,376,148,1,,,58d0632c2fc72000011f8c57,61ba1b56b3a80c4052940d1a,2021-12-15_16h43.08.809,PRaM,2021.2.3,Win32,59.93048064,61b8f3437b89212fae0dfade
3,4.2958,space,2.9614,0,377,377,300,1,,,58d0632c2fc72000011f8c57,61ba1b56b3a80c4052940d1a,2021-12-15_16h43.08.809,PRaM,2021.2.3,Win32,59.93048064,61b8f3437b89212fae0dfade
