Rating.response,Rating.rt,EndTrial.keys,EndTrial.rt,trials.thisRepN,trials.thisTrialN,trials.thisN,trials.thisIndex,trials.ran,Pos1,Pos2,participant,session,date,expName,psychopyVersion,OS,frameRate,study_id
1,26.4442,space,34.4459,0,0,0,214,1,,,58f3d7699fbdde00011e99f7,643772d753e3c065d65f8d7d,2023-04-13_04h21.49.820,PRaM,2021.2.3,Win32,60.0132029,61b8f3437b89212fae0dfade
2,9.2704,space,8.584,0,1,1,77,1,,,58f3d7699fbdde00011e99f7,643772d753e3c065d65f8d7d,2023-04-13_04h21.49.820,PRaM,2021.2.3,Win32,60.0132029,61b8f3437b89212fae0dfade
4,7.962,space,6.3642,0,2,2,306,1,,,58f3d7699fbdde00011e99f7,643772d753e3c065d65f8d7d,2023-04-13_04h21.49.820,PRaM,2021.2.3,Win32,60.0132029,61b8f3437b89212fae0dfade
2,5.1121,space,3.4489,0,3,3,68,1,,,58f3d7699fbdde00011e99f7,643772d753e3c065d65f8d7d,2023-04-13_04h21.49.820,PRaM,2021.2.3,Win32,60.0132029,61b8f3437b89212fae0dfade
3,3.1477,space,1.5176,0,4,4,332,1,,,58f3d7699fbdde00011e99f7,643772d753e3c065d65f8d7d,2023-04-13_04h21.49.820,PRaM,2021.2.3,Win32,60.0132029,61b8f3437b89212fae0dfade
4,4.0382,space,2.3697,0,5,5,146,1,,,58f3d7699fbdde00011e99f7,643772d753e3c065d65f8d7d,2023-04-13_04h21.49.820,PRaM,2021.2.3,Win32,60.0132029,61b8f3437b89212fae0dfade
3,3.0606,space,3.2843,0,6,6,374,1,,,58f3d7699fbdde00011e99f7,643772d753e3c065d65f8d7d,2023-04-13_04h21.49.820,PRaM,2021.2.3,Win32,60.0132029,61b8f3437b89212fae0dfade
5,15.2401,space,16.9031,0,7,7,117,1,,,58f3d7699fbdde00011e99f7,643772d753e3c065d65f8d7d,2023-04-13_04h21.49.820,PRaM,2021.2.3,Win32,60.0132029,61b8f3437b89212fae0dfade
6,3.8914,space,2.1373,0,8,8,112,1,,,58f3d7699fbdde00011e99f7,643772d753e3c065d65f8d7d,2023-04-13_04h21.49.820,PRaM,2021.2.3,Win32,60.0132029,61b8f3437b89212fae0dfade
5,11.1654,space,9.4837,0,9,9,33,1,,,58f3d7699fbdde00011e99f7,643772d753e3c065d65f8d7d,2023-04-13_04h21.49.820,PRaM,2021.2.3,Win32,60.0132029,61b8f3437b89212fae0dfade
3,6.8269,space,5.1651,0,10,10,135,1,,,58f3d7699fbdde00011e99f7,643772d753e3c065d65f8d7d,2023-04-13_04h21.49.820,PRaM,2021.2.3,Win32,60.0132029,61b8f3437b89212fae0dfade
3,11.9113,space,11.9972,0,11,11,258,1,,,58f3d7699fbdde00011e99f7,643772d753e3c065d65f8d7d,2023-04-13_04h21.49.820,PRaM,2021.2.3,Win32,60.0132029,61b8f3437b89212fae0dfade
6,6.1558,space,4.4338,0,12,12,114,1,,,58f3d7699fbdde00011e99f7,643772d753e3c065d65f8d7d,2023-04-13_04h21.49.820,PRaM,2021.2.3,Win32,60.0132029,61b8f3437b89212fae0dfade
4,16.3644,space,15.3667,0,13,13,297,1,,,58f3d7699fbdde00011e99f7,643772d753e3c065d65f8d7d,2023-04-13_04h21.49.820,PRaM,2021.2.3,Win32,60.0132029,61b8f3437b89212fae0dfade
3,2.5089,space,0.5332,0,14,14,299,1,,,58f3d7699fbdde00011e99f7,643772d753e3c065d65f8d7d,2023-04-13_04h21.49.820,PRaM,2021.2.3,Win32,60.0132029,61b8f3437b89212fae0dfade
6,8.9611,space,7.5846,0,15,15,102,1,,,58f3d7699fbdde00011e99f7,643772d753e3c065d65f8d7d,2023-04-13_04h21.49.820,PRaM,2021.2.3,Win32,60.0132029,61b8f3437b89212fae0dfade
3,5.7792,space,4.0316,0,16,16,5,1,,,58f3d7699fbdde00011e99f7,643772d753e3c065d65f8d7d,2023-04-13_04h21.49.820,PRaM,2021.2.3,Win32,60.0132029,61b8f3437b89212fae0dfade
4,3.133,space,1.3832,0,17,17,21,1,,,58f3d7699fbdde00011e99f7,643772d753e3c065d65f8d7d,2023-04-13_04h21.49.820,PRaM,2021.2.3,Win32,60.0132029,61b8f3437b89212fae0dfade
6,5.1117,space,3.5012,0,18,18,83,1,,,58f3d7699fbdde00011e99f7,643772d753e3c065d65f8d7d,2023-04-13_04h21.49.820,PRaM,2021.2.3,Win32,60.0132029,61b8f3437b89212fae0dfade
7,7.5783,space,5.8501,0,19,19,84,1,,,58f3d7699fbdde00011e99f7,643772d753e3c065d65f8d7d,2023-04-13_04h21.49.820,PRaM,2021.2.3,Win32,60.0132029,61b8f3437b89212fae0dfade
5,3.9925,space,2.2678,0,20,20,64,1,,,58f3d7699fbdde00011e99f7,643772d753e3c065d65f8d7d,2023-04-13_04h21.49.820,PRaM,2021.2.3,Win32,60.0132029,61b8f3437b89212fae0dfade
2,11.1625,space,9.6007,0,21,21,39,1,,,58f3d7699fbdde00011e99f7,643772d753e3c065d65f8d7d,2023-04-13_04h21.49.820,PRaM,2021.2.3,Win32,60.0132029,61b8f3437b89212fae0dfade
4,35.3062,space,33.7131,0,22,22,12,1,,,58f3d7699fbdde00011e99f7,643772d753e3c065d65f8d7d,2023-04-13_04h21.49.820,PRaM,2021.2.3,Win32,60.0132029,61b8f3437b89212fae0dfade
2,13.7167,space,12.1309,0,23,23,217,1,,,58f3d7699fbdde00011e99f7,643772d753e3c065d65f8d7d,2023-04-13_04h21.49.820,PRaM,2021.2.3,Win32,60.0132029,61b8f3437b89212fae0dfade
1,3.4011,space,1.7683,0,24,24,130,1,,,58f3d7699fbdde00011e99f7,643772d753e3c065d65f8d7d,2023-04-13_04h21.49.820,PRaM,2021.2.3,Win32,60.0132029,61b8f3437b89212fae0dfade
2,24.7183,space,23.0146,0,25,25,13,1,,,58f3d7699fbdde00011e99f7,643772d753e3c065d65f8d7d,2023-04-13_04h21.49.820,PRaM,2021.2.3,Win32,60.0132029,61b8f3437b89212fae0dfade
7,4.2538,space,2.5843,0,26,26,14,1,,,58f3d7699fbdde00011e99f7,643772d753e3c065d65f8d7d,2023-04-13_04h21.49.820,PRaM,2021.2.3,Win32,60.0132029,61b8f3437b89212fae0dfade
5,5.9657,space,4.0139,0,27,27,267,1,,,58f3d7699fbdde00011e99f7,643772d753e3c065d65f8d7d,2023-04-13_04h21.49.820,PRaM,2021.2.3,Win32,60.0132029,61b8f3437b89212fae0dfade
2,4.3106,space,2.6207,0,28,28,92,1,,,58f3d7699fbdde00011e99f7,643772d753e3c065d65f8d7d,2023-04-13_04h21.49.820,PRaM,2021.2.3,Win32,60.0132029,61b8f3437b89212fae0dfade
2,2.3197,space,0.8183,0,29,29,131,1,,,58f3d7699fbdde00011e99f7,643772d753e3c065d65f8d7d,2023-04-13_04h21.49.820,PRaM,2021.2.3,Win32,60.0132029,61b8f3437b89212fae0dfade
6,18.0281,space,18.4123,0,30,30,105,1,,,58f3d7699fbdde00011e99f7,643772d753e3c065d65f8d7d,2023-04-13_04h21.49.820,PRaM,2021.2.3,Win32,60.0132029,61b8f3437b89212fae0dfade
4,6.9161,space,5.1508,0,31,31,151,1,,,58f3d7699fbdde00011e99f7,643772d753e3c065d65f8d7d,2023-04-13_04h21.49.820,PRaM,2021.2.3,Win32,60.0132029,61b8f3437b89212fae0dfade
3,6.8116,space,5.185,0,32,32,123,1,,,58f3d7699fbdde00011e99f7,643772d753e3c065d65f8d7d,2023-04-13_04h21.49.820,PRaM,2021.2.3,Win32,60.0132029,61b8f3437b89212fae0dfade
2,5.077,space,3.1541,0,33,33,187,1,,,58f3d7699fbdde00011e99f7,643772d753e3c065d65f8d7d,2023-04-13_04h21.49.820,PRaM,2021.2.3,Win32,60.0132029,61b8f3437b89212fae0dfade
4,12.5491,space,10.8164,0,34,34,85,1,,,58f3d7699fbdde00011e99f7,643772d753e3c065d65f8d7d,2023-04-13_04h21.49.820,PRaM,2021.2.3,Win32,60.0132029,61b8f3437b89212fae0dfade
3,16.3769,space,14.6974,0,35,35,160,1,,,58f3d7699fbdde00011e99f7,643772d753e3c065d65f8d7d,2023-04-13_04h21.49.820,PRaM,2021.2.3,Win32,60.0132029,61b8f3437b89212fae0dfade
4,7.7163,space,5.8375,0,36,36,141,1,,,58f3d7699fbdde00011e99f7,643772d753e3c065d65f8d7d,2023-04-13_04h21.49.820,PRaM,2021.2.3,Win32,60.0132029,61b8f3437b89212fae0dfade
2,11.1993,space,9.4327,0,37,37,67,1,,,58f3d7699fbdde00011e99f7,643772d753e3c065d65f8d7d,2023-04-13_04h21.49.820,PRaM,2021.2.3,Win32,60.0132029,61b8f3437b89212fae0dfade
2,7.8491,space,6.1314,0,38,38,158,1,,,58f3d7699fbdde00011e99f7,643772d753e3c065d65f8d7d,2023-04-13_04h21.49.820,PRaM,2021.2.3,Win32,60.0132029,61b8f3437b89212fae0dfade
2,5.7886,space,4.0741,0,39,39,9,1,,,58f3d7699fbdde00011e99f7,643772d753e3c065d65f8d7d,2023-04-13_04h21.49.820,PRaM,2021.2.3,Win32,60.0132029,61b8f3437b89212fae0dfade
2,2.3746,space,0.5832,0,40,40,35,1,,,58f3d7699fbdde00011e99f7,643772d753e3c065d65f8d7d,2023-04-13_04h21.49.820,PRaM,2021.2.3,Win32,60.0132029,61b8f3437b89212fae0dfade
5,3.3756,space,1.4862,0,41,41,110,1,,,58f3d7699fbdde00011e99f7,643772d753e3c065d65f8d7d,2023-04-13_04h21.49.820,PRaM,2021.2.3,Win32,60.0132029,61b8f3437b89212fae0dfade
6,3.1434,space,1.2546,0,42,42,302,1,,,58f3d7699fbdde00011e99f7,643772d753e3c065d65f8d7d,2023-04-13_04h21.49.820,PRaM,2021.2.3,Win32,60.0132029,61b8f3437b89212fae0dfade
2,2.7768,space,0.918,0,43,43,144,1,,,58f3d7699fbdde00011e99f7,643772d753e3c065d65f8d7d,2023-04-13_04h21.49.820,PRaM,2021.2.3,Win32,60.0132029,61b8f3437b89212fae0dfade
5,3.534,space,1.8353,0,44,44,178,1,,,58f3d7699fbdde00011e99f7,643772d753e3c065d65f8d7d,2023-04-13_04h21.49.820,PRaM,2021.2.3,Win32,60.0132029,61b8f3437b89212fae0dfade
4,2.7766,space,0.9137,0,45,45,62,1,,,58f3d7699fbdde00011e99f7,643772d753e3c065d65f8d7d,2023-04-13_04h21.49.820,PRaM,2021.2.3,Win32,60.0132029,61b8f3437b89212fae0dfade
6,2.5796,space,0.5568,0,46,46,331,1,,,58f3d7699fbdde00011e99f7,643772d753e3c065d65f8d7d,2023-04-13_04h21.49.820,PRaM,2021.2.3,Win32,60.0132029,61b8f3437b89212fae0dfade
2,4.5129,space,2.6479,0,47,47,193,1,,,58f3d7699fbdde00011e99f7,643772d753e3c065d65f8d7d,2023-04-13_04h21.49.820,PRaM,2021.2.3,Win32,60.0132029,61b8f3437b89212fae0dfade
1,4.4078,space,3.9007,0,48,48,268,1,,,58f3d7699fbdde00011e99f7,643772d753e3c065d65f8d7d,2023-04-13_04h21.49.820,PRaM,2021.2.3,Win32,60.0132029,61b8f3437b89212fae0dfade
2,6.1265,space,4.1851,0,49,49,286,1,,,58f3d7699fbdde00011e99f7,643772d753e3c065d65f8d7d,2023-04-13_04h21.49.820,PRaM,2021.2.3,Win32,60.0132029,61b8f3437b89212fae0dfade
3,3.281,space,1.5657,0,50,50,156,1,,,58f3d7699fbdde00011e99f7,643772d753e3c065d65f8d7d,2023-04-13_04h21.49.820,PRaM,2021.2.3,Win32,60.0132029,61b8f3437b89212fae0dfade
2,3.7589,space,1.8683,0,51,51,2,1,,,58f3d7699fbdde00011e99f7,643772d753e3c065d65f8d7d,2023-04-13_04h21.49.820,PRaM,2021.2.3,Win32,60.0132029,61b8f3437b89212fae0dfade
2,1.7135,space,0.0019,0,52,52,283,1,,,58f3d7699fbdde00011e99f7,643772d753e3c065d65f8d7d,2023-04-13_04h21.49.820,PRaM,2021.2.3,Win32,60.0132029,61b8f3437b89212fae0dfade
6,4.9983,space,3.2151,0,53,53,225,1,,,58f3d7699fbdde00011e99f7,643772d753e3c065d65f8d7d,2023-04-13_04h21.49.820,PRaM,2021.2.3,Win32,60.0132029,61b8f3437b89212fae0dfade
2,3.8035,space,2.051,0,54,54,257,1,,,58f3d7699fbdde00011e99f7,643772d753e3c065d65f8d7d,2023-04-13_04h21.49.820,PRaM,2021.2.3,Win32,60.0132029,61b8f3437b89212fae0dfade
2,10.306,space,8.7474,0,55,55,74,1,,,58f3d7699fbdde00011e99f7,643772d753e3c065d65f8d7d,2023-04-13_04h21.49.820,PRaM,2021.2.3,Win32,60.0132029,61b8f3437b89212fae0dfade
4,5.6299,space,3.9248,0,56,56,261,1,,,58f3d7699fbdde00011e99f7,643772d753e3c065d65f8d7d,2023-04-13_04h21.49.820,PRaM,2021.2.3,Win32,60.0132029,61b8f3437b89212fae0dfade
2,3.4322,space,1.7015,0,57,57,89,1,,,58f3d7699fbdde00011e99f7,643772d753e3c065d65f8d7d,2023-04-13_04h21.49.820,PRaM,2021.2.3,Win32,60.0132029,61b8f3437b89212fae0dfade
1,3.3843,space,1.6848,0,58,58,245,1,,,58f3d7699fbdde00011e99f7,643772d753e3c065d65f8d7d,2023-04-13_04h21.49.820,PRaM,2021.2.3,Win32,60.0132029,61b8f3437b89212fae0dfade
3,7.1973,space,5.3842,0,59,59,211,1,,,58f3d7699fbdde00011e99f7,643772d753e3c065d65f8d7d,2023-04-13_04h21.49.820,PRaM,2021.2.3,Win32,60.0132029,61b8f3437b89212fae0dfade
2,3.0808,space,1.2928,0,60,60,75,1,,,58f3d7699fbdde00011e99f7,643772d753e3c065d65f8d7d,2023-04-13_04h21.49.820,PRaM,2021.2.3,Win32,60.0132029,61b8f3437b89212fae0dfade
4,2.7828,space,0.974,0,61,61,43,1,,,58f3d7699fbdde00011e99f7,643772d753e3c065d65f8d7d,2023-04-13_04h21.49.820,PRaM,2021.2.3,Win32,60.0132029,61b8f3437b89212fae0dfade
4,20.9809,space,19.2324,0,62,62,25,1,,,58f3d7699fbdde00011e99f7,643772d753e3c065d65f8d7d,2023-04-13_04h21.49.820,PRaM,2021.2.3,Win32,60.0132029,61b8f3437b89212fae0dfade
2,2.6604,space,0.8543,0,63,63,262,1,,,58f3d7699fbdde00011e99f7,643772d753e3c065d65f8d7d,2023-04-13_04h21.49.820,PRaM,2021.2.3,Win32,60.0132029,61b8f3437b89212fae0dfade
2,4.2486,space,2.5326,0,64,64,265,1,,,58f3d7699fbdde00011e99f7,643772d753e3c065d65f8d7d,2023-04-13_04h21.49.820,PRaM,2021.2.3,Win32,60.0132029,61b8f3437b89212fae0dfade
6,2.9063,space,1.1812,0,65,65,320,1,,,58f3d7699fbdde00011e99f7,643772d753e3c065d65f8d7d,2023-04-13_04h21.49.820,PRaM,2021.2.3,Win32,60.0132029,61b8f3437b89212fae0dfade
2,3.5248,space,1.9665,0,66,66,308,1,,,58f3d7699fbdde00011e99f7,643772d753e3c065d65f8d7d,2023-04-13_04h21.49.820,PRaM,2021.2.3,Win32,60.0132029,61b8f3437b89212fae0dfade
1,15.2362,space,15.0847,0,67,67,275,1,,,58f3d7699fbdde00011e99f7,643772d753e3c065d65f8d7d,2023-04-13_04h21.49.820,PRaM,2021.2.3,Win32,60.0132029,61b8f3437b89212fae0dfade
4,3.2327,space,1.3652,0,68,68,142,1,,,58f3d7699fbdde00011e99f7,643772d753e3c065d65f8d7d,2023-04-13_04h21.49.820,PRaM,2021.2.3,Win32,60.0132029,61b8f3437b89212fae0dfade
2,3.8441,space,1.9677,0,69,69,10,1,,,58f3d7699fbdde00011e99f7,643772d753e3c065d65f8d7d,2023-04-13_04h21.49.820,PRaM,2021.2.3,Win32,60.0132029,61b8f3437b89212fae0dfade
2,2.261,space,0.8727,0,70,70,23,1,,,58f3d7699fbdde00011e99f7,643772d753e3c065d65f8d7d,2023-04-13_04h21.49.820,PRaM,2021.2.3,Win32,60.0132029,61b8f3437b89212fae0dfade
4,2.7762,space,1.3003,0,71,71,357,1,,,58f3d7699fbdde00011e99f7,643772d753e3c065d65f8d7d,2023-04-13_04h21.49.820,PRaM,2021.2.3,Win32,60.0132029,61b8f3437b89212fae0dfade
2,7.9044,space,6.3508,0,72,72,377,1,,,58f3d7699fbdde00011e99f7,643772d753e3c065d65f8d7d,2023-04-13_04h21.49.820,PRaM,2021.2.3,Win32,60.0132029,61b8f3437b89212fae0dfade
4,37.0507,space,35.3139,0,73,73,226,1,,,58f3d7699fbdde00011e99f7,643772d753e3c065d65f8d7d,2023-04-13_04h21.49.820,PRaM,2021.2.3,Win32,60.0132029,61b8f3437b89212fae0dfade
3,3.0514,space,1.267,0,74,74,310,1,,,58f3d7699fbdde00011e99f7,643772d753e3c065d65f8d7d,2023-04-13_04h21.49.820,PRaM,2021.2.3,Win32,60.0132029,61b8f3437b89212fae0dfade
4,27.7485,space,26.0641,0,75,75,279,1,,,58f3d7699fbdde00011e99f7,643772d753e3c065d65f8d7d,2023-04-13_04h21.49.820,PRaM,2021.2.3,Win32,60.0132029,61b8f3437b89212fae0dfade
4,13.9565,space,12.7652,0,76,76,99,1,,,58f3d7699fbdde00011e99f7,643772d753e3c065d65f8d7d,2023-04-13_04h21.49.820,PRaM,2021.2.3,Win32,60.0132029,61b8f3437b89212fae0dfade
3,4.2873,space,2.7146,0,77,77,282,1,,,58f3d7699fbdde00011e99f7,643772d753e3c065d65f8d7d,2023-04-13_04h21.49.820,PRaM,2021.2.3,Win32,60.0132029,61b8f3437b89212fae0dfade
2,3.0667,space,1.3521,0,78,78,57,1,,,58f3d7699fbdde00011e99f7,643772d753e3c065d65f8d7d,2023-04-13_04h21.49.820,PRaM,2021.2.3,Win32,60.0132029,61b8f3437b89212fae0dfade
3,3.298,space,3.8146,0,79,79,169,1,,,58f3d7699fbdde00011e99f7,643772d753e3c065d65f8d7d,2023-04-13_04h21.49.820,PRaM,2021.2.3,Win32,60.0132029,61b8f3437b89212fae0dfade
2,15.4423,space,13.6654,0,80,80,188,1,,,58f3d7699fbdde00011e99f7,643772d753e3c065d65f8d7d,2023-04-13_04h21.49.820,PRaM,2021.2.3,Win32,60.0132029,61b8f3437b89212fae0dfade
4,8.6282,space,6.8498,0,81,81,182,1,,,58f3d7699fbdde00011e99f7,643772d753e3c065d65f8d7d,2023-04-13_04h21.49.820,PRaM,2021.2.3,Win32,60.0132029,61b8f3437b89212fae0dfade
4,5.8738,space,4.4187,0,82,82,22,1,,,58f3d7699fbdde00011e99f7,643772d753e3c065d65f8d7d,2023-04-13_04h21.49.820,PRaM,2021.2.3,Win32,60.0132029,61b8f3437b89212fae0dfade
2,6.6811,space,4.982,0,83,83,198,1,,,58f3d7699fbdde00011e99f7,643772d753e3c065d65f8d7d,2023-04-13_04h21.49.820,PRaM,2021.2.3,Win32,60.0132029,61b8f3437b89212fae0dfade
4,13.7702,space,11.9697,0,84,84,209,1,,,58f3d7699fbdde00011e99f7,643772d753e3c065d65f8d7d,2023-04-13_04h21.49.820,PRaM,2021.2.3,Win32,60.0132029,61b8f3437b89212fae0dfade
4,4.3271,space,2.6539,0,85,85,353,1,,,58f3d7699fbdde00011e99f7,643772d753e3c065d65f8d7d,2023-04-13_04h21.49.820,PRaM,2021.2.3,Win32,60.0132029,61b8f3437b89212fae0dfade
3,19.4794,space,17.9496,0,86,86,148,1,,,58f3d7699fbdde00011e99f7,643772d753e3c065d65f8d7d,2023-04-13_04h21.49.820,PRaM,2021.2.3,Win32,60.0132029,61b8f3437b89212fae0dfade
2,4.517,space,2.6679,0,87,87,113,1,,,58f3d7699fbdde00011e99f7,643772d753e3c065d65f8d7d,2023-04-13_04h21.49.820,PRaM,2021.2.3,Win32,60.0132029,61b8f3437b89212fae0dfade
4,3.8679,space,2.2519,0,88,88,104,1,,,58f3d7699fbdde00011e99f7,643772d753e3c065d65f8d7d,2023-04-13_04h21.49.820,PRaM,2021.2.3,Win32,60.0132029,61b8f3437b89212fae0dfade
2,5.8604,space,4.3332,0,89,89,266,1,,,58f3d7699fbdde00011e99f7,643772d753e3c065d65f8d7d,2023-04-13_04h21.49.820,PRaM,2021.2.3,Win32,60.0132029,61b8f3437b89212fae0dfade
2,2.6263,space,0.9517,0,90,90,256,1,,,58f3d7699fbdde00011e99f7,643772d753e3c065d65f8d7d,2023-04-13_04h21.49.820,PRaM,2021.2.3,Win32,60.0132029,61b8f3437b89212fae0dfade
4,2.8194,space,0.9006,0,91,91,355,1,,,58f3d7699fbdde00011e99f7,643772d753e3c065d65f8d7d,2023-04-13_04h21.49.820,PRaM,2021.2.3,Win32,60.0132029,61b8f3437b89212fae0dfade
5,2.7602,space,3.6817,0,92,92,88,1,,,58f3d7699fbdde00011e99f7,643772d753e3c065d65f8d7d,2023-04-13_04h21.49.820,PRaM,2021.2.3,Win32,60.0132029,61b8f3437b89212fae0dfade
6,11.9168,space,10.0644,0,93,93,194,1,,,58f3d7699fbdde00011e99f7,643772d753e3c065d65f8d7d,2023-04-13_04h21.49.820,PRaM,2021.2.3,Win32,60.0132029,61b8f3437b89212fae0dfade
7,19.7475,space,18.1493,0,94,94,364,1,,,58f3d7699fbdde00011e99f7,643772d753e3c065d65f8d7d,2023-04-13_04h21.49.820,PRaM,2021.2.3,Win32,60.0132029,61b8f3437b89212fae0dfade
2,3.013,space,1.2985,0,95,95,329,1,,,58f3d7699fbdde00011e99f7,643772d753e3c065d65f8d7d,2023-04-13_04h21.49.820,PRaM,2021.2.3,Win32,60.0132029,61b8f3437b89212fae0dfade
3,12.4888,space,10.5993,0,96,96,154,1,,,58f3d7699fbdde00011e99f7,643772d753e3c065d65f8d7d,2023-04-13_04h21.49.820,PRaM,2021.2.3,Win32,60.0132029,61b8f3437b89212fae0dfade
3,10.6388,space,9.4007,0,97,97,163,1,,,58f3d7699fbdde00011e99f7,643772d753e3c065d65f8d7d,2023-04-13_04h21.49.820,PRaM,2021.2.3,Win32,60.0132029,61b8f3437b89212fae0dfade
5,3.9676,space,3.5161,0,98,98,173,1,,,58f3d7699fbdde00011e99f7,643772d753e3c065d65f8d7d,2023-04-13_04h21.49.820,PRaM,2021.2.3,Win32,60.0132029,61b8f3437b89212fae0dfade
2,2.701,space,0.7682,0,99,99,369,1,,,58f3d7699fbdde00011e99f7,643772d753e3c065d65f8d7d,2023-04-13_04h21.49.820,PRaM,2021.2.3,Win32,60.0132029,61b8f3437b89212fae0dfade
2,3.0476,space,1.4142,0,100,100,235,1,,,58f3d7699fbdde00011e99f7,643772d753e3c065d65f8d7d,2023-04-13_04h21.49.820,PRaM,2021.2.3,Win32,60.0132029,61b8f3437b89212fae0dfade
6,4.7623,space,3.1067,0,101,101,118,1,,,58f3d7699fbdde00011e99f7,643772d753e3c065d65f8d7d,2023-04-13_04h21.49.820,PRaM,2021.2.3,Win32,60.0132029,61b8f3437b89212fae0dfade
3,36.6091,space,35.2457,0,102,102,359,1,,,58f3d7699fbdde00011e99f7,643772d753e3c065d65f8d7d,2023-04-13_04h21.49.820,PRaM,2021.2.3,Win32,60.0132029,61b8f3437b89212fae0dfade
2,9.3681,space,7.487,0,103,103,293,1,,,58f3d7699fbdde00011e99f7,643772d753e3c065d65f8d7d,2023-04-13_04h21.49.820,PRaM,2021.2.3,Win32,60.0132029,61b8f3437b89212fae0dfade
2,2.3953,space,1.2016,0,104,104,170,1,,,58f3d7699fbdde00011e99f7,643772d753e3c065d65f8d7d,2023-04-13_04h21.49.820,PRaM,2021.2.3,Win32,60.0132029,61b8f3437b89212fae0dfade
2,2.1937,space,0.5341,0,105,105,322,1,,,58f3d7699fbdde00011e99f7,643772d753e3c065d65f8d7d,2023-04-13_04h21.49.820,PRaM,2021.2.3,Win32,60.0132029,61b8f3437b89212fae0dfade
4,5.0274,space,3.1177,0,106,106,86,1,,,58f3d7699fbdde00011e99f7,643772d753e3c065d65f8d7d,2023-04-13_04h21.49.820,PRaM,2021.2.3,Win32,60.0132029,61b8f3437b89212fae0dfade
3,3.2443,space,1.5026,0,107,107,281,1,,,58f3d7699fbdde00011e99f7,643772d753e3c065d65f8d7d,2023-04-13_04h21.49.820,PRaM,2021.2.3,Win32,60.0132029,61b8f3437b89212fae0dfade
5,3.6416,space,1.8323,0,108,108,351,1,,,58f3d7699fbdde00011e99f7,643772d753e3c065d65f8d7d,2023-04-13_04h21.49.820,PRaM,2021.2.3,Win32,60.0132029,61b8f3437b89212fae0dfade
8,3.7184,space,2.0506,0,109,109,137,1,,,58f3d7699fbdde00011e99f7,643772d753e3c065d65f8d7d,2023-04-13_04h21.49.820,PRaM,2021.2.3,Win32,60.0132029,61b8f3437b89212fae0dfade
2,3.8111,space,1.9254,0,110,110,253,1,,,58f3d7699fbdde00011e99f7,643772d753e3c065d65f8d7d,2023-04-13_04h21.49.820,PRaM,2021.2.3,Win32,60.0132029,61b8f3437b89212fae0dfade
2,5.4756,space,5.5753,0,111,111,273,1,,,58f3d7699fbdde00011e99f7,643772d753e3c065d65f8d7d,2023-04-13_04h21.49.820,PRaM,2021.2.3,Win32,60.0132029,61b8f3437b89212fae0dfade
3,5.8752,space,3.9677,0,112,112,346,1,,,58f3d7699fbdde00011e99f7,643772d753e3c065d65f8d7d,2023-04-13_04h21.49.820,PRaM,2021.2.3,Win32,60.0132029,61b8f3437b89212fae0dfade
6,4.4646,space,2.5679,0,113,113,221,1,,,58f3d7699fbdde00011e99f7,643772d753e3c065d65f8d7d,2023-04-13_04h21.49.820,PRaM,2021.2.3,Win32,60.0132029,61b8f3437b89212fae0dfade
6,2.96,space,1.2244,0,114,114,66,1,,,58f3d7699fbdde00011e99f7,643772d753e3c065d65f8d7d,2023-04-13_04h21.49.820,PRaM,2021.2.3,Win32,60.0132029,61b8f3437b89212fae0dfade
1,22.1225,space,20.3688,0,115,115,232,1,,,58f3d7699fbdde00011e99f7,643772d753e3c065d65f8d7d,2023-04-13_04h21.49.820,PRaM,2021.2.3,Win32,60.0132029,61b8f3437b89212fae0dfade
4,28.1311,space,26.2648,0,116,116,149,1,,,58f3d7699fbdde00011e99f7,643772d753e3c065d65f8d7d,2023-04-13_04h21.49.820,PRaM,2021.2.3,Win32,60.0132029,61b8f3437b89212fae0dfade
2,5.6619,space,3.8336,0,117,117,87,1,,,58f3d7699fbdde00011e99f7,643772d753e3c065d65f8d7d,2023-04-13_04h21.49.820,PRaM,2021.2.3,Win32,60.0132029,61b8f3437b89212fae0dfade
2,16.5704,space,14.8653,0,118,118,103,1,,,58f3d7699fbdde00011e99f7,643772d753e3c065d65f8d7d,2023-04-13_04h21.49.820,PRaM,2021.2.3,Win32,60.0132029,61b8f3437b89212fae0dfade
6,3.5935,space,1.8839,0,119,119,16,1,,,58f3d7699fbdde00011e99f7,643772d753e3c065d65f8d7d,2023-04-13_04h21.49.820,PRaM,2021.2.3,Win32,60.0132029,61b8f3437b89212fae0dfade
5,2.9515,space,1.1013,0,120,120,132,1,,,58f3d7699fbdde00011e99f7,643772d753e3c065d65f8d7d,2023-04-13_04h21.49.820,PRaM,2021.2.3,Win32,60.0132029,61b8f3437b89212fae0dfade
6,2.5774,space,0.7177,0,121,121,291,1,,,58f3d7699fbdde00011e99f7,643772d753e3c065d65f8d7d,2023-04-13_04h21.49.820,PRaM,2021.2.3,Win32,60.0132029,61b8f3437b89212fae0dfade
2,3.0437,space,1.166,0,122,122,78,1,,,58f3d7699fbdde00011e99f7,643772d753e3c065d65f8d7d,2023-04-13_04h21.49.820,PRaM,2021.2.3,Win32,60.0132029,61b8f3437b89212fae0dfade
4,4.2437,space,2.4002,0,123,123,150,1,,,58f3d7699fbdde00011e99f7,643772d753e3c065d65f8d7d,2023-04-13_04h21.49.820,PRaM,2021.2.3,Win32,60.0132029,61b8f3437b89212fae0dfade
3,2.9524,space,1.0835,0,124,124,270,1,,,58f3d7699fbdde00011e99f7,643772d753e3c065d65f8d7d,2023-04-13_04h21.49.820,PRaM,2021.2.3,Win32,60.0132029,61b8f3437b89212fae0dfade
2,2.7755,space,0.9186,0,125,125,269,1,,,58f3d7699fbdde00011e99f7,643772d753e3c065d65f8d7d,2023-04-13_04h21.49.820,PRaM,2021.2.3,Win32,60.0132029,61b8f3437b89212fae0dfade
3,4.019,space,2.3169,0,126,126,223,1,,,58f3d7699fbdde00011e99f7,643772d753e3c065d65f8d7d,2023-04-13_04h21.49.820,PRaM,2021.2.3,Win32,60.0132029,61b8f3437b89212fae0dfade
1,3.7966,space,2.0336,0,127,127,73,1,,,58f3d7699fbdde00011e99f7,643772d753e3c065d65f8d7d,2023-04-13_04h21.49.820,PRaM,2021.2.3,Win32,60.0132029,61b8f3437b89212fae0dfade
6,4.9007,space,3.0505,0,128,128,317,1,,,58f3d7699fbdde00011e99f7,643772d753e3c065d65f8d7d,2023-04-13_04h21.49.820,PRaM,2021.2.3,Win32,60.0132029,61b8f3437b89212fae0dfade
7,2.6093,space,0.7344,0,129,129,323,1,,,58f3d7699fbdde00011e99f7,643772d753e3c065d65f8d7d,2023-04-13_04h21.49.820,PRaM,2021.2.3,Win32,60.0132029,61b8f3437b89212fae0dfade
7,4.1034,space,2.3846,0,130,130,192,1,,,58f3d7699fbdde00011e99f7,643772d753e3c065d65f8d7d,2023-04-13_04h21.49.820,PRaM,2021.2.3,Win32,60.0132029,61b8f3437b89212fae0dfade
2,5.7105,space,3.7742,0,131,131,94,1,,,58f3d7699fbdde00011e99f7,643772d753e3c065d65f8d7d,2023-04-13_04h21.49.820,PRaM,2021.2.3,Win32,60.0132029,61b8f3437b89212fae0dfade
6,3.6417,space,1.717,0,132,132,3,1,,,58f3d7699fbdde00011e99f7,643772d753e3c065d65f8d7d,2023-04-13_04h21.49.820,PRaM,2021.2.3,Win32,60.0132029,61b8f3437b89212fae0dfade
,,space,0.835,0,133,133,195,1,,,58f3d7699fbdde00011e99f7,643772d753e3c065d65f8d7d,2023-04-13_04h21.49.820,PRaM,2021.2.3,Win32,60.0132029,61b8f3437b89212fae0dfade
1,7.3787,space,5.6549,0,134,134,70,1,,,58f3d7699fbdde00011e99f7,643772d753e3c065d65f8d7d,2023-04-13_04h21.49.820,PRaM,2021.2.3,Win32,60.0132029,61b8f3437b89212fae0dfade
6,14.3578,space,14.4657,0,135,135,222,1,,,58f3d7699fbdde00011e99f7,643772d753e3c065d65f8d7d,2023-04-13_04h21.49.820,PRaM,2021.2.3,Win32,60.0132029,61b8f3437b89212fae0dfade
6,10.8782,space,9.231,0,136,136,372,1,,,58f3d7699fbdde00011e99f7,643772d753e3c065d65f8d7d,2023-04-13_04h21.49.820,PRaM,2021.2.3,Win32,60.0132029,61b8f3437b89212fae0dfade
1,4.8823,space,3.3841,0,137,137,65,1,,,58f3d7699fbdde00011e99f7,643772d753e3c065d65f8d7d,2023-04-13_04h21.49.820,PRaM,2021.2.3,Win32,60.0132029,61b8f3437b89212fae0dfade
2,4.2771,space,2.6681,0,138,138,343,1,,,58f3d7699fbdde00011e99f7,643772d753e3c065d65f8d7d,2023-04-13_04h21.49.820,PRaM,2021.2.3,Win32,60.0132029,61b8f3437b89212fae0dfade
4,7.4014,space,5.6331,0,139,139,271,1,,,58f3d7699fbdde00011e99f7,643772d753e3c065d65f8d7d,2023-04-13_04h21.49.820,PRaM,2021.2.3,Win32,60.0132029,61b8f3437b89212fae0dfade
3,3.2946,space,1.6013,0,140,140,252,1,,,58f3d7699fbdde00011e99f7,643772d753e3c065d65f8d7d,2023-04-13_04h21.49.820,PRaM,2021.2.3,Win32,60.0132029,61b8f3437b89212fae0dfade
4,2.7612,space,1.033,0,141,141,93,1,,,58f3d7699fbdde00011e99f7,643772d753e3c065d65f8d7d,2023-04-13_04h21.49.820,PRaM,2021.2.3,Win32,60.0132029,61b8f3437b89212fae0dfade
4,25.1093,space,25.0282,0,142,142,6,1,,,58f3d7699fbdde00011e99f7,643772d753e3c065d65f8d7d,2023-04-13_04h21.49.820,PRaM,2021.2.3,Win32,60.0132029,61b8f3437b89212fae0dfade
3,13.2135,space,11.4965,0,143,143,145,1,,,58f3d7699fbdde00011e99f7,643772d753e3c065d65f8d7d,2023-04-13_04h21.49.820,PRaM,2021.2.3,Win32,60.0132029,61b8f3437b89212fae0dfade
2,4.9843,space,3.8006,0,144,144,341,1,,,58f3d7699fbdde00011e99f7,643772d753e3c065d65f8d7d,2023-04-13_04h21.49.820,PRaM,2021.2.3,Win32,60.0132029,61b8f3437b89212fae0dfade
6,15.2,space,14.1822,0,145,145,4,1,,,58f3d7699fbdde00011e99f7,643772d753e3c065d65f8d7d,2023-04-13_04h21.49.820,PRaM,2021.2.3,Win32,60.0132029,61b8f3437b89212fae0dfade
6,1.3528,space,30.1813,0,146,146,120,1,,,58f3d7699fbdde00011e99f7,643772d753e3c065d65f8d7d,2023-04-13_04h21.49.820,PRaM,2021.2.3,Win32,60.0132029,61b8f3437b89212fae0dfade
1,6.7908,space,7.4366,0,147,147,300,1,,,58f3d7699fbdde00011e99f7,643772d753e3c065d65f8d7d,2023-04-13_04h21.49.820,PRaM,2021.2.3,Win32,60.0132029,61b8f3437b89212fae0dfade
6,3.7904,space,2.1192,0,148,148,328,1,,,58f3d7699fbdde00011e99f7,643772d753e3c065d65f8d7d,2023-04-13_04h21.49.820,PRaM,2021.2.3,Win32,60.0132029,61b8f3437b89212fae0dfade
1,3.0007,space,1.3833,0,149,149,189,1,,,58f3d7699fbdde00011e99f7,643772d753e3c065d65f8d7d,2023-04-13_04h21.49.820,PRaM,2021.2.3,Win32,60.0132029,61b8f3437b89212fae0dfade
2,3.3459,space,1.7174,0,150,150,81,1,,,58f3d7699fbdde00011e99f7,643772d753e3c065d65f8d7d,2023-04-13_04h21.49.820,PRaM,2021.2.3,Win32,60.0132029,61b8f3437b89212fae0dfade
5,7.4089,space,5.9348,0,151,151,0,1,,,58f3d7699fbdde00011e99f7,643772d753e3c065d65f8d7d,2023-04-13_04h21.49.820,PRaM,2021.2.3,Win32,60.0132029,61b8f3437b89212fae0dfade
1,4.7444,space,2.9682,0,152,152,303,1,,,58f3d7699fbdde00011e99f7,643772d753e3c065d65f8d7d,2023-04-13_04h21.49.820,PRaM,2021.2.3,Win32,60.0132029,61b8f3437b89212fae0dfade
7,9.4768,space,67.8734,0,153,153,326,1,,,58f3d7699fbdde00011e99f7,643772d753e3c065d65f8d7d,2023-04-13_04h21.49.820,PRaM,2021.2.3,Win32,60.0132029,61b8f3437b89212fae0dfade
6,15.1444,space,13.4633,0,154,154,280,1,,,58f3d7699fbdde00011e99f7,643772d753e3c065d65f8d7d,2023-04-13_04h21.49.820,PRaM,2021.2.3,Win32,60.0132029,61b8f3437b89212fae0dfade
6,10.5753,space,10.7508,0,155,155,199,1,,,58f3d7699fbdde00011e99f7,643772d753e3c065d65f8d7d,2023-04-13_04h21.49.820,PRaM,2021.2.3,Win32,60.0132029,61b8f3437b89212fae0dfade
2,3.0352,space,1.8673,0,156,156,101,1,,,58f3d7699fbdde00011e99f7,643772d753e3c065d65f8d7d,2023-04-13_04h21.49.820,PRaM,2021.2.3,Win32,60.0132029,61b8f3437b89212fae0dfade
4,2.5126,space,0.8329,0,157,157,340,1,,,58f3d7699fbdde00011e99f7,643772d753e3c065d65f8d7d,2023-04-13_04h21.49.820,PRaM,2021.2.3,Win32,60.0132029,61b8f3437b89212fae0dfade
7,13.2937,space,11.6669,0,158,158,38,1,,,58f3d7699fbdde00011e99f7,643772d753e3c065d65f8d7d,2023-04-13_04h21.49.820,PRaM,2021.2.3,Win32,60.0132029,61b8f3437b89212fae0dfade
6,3.9928,space,2.2194,0,159,159,208,1,,,58f3d7699fbdde00011e99f7,643772d753e3c065d65f8d7d,2023-04-13_04h21.49.820,PRaM,2021.2.3,Win32,60.0132029,61b8f3437b89212fae0dfade
5,5.4079,space,3.748,0,160,160,136,1,,,58f3d7699fbdde00011e99f7,643772d753e3c065d65f8d7d,2023-04-13_04h21.49.820,PRaM,2021.2.3,Win32,60.0132029,61b8f3437b89212fae0dfade
1,2.599,space,0.8346,0,161,161,247,1,,,58f3d7699fbdde00011e99f7,643772d753e3c065d65f8d7d,2023-04-13_04h21.49.820,PRaM,2021.2.3,Win32,60.0132029,61b8f3437b89212fae0dfade
1,8.3997,space,6.6468,0,162,162,212,1,,,58f3d7699fbdde00011e99f7,643772d753e3c065d65f8d7d,2023-04-13_04h21.49.820,PRaM,2021.2.3,Win32,60.0132029,61b8f3437b89212fae0dfade
2,2.3374,space,0.5847,0,163,163,354,1,,,58f3d7699fbdde00011e99f7,643772d753e3c065d65f8d7d,2023-04-13_04h21.49.820,PRaM,2021.2.3,Win32,60.0132029,61b8f3437b89212fae0dfade
5,27.5299,space,25.7171,0,164,164,159,1,,,58f3d7699fbdde00011e99f7,643772d753e3c065d65f8d7d,2023-04-13_04h21.49.820,PRaM,2021.2.3,Win32,60.0132029,61b8f3437b89212fae0dfade
7,5.4336,space,3.8162,0,165,165,276,1,,,58f3d7699fbdde00011e99f7,643772d753e3c065d65f8d7d,2023-04-13_04h21.49.820,PRaM,2021.2.3,Win32,60.0132029,61b8f3437b89212fae0dfade
1,2.976,space,1.3173,0,166,166,24,1,,,58f3d7699fbdde00011e99f7,643772d753e3c065d65f8d7d,2023-04-13_04h21.49.820,PRaM,2021.2.3,Win32,60.0132029,61b8f3437b89212fae0dfade
2,4.2771,space,2.4017,0,167,167,76,1,,,58f3d7699fbdde00011e99f7,643772d753e3c065d65f8d7d,2023-04-13_04h21.49.820,PRaM,2021.2.3,Win32,60.0132029,61b8f3437b89212fae0dfade
2,3.084,space,1.2183,0,168,168,375,1,,,58f3d7699fbdde00011e99f7,643772d753e3c065d65f8d7d,2023-04-13_04h21.49.820,PRaM,2021.2.3,Win32,60.0132029,61b8f3437b89212fae0dfade
4,2.7339,space,0.9861,0,169,169,337,1,,,58f3d7699fbdde00011e99f7,643772d753e3c065d65f8d7d,2023-04-13_04h21.49.820,PRaM,2021.2.3,Win32,60.0132029,61b8f3437b89212fae0dfade
4,3.8421,space,2.001,0,170,170,244,1,,,58f3d7699fbdde00011e99f7,643772d753e3c065d65f8d7d,2023-04-13_04h21.49.820,PRaM,2021.2.3,Win32,60.0132029,61b8f3437b89212fae0dfade
1,3.377,space,1.7839,0,171,171,318,1,,,58f3d7699fbdde00011e99f7,643772d753e3c065d65f8d7d,2023-04-13_04h21.49.820,PRaM,2021.2.3,Win32,60.0132029,61b8f3437b89212fae0dfade
1,4.2941,space,2.4512,0,172,172,11,1,,,58f3d7699fbdde00011e99f7,643772d753e3c065d65f8d7d,2023-04-13_04h21.49.820,PRaM,2021.2.3,Win32,60.0132029,61b8f3437b89212fae0dfade
2,5.2924,space,3.4504,0,173,173,368,1,,,58f3d7699fbdde00011e99f7,643772d753e3c065d65f8d7d,2023-04-13_04h21.49.820,PRaM,2021.2.3,Win32,60.0132029,61b8f3437b89212fae0dfade
2,2.1779,space,0.4016,0,174,174,356,1,,,58f3d7699fbdde00011e99f7,643772d753e3c065d65f8d7d,2023-04-13_04h21.49.820,PRaM,2021.2.3,Win32,60.0132029,61b8f3437b89212fae0dfade
6,3.9171,space,2.216,0,175,175,60,1,,,58f3d7699fbdde00011e99f7,643772d753e3c065d65f8d7d,2023-04-13_04h21.49.820,PRaM,2021.2.3,Win32,60.0132029,61b8f3437b89212fae0dfade
4,7.5798,space,5.6673,0,176,176,196,1,,,58f3d7699fbdde00011e99f7,643772d753e3c065d65f8d7d,2023-04-13_04h21.49.820,PRaM,2021.2.3,Win32,60.0132029,61b8f3437b89212fae0dfade
1,2.9603,space,1.4494,0,177,177,204,1,,,58f3d7699fbdde00011e99f7,643772d753e3c065d65f8d7d,2023-04-13_04h21.49.820,PRaM,2021.2.3,Win32,60.0132029,61b8f3437b89212fae0dfade
3,44.5661,space,42.9447,0,178,178,350,1,,,58f3d7699fbdde00011e99f7,643772d753e3c065d65f8d7d,2023-04-13_04h21.49.820,PRaM,2021.2.3,Win32,60.0132029,61b8f3437b89212fae0dfade
4,3.6075,space,1.9653,0,179,179,69,1,,,58f3d7699fbdde00011e99f7,643772d753e3c065d65f8d7d,2023-04-13_04h21.49.820,PRaM,2021.2.3,Win32,60.0132029,61b8f3437b89212fae0dfade
4,3.3013,space,1.6175,0,180,180,165,1,,,58f3d7699fbdde00011e99f7,643772d753e3c065d65f8d7d,2023-04-13_04h21.49.820,PRaM,2021.2.3,Win32,60.0132029,61b8f3437b89212fae0dfade
1,4.2107,space,2.6173,0,181,181,248,1,,,58f3d7699fbdde00011e99f7,643772d753e3c065d65f8d7d,2023-04-13_04h21.49.820,PRaM,2021.2.3,Win32,60.0132029,61b8f3437b89212fae0dfade
4,4.8655,space,3.1987,0,182,182,352,1,,,58f3d7699fbdde00011e99f7,643772d753e3c065d65f8d7d,2023-04-13_04h21.49.820,PRaM,2021.2.3,Win32,60.0132029,61b8f3437b89212fae0dfade
2,4.243,space,2.5846,0,183,183,349,1,,,58f3d7699fbdde00011e99f7,643772d753e3c065d65f8d7d,2023-04-13_04h21.49.820,PRaM,2021.2.3,Win32,60.0132029,61b8f3437b89212fae0dfade
2,15.9369,space,14.2165,0,184,184,234,1,,,58f3d7699fbdde00011e99f7,643772d753e3c065d65f8d7d,2023-04-13_04h21.49.820,PRaM,2021.2.3,Win32,60.0132029,61b8f3437b89212fae0dfade
2,3.6273,space,2.3898,0,185,185,52,1,,,58f3d7699fbdde00011e99f7,643772d753e3c065d65f8d7d,2023-04-13_04h21.49.820,PRaM,2021.2.3,Win32,60.0132029,61b8f3437b89212fae0dfade
1,2.9928,space,1.3511,0,186,186,133,1,,,58f3d7699fbdde00011e99f7,643772d753e3c065d65f8d7d,2023-04-13_04h21.49.820,PRaM,2021.2.3,Win32,60.0132029,61b8f3437b89212fae0dfade
2,3.9356,space,2.2009,0,187,187,215,1,,,58f3d7699fbdde00011e99f7,643772d753e3c065d65f8d7d,2023-04-13_04h21.49.820,PRaM,2021.2.3,Win32,60.0132029,61b8f3437b89212fae0dfade
4,4.5353,space,2.9366,0,188,188,53,1,,,58f3d7699fbdde00011e99f7,643772d753e3c065d65f8d7d,2023-04-13_04h21.49.820,PRaM,2021.2.3,Win32,60.0132029,61b8f3437b89212fae0dfade
1,4.1441,space,2.2869,0,189,189,206,1,,,58f3d7699fbdde00011e99f7,643772d753e3c065d65f8d7d,2023-04-13_04h21.49.820,PRaM,2021.2.3,Win32,60.0132029,61b8f3437b89212fae0dfade
3,3.5689,space,1.8372,0,190,190,56,1,,,58f3d7699fbdde00011e99f7,643772d753e3c065d65f8d7d,2023-04-13_04h21.49.820,PRaM,2021.2.3,Win32,60.0132029,61b8f3437b89212fae0dfade
5,4.4268,space,2.6003,0,191,191,366,1,,,58f3d7699fbdde00011e99f7,643772d753e3c065d65f8d7d,2023-04-13_04h21.49.820,PRaM,2021.2.3,Win32,60.0132029,61b8f3437b89212fae0dfade
2,2.852,space,1.0349,0,192,192,224,1,,,58f3d7699fbdde00011e99f7,643772d753e3c065d65f8d7d,2023-04-13_04h21.49.820,PRaM,2021.2.3,Win32,60.0132029,61b8f3437b89212fae0dfade
3,7.8935,space,6.2176,0,193,193,119,1,,,58f3d7699fbdde00011e99f7,643772d753e3c065d65f8d7d,2023-04-13_04h21.49.820,PRaM,2021.2.3,Win32,60.0132029,61b8f3437b89212fae0dfade
2,2.3604,space,0.669,0,194,194,365,1,,,58f3d7699fbdde00011e99f7,643772d753e3c065d65f8d7d,2023-04-13_04h21.49.820,PRaM,2021.2.3,Win32,60.0132029,61b8f3437b89212fae0dfade
7,5.8795,space,4.464,0,195,195,42,1,,,58f3d7699fbdde00011e99f7,643772d753e3c065d65f8d7d,2023-04-13_04h21.49.820,PRaM,2021.2.3,Win32,60.0132029,61b8f3437b89212fae0dfade
6,2.8159,space,1.0864,0,196,196,127,1,,,58f3d7699fbdde00011e99f7,643772d753e3c065d65f8d7d,2023-04-13_04h21.49.820,PRaM,2021.2.3,Win32,60.0132029,61b8f3437b89212fae0dfade
2,3.0019,space,1.1004,0,197,197,128,1,,,58f3d7699fbdde00011e99f7,643772d753e3c065d65f8d7d,2023-04-13_04h21.49.820,PRaM,2021.2.3,Win32,60.0132029,61b8f3437b89212fae0dfade
3,3.393,space,1.501,0,198,198,47,1,,,58f3d7699fbdde00011e99f7,643772d753e3c065d65f8d7d,2023-04-13_04h21.49.820,PRaM,2021.2.3,Win32,60.0132029,61b8f3437b89212fae0dfade
2,2.8607,space,1.0326,0,199,199,157,1,,,58f3d7699fbdde00011e99f7,643772d753e3c065d65f8d7d,2023-04-13_04h21.49.820,PRaM,2021.2.3,Win32,60.0132029,61b8f3437b89212fae0dfade
4,3.9678,space,2.1678,0,200,200,61,1,,,58f3d7699fbdde00011e99f7,643772d753e3c065d65f8d7d,2023-04-13_04h21.49.820,PRaM,2021.2.3,Win32,60.0132029,61b8f3437b89212fae0dfade
3,4.7496,space,3.131,0,201,201,181,1,,,58f3d7699fbdde00011e99f7,643772d753e3c065d65f8d7d,2023-04-13_04h21.49.820,PRaM,2021.2.3,Win32,60.0132029,61b8f3437b89212fae0dfade
4,24.6716,space,23.5319,0,202,202,301,1,,,58f3d7699fbdde00011e99f7,643772d753e3c065d65f8d7d,2023-04-13_04h21.49.820,PRaM,2021.2.3,Win32,60.0132029,61b8f3437b89212fae0dfade
4,2.151,space,0.4686,0,203,203,59,1,,,58f3d7699fbdde00011e99f7,643772d753e3c065d65f8d7d,2023-04-13_04h21.49.820,PRaM,2021.2.3,Win32,60.0132029,61b8f3437b89212fae0dfade
2,2.5109,space,0.7845,0,204,204,8,1,,,58f3d7699fbdde00011e99f7,643772d753e3c065d65f8d7d,2023-04-13_04h21.49.820,PRaM,2021.2.3,Win32,60.0132029,61b8f3437b89212fae0dfade
4,2.9766,space,1.1342,0,205,205,233,1,,,58f3d7699fbdde00011e99f7,643772d753e3c065d65f8d7d,2023-04-13_04h21.49.820,PRaM,2021.2.3,Win32,60.0132029,61b8f3437b89212fae0dfade
4,8.4168,space,6.683,0,206,206,140,1,,,58f3d7699fbdde00011e99f7,643772d753e3c065d65f8d7d,2023-04-13_04h21.49.820,PRaM,2021.2.3,Win32,60.0132029,61b8f3437b89212fae0dfade
4,3.9007,space,2.2848,0,207,207,205,1,,,58f3d7699fbdde00011e99f7,643772d753e3c065d65f8d7d,2023-04-13_04h21.49.820,PRaM,2021.2.3,Win32,60.0132029,61b8f3437b89212fae0dfade
2,32.4579,space,30.6442,0,208,208,342,1,,,58f3d7699fbdde00011e99f7,643772d753e3c065d65f8d7d,2023-04-13_04h21.49.820,PRaM,2021.2.3,Win32,60.0132029,61b8f3437b89212fae0dfade
3,18.5815,space,16.8821,0,209,209,48,1,,,58f3d7699fbdde00011e99f7,643772d753e3c065d65f8d7d,2023-04-13_04h21.49.820,PRaM,2021.2.3,Win32,60.0132029,61b8f3437b89212fae0dfade
3,4.3944,space,2.6848,0,210,210,96,1,,,58f3d7699fbdde00011e99f7,643772d753e3c065d65f8d7d,2023-04-13_04h21.49.820,PRaM,2021.2.3,Win32,60.0132029,61b8f3437b89212fae0dfade
2,9.9855,space,8.8343,0,211,211,125,1,,,58f3d7699fbdde00011e99f7,643772d753e3c065d65f8d7d,2023-04-13_04h21.49.820,PRaM,2021.2.3,Win32,60.0132029,61b8f3437b89212fae0dfade
1,4.6924,space,3.1021,0,212,212,55,1,,,58f3d7699fbdde00011e99f7,643772d753e3c065d65f8d7d,2023-04-13_04h21.49.820,PRaM,2021.2.3,Win32,60.0132029,61b8f3437b89212fae0dfade
2,2.6922,space,0.8846,0,213,213,98,1,,,58f3d7699fbdde00011e99f7,643772d753e3c065d65f8d7d,2023-04-13_04h21.49.820,PRaM,2021.2.3,Win32,60.0132029,61b8f3437b89212fae0dfade
6,12.0634,space,10.3668,0,214,214,7,1,,,58f3d7699fbdde00011e99f7,643772d753e3c065d65f8d7d,2023-04-13_04h21.49.820,PRaM,2021.2.3,Win32,60.0132029,61b8f3437b89212fae0dfade
1,2.576,space,0.8337,0,215,215,231,1,,,58f3d7699fbdde00011e99f7,643772d753e3c065d65f8d7d,2023-04-13_04h21.49.820,PRaM,2021.2.3,Win32,60.0132029,61b8f3437b89212fae0dfade
4,2.7474,space,1.0508,0,216,216,230,1,,,58f3d7699fbdde00011e99f7,643772d753e3c065d65f8d7d,2023-04-13_04h21.49.820,PRaM,2021.2.3,Win32,60.0132029,61b8f3437b89212fae0dfade
8,4.9319,space,3.4835,0,217,217,197,1,,,58f3d7699fbdde00011e99f7,643772d753e3c065d65f8d7d,2023-04-13_04h21.49.820,PRaM,2021.2.3,Win32,60.0132029,61b8f3437b89212fae0dfade
4,4.8287,space,3.4042,0,218,218,216,1,,,58f3d7699fbdde00011e99f7,643772d753e3c065d65f8d7d,2023-04-13_04h21.49.820,PRaM,2021.2.3,Win32,60.0132029,61b8f3437b89212fae0dfade
4,5.61,space,3.9201,0,219,219,358,1,,,58f3d7699fbdde00011e99f7,643772d753e3c065d65f8d7d,2023-04-13_04h21.49.820,PRaM,2021.2.3,Win32,60.0132029,61b8f3437b89212fae0dfade
3,2.5181,space,0.7013,0,220,220,185,1,,,58f3d7699fbdde00011e99f7,643772d753e3c065d65f8d7d,2023-04-13_04h21.49.820,PRaM,2021.2.3,Win32,60.0132029,61b8f3437b89212fae0dfade
2,5.1826,space,3.6652,0,221,221,124,1,,,58f3d7699fbdde00011e99f7,643772d753e3c065d65f8d7d,2023-04-13_04h21.49.820,PRaM,2021.2.3,Win32,60.0132029,61b8f3437b89212fae0dfade
2,8.0395,space,6.3533,0,222,222,122,1,,,58f3d7699fbdde00011e99f7,643772d753e3c065d65f8d7d,2023-04-13_04h21.49.820,PRaM,2021.2.3,Win32,60.0132029,61b8f3437b89212fae0dfade
6,5.6836,space,4.5185,0,223,223,285,1,,,58f3d7699fbdde00011e99f7,643772d753e3c065d65f8d7d,2023-04-13_04h21.49.820,PRaM,2021.2.3,Win32,60.0132029,61b8f3437b89212fae0dfade
6,2.2075,space,0.7686,0,224,224,186,1,,,58f3d7699fbdde00011e99f7,643772d753e3c065d65f8d7d,2023-04-13_04h21.49.820,PRaM,2021.2.3,Win32,60.0132029,61b8f3437b89212fae0dfade
4,8.8172,space,7.0506,0,225,225,139,1,,,58f3d7699fbdde00011e99f7,643772d753e3c065d65f8d7d,2023-04-13_04h21.49.820,PRaM,2021.2.3,Win32,60.0132029,61b8f3437b89212fae0dfade
3,30.8701,space,29.2297,0,226,226,278,1,,,58f3d7699fbdde00011e99f7,643772d753e3c065d65f8d7d,2023-04-13_04h21.49.820,PRaM,2021.2.3,Win32,60.0132029,61b8f3437b89212fae0dfade
2,20.2722,space,18.4463,0,227,227,143,1,,,58f3d7699fbdde00011e99f7,643772d753e3c065d65f8d7d,2023-04-13_04h21.49.820,PRaM,2021.2.3,Win32,60.0132029,61b8f3437b89212fae0dfade
3,27.1717,space,25.3175,0,228,228,259,1,,,58f3d7699fbdde00011e99f7,643772d753e3c065d65f8d7d,2023-04-13_04h21.49.820,PRaM,2021.2.3,Win32,60.0132029,61b8f3437b89212fae0dfade
2,2.5441,space,0.785,0,229,229,116,1,,,58f3d7699fbdde00011e99f7,643772d753e3c065d65f8d7d,2023-04-13_04h21.49.820,PRaM,2021.2.3,Win32,60.0132029,61b8f3437b89212fae0dfade
1,2.5944,space,0.8502,0,230,230,108,1,,,58f3d7699fbdde00011e99f7,643772d753e3c065d65f8d7d,2023-04-13_04h21.49.820,PRaM,2021.2.3,Win32,60.0132029,61b8f3437b89212fae0dfade
2,3.01,space,1.1178,0,231,231,155,1,,,58f3d7699fbdde00011e99f7,643772d753e3c065d65f8d7d,2023-04-13_04h21.49.820,PRaM,2021.2.3,Win32,60.0132029,61b8f3437b89212fae0dfade
4,3.7831,space,1.8811,0,232,232,19,1,,,58f3d7699fbdde00011e99f7,643772d753e3c065d65f8d7d,2023-04-13_04h21.49.820,PRaM,2021.2.3,Win32,60.0132029,61b8f3437b89212fae0dfade
6,3.2903,space,1.4022,0,233,233,307,1,,,58f3d7699fbdde00011e99f7,643772d753e3c065d65f8d7d,2023-04-13_04h21.49.820,PRaM,2021.2.3,Win32,60.0132029,61b8f3437b89212fae0dfade
1,2.8526,space,1.116,0,234,234,27,1,,,58f3d7699fbdde00011e99f7,643772d753e3c065d65f8d7d,2023-04-13_04h21.49.820,PRaM,2021.2.3,Win32,60.0132029,61b8f3437b89212fae0dfade
2,6.2872,space,4.4502,0,235,235,174,1,,,58f3d7699fbdde00011e99f7,643772d753e3c065d65f8d7d,2023-04-13_04h21.49.820,PRaM,2021.2.3,Win32,60.0132029,61b8f3437b89212fae0dfade
6,5.6444,space,3.8836,0,236,236,264,1,,,58f3d7699fbdde00011e99f7,643772d753e3c065d65f8d7d,2023-04-13_04h21.49.820,PRaM,2021.2.3,Win32,60.0132029,61b8f3437b89212fae0dfade
2,2.746,space,0.966,0,237,237,241,1,,,58f3d7699fbdde00011e99f7,643772d753e3c065d65f8d7d,2023-04-13_04h21.49.820,PRaM,2021.2.3,Win32,60.0132029,61b8f3437b89212fae0dfade
6,7.5657,space,6.0015,0,238,238,32,1,,,58f3d7699fbdde00011e99f7,643772d753e3c065d65f8d7d,2023-04-13_04h21.49.820,PRaM,2021.2.3,Win32,60.0132029,61b8f3437b89212fae0dfade
3,3.8068,space,1.9174,0,239,239,292,1,,,58f3d7699fbdde00011e99f7,643772d753e3c065d65f8d7d,2023-04-13_04h21.49.820,PRaM,2021.2.3,Win32,60.0132029,61b8f3437b89212fae0dfade
2,2.7941,space,0.9178,0,240,240,54,1,,,58f3d7699fbdde00011e99f7,643772d753e3c065d65f8d7d,2023-04-13_04h21.49.820,PRaM,2021.2.3,Win32,60.0132029,61b8f3437b89212fae0dfade
2,2.4269,space,0.6681,0,241,241,172,1,,,58f3d7699fbdde00011e99f7,643772d753e3c065d65f8d7d,2023-04-13_04h21.49.820,PRaM,2021.2.3,Win32,60.0132029,61b8f3437b89212fae0dfade
2,2.003,space,0.445,0,242,242,129,1,,,58f3d7699fbdde00011e99f7,643772d753e3c065d65f8d7d,2023-04-13_04h21.49.820,PRaM,2021.2.3,Win32,60.0132029,61b8f3437b89212fae0dfade
3,3.6542,space,1.7848,0,243,243,30,1,,,58f3d7699fbdde00011e99f7,643772d753e3c065d65f8d7d,2023-04-13_04h21.49.820,PRaM,2021.2.3,Win32,60.0132029,61b8f3437b89212fae0dfade
1,2.6267,space,0.8837,0,244,244,295,1,,,58f3d7699fbdde00011e99f7,643772d753e3c065d65f8d7d,2023-04-13_04h21.49.820,PRaM,2021.2.3,Win32,60.0132029,61b8f3437b89212fae0dfade
3,2.4602,space,1.1842,0,245,245,373,1,,,58f3d7699fbdde00011e99f7,643772d753e3c065d65f8d7d,2023-04-13_04h21.49.820,PRaM,2021.2.3,Win32,60.0132029,61b8f3437b89212fae0dfade
3,1.9942,space,0.201,0,246,246,200,1,,,58f3d7699fbdde00011e99f7,643772d753e3c065d65f8d7d,2023-04-13_04h21.49.820,PRaM,2021.2.3,Win32,60.0132029,61b8f3437b89212fae0dfade
2,3.4744,space,1.5069,0,247,247,227,1,,,58f3d7699fbdde00011e99f7,643772d753e3c065d65f8d7d,2023-04-13_04h21.49.820,PRaM,2021.2.3,Win32,60.0132029,61b8f3437b89212fae0dfade
4,3.9642,space,2.031,0,248,248,370,1,,,58f3d7699fbdde00011e99f7,643772d753e3c065d65f8d7d,2023-04-13_04h21.49.820,PRaM,2021.2.3,Win32,60.0132029,61b8f3437b89212fae0dfade
2,14.4349,space,12.6999,0,249,249,44,1,,,58f3d7699fbdde00011e99f7,643772d753e3c065d65f8d7d,2023-04-13_04h21.49.820,PRaM,2021.2.3,Win32,60.0132029,61b8f3437b89212fae0dfade
2,2.4256,space,0.8843,0,250,250,121,1,,,58f3d7699fbdde00011e99f7,643772d753e3c065d65f8d7d,2023-04-13_04h21.49.820,PRaM,2021.2.3,Win32,60.0132029,61b8f3437b89212fae0dfade
2,1.7443,space,0.0684,0,251,251,324,1,,,58f3d7699fbdde00011e99f7,643772d753e3c065d65f8d7d,2023-04-13_04h21.49.820,PRaM,2021.2.3,Win32,60.0132029,61b8f3437b89212fae0dfade
3,2.8126,space,0.9513,0,252,252,311,1,,,58f3d7699fbdde00011e99f7,643772d753e3c065d65f8d7d,2023-04-13_04h21.49.820,PRaM,2021.2.3,Win32,60.0132029,61b8f3437b89212fae0dfade
6,7.7427,space,5.8501,0,253,253,277,1,,,58f3d7699fbdde00011e99f7,643772d753e3c065d65f8d7d,2023-04-13_04h21.49.820,PRaM,2021.2.3,Win32,60.0132029,61b8f3437b89212fae0dfade
4,6.5942,space,4.7004,0,254,254,180,1,,,58f3d7699fbdde00011e99f7,643772d753e3c065d65f8d7d,2023-04-13_04h21.49.820,PRaM,2021.2.3,Win32,60.0132029,61b8f3437b89212fae0dfade
7,4.6605,space,2.8337,0,255,255,134,1,,,58f3d7699fbdde00011e99f7,643772d753e3c065d65f8d7d,2023-04-13_04h21.49.820,PRaM,2021.2.3,Win32,60.0132029,61b8f3437b89212fae0dfade
2,3.3274,space,1.4349,0,256,256,362,1,,,58f3d7699fbdde00011e99f7,643772d753e3c065d65f8d7d,2023-04-13_04h21.49.820,PRaM,2021.2.3,Win32,60.0132029,61b8f3437b89212fae0dfade
2,2.0774,space,0.2853,0,257,257,360,1,,,58f3d7699fbdde00011e99f7,643772d753e3c065d65f8d7d,2023-04-13_04h21.49.820,PRaM,2021.2.3,Win32,60.0132029,61b8f3437b89212fae0dfade
2,7.433,space,12.9664,0,258,258,309,1,,,58f3d7699fbdde00011e99f7,643772d753e3c065d65f8d7d,2023-04-13_04h21.49.820,PRaM,2021.2.3,Win32,60.0132029,61b8f3437b89212fae0dfade
1,3.8258,space,2.132,0,259,259,41,1,,,58f3d7699fbdde00011e99f7,643772d753e3c065d65f8d7d,2023-04-13_04h21.49.820,PRaM,2021.2.3,Win32,60.0132029,61b8f3437b89212fae0dfade
4,3.3325,space,1.7555,0,260,260,254,1,,,58f3d7699fbdde00011e99f7,643772d753e3c065d65f8d7d,2023-04-13_04h21.49.820,PRaM,2021.2.3,Win32,60.0132029,61b8f3437b89212fae0dfade
2,3.3094,space,1.4002,0,261,261,339,1,,,58f3d7699fbdde00011e99f7,643772d753e3c065d65f8d7d,2023-04-13_04h21.49.820,PRaM,2021.2.3,Win32,60.0132029,61b8f3437b89212fae0dfade
2,1.8367,space,0.071,0,262,262,46,1,,,58f3d7699fbdde00011e99f7,643772d753e3c065d65f8d7d,2023-04-13_04h21.49.820,PRaM,2021.2.3,Win32,60.0132029,61b8f3437b89212fae0dfade
5,4.1762,space,2.3007,0,263,263,304,1,,,58f3d7699fbdde00011e99f7,643772d753e3c065d65f8d7d,2023-04-13_04h21.49.820,PRaM,2021.2.3,Win32,60.0132029,61b8f3437b89212fae0dfade
1,2.9924,space,1.7038,0,264,264,106,1,,,58f3d7699fbdde00011e99f7,643772d753e3c065d65f8d7d,2023-04-13_04h21.49.820,PRaM,2021.2.3,Win32,60.0132029,61b8f3437b89212fae0dfade
6,3.8601,space,2.5018,0,265,265,213,1,,,58f3d7699fbdde00011e99f7,643772d753e3c065d65f8d7d,2023-04-13_04h21.49.820,PRaM,2021.2.3,Win32,60.0132029,61b8f3437b89212fae0dfade
4,2.8422,space,0.9457,0,266,266,126,1,,,58f3d7699fbdde00011e99f7,643772d753e3c065d65f8d7d,2023-04-13_04h21.49.820,PRaM,2021.2.3,Win32,60.0132029,61b8f3437b89212fae0dfade
2,3.3318,space,1.5348,0,267,267,210,1,,,58f3d7699fbdde00011e99f7,643772d753e3c065d65f8d7d,2023-04-13_04h21.49.820,PRaM,2021.2.3,Win32,60.0132029,61b8f3437b89212fae0dfade
6,6.4144,space,4.5645,0,268,268,238,1,,,58f3d7699fbdde00011e99f7,643772d753e3c065d65f8d7d,2023-04-13_04h21.49.820,PRaM,2021.2.3,Win32,60.0132029,61b8f3437b89212fae0dfade
4,7.6232,space,5.7842,0,269,269,249,1,,,58f3d7699fbdde00011e99f7,643772d753e3c065d65f8d7d,2023-04-13_04h21.49.820,PRaM,2021.2.3,Win32,60.0132029,61b8f3437b89212fae0dfade
8,3.666,space,2.9384,0,270,270,17,1,,,58f3d7699fbdde00011e99f7,643772d753e3c065d65f8d7d,2023-04-13_04h21.49.820,PRaM,2021.2.3,Win32,60.0132029,61b8f3437b89212fae0dfade
2,7.2605,space,5.3665,0,271,271,347,1,,,58f3d7699fbdde00011e99f7,643772d753e3c065d65f8d7d,2023-04-13_04h21.49.820,PRaM,2021.2.3,Win32,60.0132029,61b8f3437b89212fae0dfade
2,7.5107,space,7.1143,0,272,272,345,1,,,58f3d7699fbdde00011e99f7,643772d753e3c065d65f8d7d,2023-04-13_04h21.49.820,PRaM,2021.2.3,Win32,60.0132029,61b8f3437b89212fae0dfade
2,2.3161,space,3.3518,0,273,273,71,1,,,58f3d7699fbdde00011e99f7,643772d753e3c065d65f8d7d,2023-04-13_04h21.49.820,PRaM,2021.2.3,Win32,60.0132029,61b8f3437b89212fae0dfade
2,17.2054,space,15.5662,0,274,274,220,1,,,58f3d7699fbdde00011e99f7,643772d753e3c065d65f8d7d,2023-04-13_04h21.49.820,PRaM,2021.2.3,Win32,60.0132029,61b8f3437b89212fae0dfade
4,12.3271,space,10.5657,0,275,275,166,1,,,58f3d7699fbdde00011e99f7,643772d753e3c065d65f8d7d,2023-04-13_04h21.49.820,PRaM,2021.2.3,Win32,60.0132029,61b8f3437b89212fae0dfade
3,4.3784,space,2.7025,0,276,276,219,1,,,58f3d7699fbdde00011e99f7,643772d753e3c065d65f8d7d,2023-04-13_04h21.49.820,PRaM,2021.2.3,Win32,60.0132029,61b8f3437b89212fae0dfade
2,3.6936,space,1.8035,0,277,277,287,1,,,58f3d7699fbdde00011e99f7,643772d753e3c065d65f8d7d,2023-04-13_04h21.49.820,PRaM,2021.2.3,Win32,60.0132029,61b8f3437b89212fae0dfade
4,25.4556,space,25.296,0,278,278,335,1,,,58f3d7699fbdde00011e99f7,643772d753e3c065d65f8d7d,2023-04-13_04h21.49.820,PRaM,2021.2.3,Win32,60.0132029,61b8f3437b89212fae0dfade
4,6.5238,space,4.6062,0,279,279,152,1,,,58f3d7699fbdde00011e99f7,643772d753e3c065d65f8d7d,2023-04-13_04h21.49.820,PRaM,2021.2.3,Win32,60.0132029,61b8f3437b89212fae0dfade
4,3.6754,space,2.0178,0,280,280,201,1,,,58f3d7699fbdde00011e99f7,643772d753e3c065d65f8d7d,2023-04-13_04h21.49.820,PRaM,2021.2.3,Win32,60.0132029,61b8f3437b89212fae0dfade
2,2.4437,space,0.7516,0,281,281,95,1,,,58f3d7699fbdde00011e99f7,643772d753e3c065d65f8d7d,2023-04-13_04h21.49.820,PRaM,2021.2.3,Win32,60.0132029,61b8f3437b89212fae0dfade
2,3.1969,space,1.4485,0,282,282,290,1,,,58f3d7699fbdde00011e99f7,643772d753e3c065d65f8d7d,2023-04-13_04h21.49.820,PRaM,2021.2.3,Win32,60.0132029,61b8f3437b89212fae0dfade
2,2.275,space,0.5677,0,283,283,36,1,,,58f3d7699fbdde00011e99f7,643772d753e3c065d65f8d7d,2023-04-13_04h21.49.820,PRaM,2021.2.3,Win32,60.0132029,61b8f3437b89212fae0dfade
3,4.2632,space,2.4487,0,284,284,228,1,,,58f3d7699fbdde00011e99f7,643772d753e3c065d65f8d7d,2023-04-13_04h21.49.820,PRaM,2021.2.3,Win32,60.0132029,61b8f3437b89212fae0dfade
3,2.0492,space,0.3018,0,285,285,296,1,,,58f3d7699fbdde00011e99f7,643772d753e3c065d65f8d7d,2023-04-13_04h21.49.820,PRaM,2021.2.3,Win32,60.0132029,61b8f3437b89212fae0dfade
2,14.4621,space,12.6846,0,286,286,50,1,,,58f3d7699fbdde00011e99f7,643772d753e3c065d65f8d7d,2023-04-13_04h21.49.820,PRaM,2021.2.3,Win32,60.0132029,61b8f3437b89212fae0dfade
2,3.1807,space,3.2507,0,287,287,58,1,,,58f3d7699fbdde00011e99f7,643772d753e3c065d65f8d7d,2023-04-13_04h21.49.820,PRaM,2021.2.3,Win32,60.0132029,61b8f3437b89212fae0dfade
3,4.362,space,2.5699,0,288,288,336,1,,,58f3d7699fbdde00011e99f7,643772d753e3c065d65f8d7d,2023-04-13_04h21.49.820,PRaM,2021.2.3,Win32,60.0132029,61b8f3437b89212fae0dfade
4,9.8755,space,8.3831,0,289,289,288,1,,,58f3d7699fbdde00011e99f7,643772d753e3c065d65f8d7d,2023-04-13_04h21.49.820,PRaM,2021.2.3,Win32,60.0132029,61b8f3437b89212fae0dfade
3,8.1778,space,6.6167,0,290,290,100,1,,,58f3d7699fbdde00011e99f7,643772d753e3c065d65f8d7d,2023-04-13_04h21.49.820,PRaM,2021.2.3,Win32,60.0132029,61b8f3437b89212fae0dfade
3,3.0769,space,4.5005,0,291,291,327,1,,,58f3d7699fbdde00011e99f7,643772d753e3c065d65f8d7d,2023-04-13_04h21.49.820,PRaM,2021.2.3,Win32,60.0132029,61b8f3437b89212fae0dfade
2,11.5646,space,9.6996,0,292,292,1,1,,,58f3d7699fbdde00011e99f7,643772d753e3c065d65f8d7d,2023-04-13_04h21.49.820,PRaM,2021.2.3,Win32,60.0132029,61b8f3437b89212fae0dfade
2,1.8323,space,0.1384,0,293,293,333,1,,,58f3d7699fbdde00011e99f7,643772d753e3c065d65f8d7d,2023-04-13_04h21.49.820,PRaM,2021.2.3,Win32,60.0132029,61b8f3437b89212fae0dfade
2,5.0199,space,3.2517,0,294,294,164,1,,,58f3d7699fbdde00011e99f7,643772d753e3c065d65f8d7d,2023-04-13_04h21.49.820,PRaM,2021.2.3,Win32,60.0132029,61b8f3437b89212fae0dfade
3,7.0318,space,5.6977,0,295,295,161,1,,,58f3d7699fbdde00011e99f7,643772d753e3c065d65f8d7d,2023-04-13_04h21.49.820,PRaM,2021.2.3,Win32,60.0132029,61b8f3437b89212fae0dfade
4,3.4001,space,1.5686,0,296,296,298,1,,,58f3d7699fbdde00011e99f7,643772d753e3c065d65f8d7d,2023-04-13_04h21.49.820,PRaM,2021.2.3,Win32,60.0132029,61b8f3437b89212fae0dfade
7,4.66,space,2.8683,0,297,297,207,1,,,58f3d7699fbdde00011e99f7,643772d753e3c065d65f8d7d,2023-04-13_04h21.49.820,PRaM,2021.2.3,Win32,60.0132029,61b8f3437b89212fae0dfade
2,2.7269,space,0.7664,0,298,298,218,1,,,58f3d7699fbdde00011e99f7,643772d753e3c065d65f8d7d,2023-04-13_04h21.49.820,PRaM,2021.2.3,Win32,60.0132029,61b8f3437b89212fae0dfade
1,13.6619,space,11.9803,0,299,299,229,1,,,58f3d7699fbdde00011e99f7,643772d753e3c065d65f8d7d,2023-04-13_04h21.49.820,PRaM,2021.2.3,Win32,60.0132029,61b8f3437b89212fae0dfade
4,4.5535,space,3.0571,0,300,300,314,1,,,58f3d7699fbdde00011e99f7,643772d753e3c065d65f8d7d,2023-04-13_04h21.49.820,PRaM,2021.2.3,Win32,60.0132029,61b8f3437b89212fae0dfade
4,7.1344,space,5.4178,0,301,301,90,1,,,58f3d7699fbdde00011e99f7,643772d753e3c065d65f8d7d,2023-04-13_04h21.49.820,PRaM,2021.2.3,Win32,60.0132029,61b8f3437b89212fae0dfade
3,34.8573,space,34.5273,0,302,302,344,1,,,58f3d7699fbdde00011e99f7,643772d753e3c065d65f8d7d,2023-04-13_04h21.49.820,PRaM,2021.2.3,Win32,60.0132029,61b8f3437b89212fae0dfade
2,2.121,space,0.2847,0,303,303,251,1,,,58f3d7699fbdde00011e99f7,643772d753e3c065d65f8d7d,2023-04-13_04h21.49.820,PRaM,2021.2.3,Win32,60.0132029,61b8f3437b89212fae0dfade
2,1.9852,space,0.1936,0,304,304,237,1,,,58f3d7699fbdde00011e99f7,643772d753e3c065d65f8d7d,2023-04-13_04h21.49.820,PRaM,2021.2.3,Win32,60.0132029,61b8f3437b89212fae0dfade
3,2.29,space,0.4668,0,305,305,175,1,,,58f3d7699fbdde00011e99f7,643772d753e3c065d65f8d7d,2023-04-13_04h21.49.820,PRaM,2021.2.3,Win32,60.0132029,61b8f3437b89212fae0dfade
1,6.5811,space,4.9822,0,306,306,312,1,,,58f3d7699fbdde00011e99f7,643772d753e3c065d65f8d7d,2023-04-13_04h21.49.820,PRaM,2021.2.3,Win32,60.0132029,61b8f3437b89212fae0dfade
2,2.3361,space,0.4854,0,307,307,179,1,,,58f3d7699fbdde00011e99f7,643772d753e3c065d65f8d7d,2023-04-13_04h21.49.820,PRaM,2021.2.3,Win32,60.0132029,61b8f3437b89212fae0dfade
2,2.2666,space,0.4344,0,308,308,171,1,,,58f3d7699fbdde00011e99f7,643772d753e3c065d65f8d7d,2023-04-13_04h21.49.820,PRaM,2021.2.3,Win32,60.0132029,61b8f3437b89212fae0dfade
2,2.7587,space,1.052,0,309,309,34,1,,,58f3d7699fbdde00011e99f7,643772d753e3c065d65f8d7d,2023-04-13_04h21.49.820,PRaM,2021.2.3,Win32,60.0132029,61b8f3437b89212fae0dfade
4,5.2014,space,3.3851,0,310,310,325,1,,,58f3d7699fbdde00011e99f7,643772d753e3c065d65f8d7d,2023-04-13_04h21.49.820,PRaM,2021.2.3,Win32,60.0132029,61b8f3437b89212fae0dfade
1,4.0943,space,2.2745,0,311,311,284,1,,,58f3d7699fbdde00011e99f7,643772d753e3c065d65f8d7d,2023-04-13_04h21.49.820,PRaM,2021.2.3,Win32,60.0132029,61b8f3437b89212fae0dfade
1,2.3574,space,0.8824,0,312,312,289,1,,,58f3d7699fbdde00011e99f7,643772d753e3c065d65f8d7d,2023-04-13_04h21.49.820,PRaM,2021.2.3,Win32,60.0132029,61b8f3437b89212fae0dfade
4,2.8768,space,1.0178,0,313,313,202,1,,,58f3d7699fbdde00011e99f7,643772d753e3c065d65f8d7d,2023-04-13_04h21.49.820,PRaM,2021.2.3,Win32,60.0132029,61b8f3437b89212fae0dfade
3,2.442,space,0.5544,0,314,314,72,1,,,58f3d7699fbdde00011e99f7,643772d753e3c065d65f8d7d,2023-04-13_04h21.49.820,PRaM,2021.2.3,Win32,60.0132029,61b8f3437b89212fae0dfade
2,3.0756,space,1.2409,0,315,315,31,1,,,58f3d7699fbdde00011e99f7,643772d753e3c065d65f8d7d,2023-04-13_04h21.49.820,PRaM,2021.2.3,Win32,60.0132029,61b8f3437b89212fae0dfade
2,2.7404,space,1.002,0,316,316,18,1,,,58f3d7699fbdde00011e99f7,643772d753e3c065d65f8d7d,2023-04-13_04h21.49.820,PRaM,2021.2.3,Win32,60.0132029,61b8f3437b89212fae0dfade
6,4.3619,space,2.749,0,317,317,115,1,,,58f3d7699fbdde00011e99f7,643772d753e3c065d65f8d7d,2023-04-13_04h21.49.820,PRaM,2021.2.3,Win32,60.0132029,61b8f3437b89212fae0dfade
6,3.8937,space,3.0599,0,318,318,305,1,,,58f3d7699fbdde00011e99f7,643772d753e3c065d65f8d7d,2023-04-13_04h21.49.820,PRaM,2021.2.3,Win32,60.0132029,61b8f3437b89212fae0dfade
4,5.3637,space,3.666,0,319,319,363,1,,,58f3d7699fbdde00011e99f7,643772d753e3c065d65f8d7d,2023-04-13_04h21.49.820,PRaM,2021.2.3,Win32,60.0132029,61b8f3437b89212fae0dfade
2,3.6691,space,1.8976,0,320,320,263,1,,,58f3d7699fbdde00011e99f7,643772d753e3c065d65f8d7d,2023-04-13_04h21.49.820,PRaM,2021.2.3,Win32,60.0132029,61b8f3437b89212fae0dfade
2,2.3832,space,0.8497,0,321,321,37,1,,,58f3d7699fbdde00011e99f7,643772d753e3c065d65f8d7d,2023-04-13_04h21.49.820,PRaM,2021.2.3,Win32,60.0132029,61b8f3437b89212fae0dfade
3,3.8809,space,2.1017,0,322,322,49,1,,,58f3d7699fbdde00011e99f7,643772d753e3c065d65f8d7d,2023-04-13_04h21.49.820,PRaM,2021.2.3,Win32,60.0132029,61b8f3437b89212fae0dfade
2,5.3982,space,3.551,0,323,323,28,1,,,58f3d7699fbdde00011e99f7,643772d753e3c065d65f8d7d,2023-04-13_04h21.49.820,PRaM,2021.2.3,Win32,60.0132029,61b8f3437b89212fae0dfade
2,1.92,space,0.2853,0,324,324,371,1,,,58f3d7699fbdde00011e99f7,643772d753e3c065d65f8d7d,2023-04-13_04h21.49.820,PRaM,2021.2.3,Win32,60.0132029,61b8f3437b89212fae0dfade
4,3.9338,space,2.7,0,325,325,20,1,,,58f3d7699fbdde00011e99f7,643772d753e3c065d65f8d7d,2023-04-13_04h21.49.820,PRaM,2021.2.3,Win32,60.0132029,61b8f3437b89212fae0dfade
1,26.256,space,24.4979,0,326,326,243,1,,,58f3d7699fbdde00011e99f7,643772d753e3c065d65f8d7d,2023-04-13_04h21.49.820,PRaM,2021.2.3,Win32,60.0132029,61b8f3437b89212fae0dfade
1,1.7846,space,0.0681,0,327,327,63,1,,,58f3d7699fbdde00011e99f7,643772d753e3c065d65f8d7d,2023-04-13_04h21.49.820,PRaM,2021.2.3,Win32,60.0132029,61b8f3437b89212fae0dfade
2,2.0761,space,0.2607,0,328,328,82,1,,,58f3d7699fbdde00011e99f7,643772d753e3c065d65f8d7d,2023-04-13_04h21.49.820,PRaM,2021.2.3,Win32,60.0132029,61b8f3437b89212fae0dfade
3,2.9078,space,1.0675,0,329,329,255,1,,,58f3d7699fbdde00011e99f7,643772d753e3c065d65f8d7d,2023-04-13_04h21.49.820,PRaM,2021.2.3,Win32,60.0132029,61b8f3437b89212fae0dfade
6,10.9556,space,9.1999,0,330,330,239,1,,,58f3d7699fbdde00011e99f7,643772d753e3c065d65f8d7d,2023-04-13_04h21.49.820,PRaM,2021.2.3,Win32,60.0132029,61b8f3437b89212fae0dfade
6,6.9653,space,7.5336,0,331,331,40,1,,,58f3d7699fbdde00011e99f7,643772d753e3c065d65f8d7d,2023-04-13_04h21.49.820,PRaM,2021.2.3,Win32,60.0132029,61b8f3437b89212fae0dfade
2,3.7796,space,1.9014,0,332,332,250,1,,,58f3d7699fbdde00011e99f7,643772d753e3c065d65f8d7d,2023-04-13_04h21.49.820,PRaM,2021.2.3,Win32,60.0132029,61b8f3437b89212fae0dfade
2,1.6366,space,2.2396,0,333,333,321,1,,,58f3d7699fbdde00011e99f7,643772d753e3c065d65f8d7d,2023-04-13_04h21.49.820,PRaM,2021.2.3,Win32,60.0132029,61b8f3437b89212fae0dfade
2,2.6489,space,1.1574,0,334,334,272,1,,,58f3d7699fbdde00011e99f7,643772d753e3c065d65f8d7d,2023-04-13_04h21.49.820,PRaM,2021.2.3,Win32,60.0132029,61b8f3437b89212fae0dfade
2,2.7774,space,1.1342,0,335,335,348,1,,,58f3d7699fbdde00011e99f7,643772d753e3c065d65f8d7d,2023-04-13_04h21.49.820,PRaM,2021.2.3,Win32,60.0132029,61b8f3437b89212fae0dfade
3,1.9923,space,0.1513,0,336,336,138,1,,,58f3d7699fbdde00011e99f7,643772d753e3c065d65f8d7d,2023-04-13_04h21.49.820,PRaM,2021.2.3,Win32,60.0132029,61b8f3437b89212fae0dfade
4,5.3457,space,3.6321,0,337,337,29,1,,,58f3d7699fbdde00011e99f7,643772d753e3c065d65f8d7d,2023-04-13_04h21.49.820,PRaM,2021.2.3,Win32,60.0132029,61b8f3437b89212fae0dfade
3,2.8673,space,0.9853,0,338,338,338,1,,,58f3d7699fbdde00011e99f7,643772d753e3c065d65f8d7d,2023-04-13_04h21.49.820,PRaM,2021.2.3,Win32,60.0132029,61b8f3437b89212fae0dfade
3,2.0087,space,0.4187,0,339,339,45,1,,,58f3d7699fbdde00011e99f7,643772d753e3c065d65f8d7d,2023-04-13_04h21.49.820,PRaM,2021.2.3,Win32,60.0132029,61b8f3437b89212fae0dfade
3,1.8583,space,0.2016,0,340,340,203,1,,,58f3d7699fbdde00011e99f7,643772d753e3c065d65f8d7d,2023-04-13_04h21.49.820,PRaM,2021.2.3,Win32,60.0132029,61b8f3437b89212fae0dfade
2,2.659,space,0.7357,0,341,341,376,1,,,58f3d7699fbdde00011e99f7,643772d753e3c065d65f8d7d,2023-04-13_04h21.49.820,PRaM,2021.2.3,Win32,60.0132029,61b8f3437b89212fae0dfade
1,2.2127,space,0.3703,0,342,342,176,1,,,58f3d7699fbdde00011e99f7,643772d753e3c065d65f8d7d,2023-04-13_04h21.49.820,PRaM,2021.2.3,Win32,60.0132029,61b8f3437b89212fae0dfade
4,3.6623,space,1.935,0,343,343,147,1,,,58f3d7699fbdde00011e99f7,643772d753e3c065d65f8d7d,2023-04-13_04h21.49.820,PRaM,2021.2.3,Win32,60.0132029,61b8f3437b89212fae0dfade
2,2.8758,space,0.9513,0,344,344,26,1,,,58f3d7699fbdde00011e99f7,643772d753e3c065d65f8d7d,2023-04-13_04h21.49.820,PRaM,2021.2.3,Win32,60.0132029,61b8f3437b89212fae0dfade
4,2.4659,space,0.6519,0,345,345,246,1,,,58f3d7699fbdde00011e99f7,643772d753e3c065d65f8d7d,2023-04-13_04h21.49.820,PRaM,2021.2.3,Win32,60.0132029,61b8f3437b89212fae0dfade
3,1.9424,space,0.068,0,346,346,242,1,,,58f3d7699fbdde00011e99f7,643772d753e3c065d65f8d7d,2023-04-13_04h21.49.820,PRaM,2021.2.3,Win32,60.0132029,61b8f3437b89212fae0dfade
2,2.4921,space,0.7254,0,347,347,367,1,,,58f3d7699fbdde00011e99f7,643772d753e3c065d65f8d7d,2023-04-13_04h21.49.820,PRaM,2021.2.3,Win32,60.0132029,61b8f3437b89212fae0dfade
3,3.0612,space,5.8653,0,348,348,236,1,,,58f3d7699fbdde00011e99f7,643772d753e3c065d65f8d7d,2023-04-13_04h21.49.820,PRaM,2021.2.3,Win32,60.0132029,61b8f3437b89212fae0dfade
3,1.9484,space,0.1681,0,349,349,111,1,,,58f3d7699fbdde00011e99f7,643772d753e3c065d65f8d7d,2023-04-13_04h21.49.820,PRaM,2021.2.3,Win32,60.0132029,61b8f3437b89212fae0dfade
2,3.3057,space,2.3929,0,350,350,313,1,,,58f3d7699fbdde00011e99f7,643772d753e3c065d65f8d7d,2023-04-13_04h21.49.820,PRaM,2021.2.3,Win32,60.0132029,61b8f3437b89212fae0dfade
2,1.7077,space,2.0519,0,351,351,191,1,,,58f3d7699fbdde00011e99f7,643772d753e3c065d65f8d7d,2023-04-13_04h21.49.820,PRaM,2021.2.3,Win32,60.0132029,61b8f3437b89212fae0dfade
2,1.9004,space,0.2201,0,352,352,177,1,,,58f3d7699fbdde00011e99f7,643772d753e3c065d65f8d7d,2023-04-13_04h21.49.820,PRaM,2021.2.3,Win32,60.0132029,61b8f3437b89212fae0dfade
3,2.4595,space,0.6344,0,353,353,80,1,,,58f3d7699fbdde00011e99f7,643772d753e3c065d65f8d7d,2023-04-13_04h21.49.820,PRaM,2021.2.3,Win32,60.0132029,61b8f3437b89212fae0dfade
1,5.4498,space,3.5663,0,354,354,162,1,,,58f3d7699fbdde00011e99f7,643772d753e3c065d65f8d7d,2023-04-13_04h21.49.820,PRaM,2021.2.3,Win32,60.0132029,61b8f3437b89212fae0dfade
2,2.1099,space,0.2871,0,355,355,361,1,,,58f3d7699fbdde00011e99f7,643772d753e3c065d65f8d7d,2023-04-13_04h21.49.820,PRaM,2021.2.3,Win32,60.0132029,61b8f3437b89212fae0dfade
2,2.5967,space,0.767,0,356,356,15,1,,,58f3d7699fbdde00011e99f7,643772d753e3c065d65f8d7d,2023-04-13_04h21.49.820,PRaM,2021.2.3,Win32,60.0132029,61b8f3437b89212fae0dfade
3,1.8694,space,1.4344,0,357,357,315,1,,,58f3d7699fbdde00011e99f7,643772d753e3c065d65f8d7d,2023-04-13_04h21.49.820,PRaM,2021.2.3,Win32,60.0132029,61b8f3437b89212fae0dfade
1,3.7288,space,2.0839,0,358,358,330,1,,,58f3d7699fbdde00011e99f7,643772d753e3c065d65f8d7d,2023-04-13_04h21.49.820,PRaM,2021.2.3,Win32,60.0132029,61b8f3437b89212fae0dfade
1,4.1894,space,2.5679,0,359,359,107,1,,,58f3d7699fbdde00011e99f7,643772d753e3c065d65f8d7d,2023-04-13_04h21.49.820,PRaM,2021.2.3,Win32,60.0132029,61b8f3437b89212fae0dfade
2,2.9413,space,1.1517,0,360,360,153,1,,,58f3d7699fbdde00011e99f7,643772d753e3c065d65f8d7d,2023-04-13_04h21.49.820,PRaM,2021.2.3,Win32,60.0132029,61b8f3437b89212fae0dfade
2,7.7161,space,8.7423,0,361,361,167,1,,,58f3d7699fbdde00011e99f7,643772d753e3c065d65f8d7d,2023-04-13_04h21.49.820,PRaM,2021.2.3,Win32,60.0132029,61b8f3437b89212fae0dfade
2,1.7664,space,0.8267,0,362,362,79,1,,,58f3d7699fbdde00011e99f7,643772d753e3c065d65f8d7d,2023-04-13_04h21.49.820,PRaM,2021.2.3,Win32,60.0132029,61b8f3437b89212fae0dfade
2,1.783,space,0.252,0,363,363,274,1,,,58f3d7699fbdde00011e99f7,643772d753e3c065d65f8d7d,2023-04-13_04h21.49.820,PRaM,2021.2.3,Win32,60.0132029,61b8f3437b89212fae0dfade
2,4.8334,space,3.1831,0,364,364,316,1,,,58f3d7699fbdde00011e99f7,643772d753e3c065d65f8d7d,2023-04-13_04h21.49.820,PRaM,2021.2.3,Win32,60.0132029,61b8f3437b89212fae0dfade
1,3.2181,space,1.4416,0,365,365,190,1,,,58f3d7699fbdde00011e99f7,643772d753e3c065d65f8d7d,2023-04-13_04h21.49.820,PRaM,2021.2.3,Win32,60.0132029,61b8f3437b89212fae0dfade
2,3.3599,space,1.5676,0,366,366,183,1,,,58f3d7699fbdde00011e99f7,643772d753e3c065d65f8d7d,2023-04-13_04h21.49.820,PRaM,2021.2.3,Win32,60.0132029,61b8f3437b89212fae0dfade
3,2.9012,space,1.1346,0,367,367,184,1,,,58f3d7699fbdde00011e99f7,643772d753e3c065d65f8d7d,2023-04-13_04h21.49.820,PRaM,2021.2.3,Win32,60.0132029,61b8f3437b89212fae0dfade
2,31.9876,space,30.2467,0,368,368,319,1,,,58f3d7699fbdde00011e99f7,643772d753e3c065d65f8d7d,2023-04-13_04h21.49.820,PRaM,2021.2.3,Win32,60.0132029,61b8f3437b89212fae0dfade
2,1.9427,space,0.1906,0,369,369,109,1,,,58f3d7699fbdde00011e99f7,643772d753e3c065d65f8d7d,2023-04-13_04h21.49.820,PRaM,2021.2.3,Win32,60.0132029,61b8f3437b89212fae0dfade
3,2.7089,space,0.9673,0,370,370,334,1,,,58f3d7699fbdde00011e99f7,643772d753e3c065d65f8d7d,2023-04-13_04h21.49.820,PRaM,2021.2.3,Win32,60.0132029,61b8f3437b89212fae0dfade
2,4.8665,space,3.0015,0,371,371,240,1,,,58f3d7699fbdde00011e99f7,643772d753e3c065d65f8d7d,2023-04-13_04h21.49.820,PRaM,2021.2.3,Win32,60.0132029,61b8f3437b89212fae0dfade
3,2.8008,space,1.0421,0,372,372,91,1,,,58f3d7699fbdde00011e99f7,643772d753e3c065d65f8d7d,2023-04-13_04h21.49.820,PRaM,2021.2.3,Win32,60.0132029,61b8f3437b89212fae0dfade
2,3.0828,space,1.2542,0,373,373,260,1,,,58f3d7699fbdde00011e99f7,643772d753e3c065d65f8d7d,2023-04-13_04h21.49.820,PRaM,2021.2.3,Win32,60.0132029,61b8f3437b89212fae0dfade
4,3.5163,space,1.7327,0,374,374,51,1,,,58f3d7699fbdde00011e99f7,643772d753e3c065d65f8d7d,2023-04-13_04h21.49.820,PRaM,2021.2.3,Win32,60.0132029,61b8f3437b89212fae0dfade
3,2.3026,space,0.7684,0,375,375,294,1,,,58f3d7699fbdde00011e99f7,643772d753e3c065d65f8d7d,2023-04-13_04h21.49.820,PRaM,2021.2.3,Win32,60.0132029,61b8f3437b89212fae0dfade
3,2.2629,space,0.8817,0,376,376,168,1,,,58f3d7699fbdde00011e99f7,643772d753e3c065d65f8d7d,2023-04-13_04h21.49.820,PRaM,2021.2.3,Win32,60.0132029,61b8f3437b89212fae0dfade
2,3.4002,space,1.535,0,377,377,97,1,,,58f3d7699fbdde00011e99f7,643772d753e3c065d65f8d7d,2023-04-13_04h21.49.820,PRaM,2021.2.3,Win32,60.0132029,61b8f3437b89212fae0dfade
