Rating.response,Rating.rt,EndTrial.keys,EndTrial.rt,trials.thisRepN,trials.thisTrialN,trials.thisN,trials.thisIndex,trials.ran,Pos1,Pos2,participant,session,date,expName,psychopyVersion,OS,frameRate,study_id
,,space,8.915,0,0,0,172,1,,,5915e5c6405db80001f30ff1,61b910848dbc9169fb853a8c,2021-12-14_21h45.55.346,PRaM,2021.2.3,Win32,61.10601894,61b8f3437b89212fae0dfadf
3,17.6668,space,16.4452,0,1,1,236,1,,,5915e5c6405db80001f30ff1,61b910848dbc9169fb853a8c,2021-12-14_21h45.55.346,PRaM,2021.2.3,Win32,61.10601894,61b8f3437b89212fae0dfadf
5,2.9036,space,1.6213,0,2,2,132,1,,,5915e5c6405db80001f30ff1,61b910848dbc9169fb853a8c,2021-12-14_21h45.55.346,PRaM,2021.2.3,Win32,61.10601894,61b8f3437b89212fae0dfadf
6,2.1075,space,0.6935,0,3,3,141,1,,,5915e5c6405db80001f30ff1,61b910848dbc9169fb853a8c,2021-12-14_21h45.55.346,PRaM,2021.2.3,Win32,61.10601894,61b8f3437b89212fae0dfadf
7,1.9698,space,0.6279,0,4,4,196,1,,,5915e5c6405db80001f30ff1,61b910848dbc9169fb853a8c,2021-12-14_21h45.55.346,PRaM,2021.2.3,Win32,61.10601894,61b8f3437b89212fae0dfadf
5,9.2824,space,7.919,0,5,5,254,1,,,5915e5c6405db80001f30ff1,61b910848dbc9169fb853a8c,2021-12-14_21h45.55.346,PRaM,2021.2.3,Win32,61.10601894,61b8f3437b89212fae0dfadf
5,1.6415,space,0.2852,0,6,6,281,1,,,5915e5c6405db80001f30ff1,61b910848dbc9169fb853a8c,2021-12-14_21h45.55.346,PRaM,2021.2.3,Win32,61.10601894,61b8f3437b89212fae0dfadf
6,4.003,space,2.6252,0,7,7,336,1,,,5915e5c6405db80001f30ff1,61b910848dbc9169fb853a8c,2021-12-14_21h45.55.346,PRaM,2021.2.3,Win32,61.10601894,61b8f3437b89212fae0dfadf
6,1.8218,space,0.317,0,8,8,105,1,,,5915e5c6405db80001f30ff1,61b910848dbc9169fb853a8c,2021-12-14_21h45.55.346,PRaM,2021.2.3,Win32,61.10601894,61b8f3437b89212fae0dfadf
4,13.1632,space,11.7511,0,9,9,58,1,,,5915e5c6405db80001f30ff1,61b910848dbc9169fb853a8c,2021-12-14_21h45.55.346,PRaM,2021.2.3,Win32,61.10601894,61b8f3437b89212fae0dfadf
5,1.5446,space,0.0253,0,10,10,57,1,,,5915e5c6405db80001f30ff1,61b910848dbc9169fb853a8c,2021-12-14_21h45.55.346,PRaM,2021.2.3,Win32,61.10601894,61b8f3437b89212fae0dfadf
6,2.5257,space,1.0533,0,11,11,117,1,,,5915e5c6405db80001f30ff1,61b910848dbc9169fb853a8c,2021-12-14_21h45.55.346,PRaM,2021.2.3,Win32,61.10601894,61b8f3437b89212fae0dfadf
3,46.3108,space,45.1768,0,12,12,258,1,,,5915e5c6405db80001f30ff1,61b910848dbc9169fb853a8c,2021-12-14_21h45.55.346,PRaM,2021.2.3,Win32,61.10601894,61b8f3437b89212fae0dfadf
4,3.4726,space,2.2903,0,13,13,178,1,,,5915e5c6405db80001f30ff1,61b910848dbc9169fb853a8c,2021-12-14_21h45.55.346,PRaM,2021.2.3,Win32,61.10601894,61b8f3437b89212fae0dfadf
5,1.2099,space,1.6669,0,14,14,361,1,,,5915e5c6405db80001f30ff1,61b910848dbc9169fb853a8c,2021-12-14_21h45.55.346,PRaM,2021.2.3,Win32,61.10601894,61b8f3437b89212fae0dfadf
3,4.3229,space,2.9156,0,15,15,36,1,,,5915e5c6405db80001f30ff1,61b910848dbc9169fb853a8c,2021-12-14_21h45.55.346,PRaM,2021.2.3,Win32,61.10601894,61b8f3437b89212fae0dfadf
5,3.3887,space,1.8834,0,16,16,120,1,,,5915e5c6405db80001f30ff1,61b910848dbc9169fb853a8c,2021-12-14_21h45.55.346,PRaM,2021.2.3,Win32,61.10601894,61b8f3437b89212fae0dfadf
3,1.5275,space,0.0019,0,17,17,88,1,,,5915e5c6405db80001f30ff1,61b910848dbc9169fb853a8c,2021-12-14_21h45.55.346,PRaM,2021.2.3,Win32,61.10601894,61b8f3437b89212fae0dfadf
3,1.9751,space,0.7833,0,18,18,91,1,,,5915e5c6405db80001f30ff1,61b910848dbc9169fb853a8c,2021-12-14_21h45.55.346,PRaM,2021.2.3,Win32,61.10601894,61b8f3437b89212fae0dfadf
5,4.7089,space,3.602,0,19,19,49,1,,,5915e5c6405db80001f30ff1,61b910848dbc9169fb853a8c,2021-12-14_21h45.55.346,PRaM,2021.2.3,Win32,61.10601894,61b8f3437b89212fae0dfadf
3,39.0513,space,37.7735,0,20,20,362,1,,,5915e5c6405db80001f30ff1,61b910848dbc9169fb853a8c,2021-12-14_21h45.55.346,PRaM,2021.2.3,Win32,61.10601894,61b8f3437b89212fae0dfadf
5,1.4553,space,1.2676,0,21,21,282,1,,,5915e5c6405db80001f30ff1,61b910848dbc9169fb853a8c,2021-12-14_21h45.55.346,PRaM,2021.2.3,Win32,61.10601894,61b8f3437b89212fae0dfadf
6,1.7577,space,0.3168,0,22,22,271,1,,,5915e5c6405db80001f30ff1,61b910848dbc9169fb853a8c,2021-12-14_21h45.55.346,PRaM,2021.2.3,Win32,61.10601894,61b8f3437b89212fae0dfadf
5,0.8587,space,0.4836,0,23,23,46,1,,,5915e5c6405db80001f30ff1,61b910848dbc9169fb853a8c,2021-12-14_21h45.55.346,PRaM,2021.2.3,Win32,61.10601894,61b8f3437b89212fae0dfadf
3,1.6053,space,0.2344,0,24,24,82,1,,,5915e5c6405db80001f30ff1,61b910848dbc9169fb853a8c,2021-12-14_21h45.55.346,PRaM,2021.2.3,Win32,61.10601894,61b8f3437b89212fae0dfadf
5,0.7613,space,0.0841,0,25,25,53,1,,,5915e5c6405db80001f30ff1,61b910848dbc9169fb853a8c,2021-12-14_21h45.55.346,PRaM,2021.2.3,Win32,61.10601894,61b8f3437b89212fae0dfadf
6,2.5564,space,1.1341,0,26,26,328,1,,,5915e5c6405db80001f30ff1,61b910848dbc9169fb853a8c,2021-12-14_21h45.55.346,PRaM,2021.2.3,Win32,61.10601894,61b8f3437b89212fae0dfadf
4,10.8188,space,9.4102,0,27,27,314,1,,,5915e5c6405db80001f30ff1,61b910848dbc9169fb853a8c,2021-12-14_21h45.55.346,PRaM,2021.2.3,Win32,61.10601894,61b8f3437b89212fae0dfadf
6,24.0664,space,28.1048,0,28,28,337,1,,,5915e5c6405db80001f30ff1,61b910848dbc9169fb853a8c,2021-12-14_21h45.55.346,PRaM,2021.2.3,Win32,61.10601894,61b8f3437b89212fae0dfadf
,,space,4.8866,0,29,29,261,1,,,5915e5c6405db80001f30ff1,61b910848dbc9169fb853a8c,2021-12-14_21h45.55.346,PRaM,2021.2.3,Win32,61.10601894,61b8f3437b89212fae0dfadf
,,space,0.1511,0,30,30,116,1,,,5915e5c6405db80001f30ff1,61b910848dbc9169fb853a8c,2021-12-14_21h45.55.346,PRaM,2021.2.3,Win32,61.10601894,61b8f3437b89212fae0dfadf
4,2.1202,space,0.8829,0,31,31,249,1,,,5915e5c6405db80001f30ff1,61b910848dbc9169fb853a8c,2021-12-14_21h45.55.346,PRaM,2021.2.3,Win32,61.10601894,61b8f3437b89212fae0dfadf
6,5.1436,space,3.6818,0,32,32,154,1,,,5915e5c6405db80001f30ff1,61b910848dbc9169fb853a8c,2021-12-14_21h45.55.346,PRaM,2021.2.3,Win32,61.10601894,61b8f3437b89212fae0dfadf
,,space,35.8681,0,33,33,76,1,,,5915e5c6405db80001f30ff1,61b910848dbc9169fb853a8c,2021-12-14_21h45.55.346,PRaM,2021.2.3,Win32,61.10601894,61b8f3437b89212fae0dfadf
4,5.7105,space,4.7017,0,34,34,210,1,,,5915e5c6405db80001f30ff1,61b910848dbc9169fb853a8c,2021-12-14_21h45.55.346,PRaM,2021.2.3,Win32,61.10601894,61b8f3437b89212fae0dfadf
3,13.3237,space,12.1341,0,35,35,126,1,,,5915e5c6405db80001f30ff1,61b910848dbc9169fb853a8c,2021-12-14_21h45.55.346,PRaM,2021.2.3,Win32,61.10601894,61b8f3437b89212fae0dfadf
5,13.6591,space,12.3325,0,36,36,124,1,,,5915e5c6405db80001f30ff1,61b910848dbc9169fb853a8c,2021-12-14_21h45.55.346,PRaM,2021.2.3,Win32,61.10601894,61b8f3437b89212fae0dfadf
6,0.7876,space,6.5643,0,37,37,363,1,,,5915e5c6405db80001f30ff1,61b910848dbc9169fb853a8c,2021-12-14_21h45.55.346,PRaM,2021.2.3,Win32,61.10601894,61b8f3437b89212fae0dfadf
4,1.6111,space,0.2343,0,38,38,315,1,,,5915e5c6405db80001f30ff1,61b910848dbc9169fb853a8c,2021-12-14_21h45.55.346,PRaM,2021.2.3,Win32,61.10601894,61b8f3437b89212fae0dfadf
6,2.1718,space,0.6511,0,39,39,151,1,,,5915e5c6405db80001f30ff1,61b910848dbc9169fb853a8c,2021-12-14_21h45.55.346,PRaM,2021.2.3,Win32,61.10601894,61b8f3437b89212fae0dfadf
8,3.4586,space,2.088,0,40,40,17,1,,,5915e5c6405db80001f30ff1,61b910848dbc9169fb853a8c,2021-12-14_21h45.55.346,PRaM,2021.2.3,Win32,61.10601894,61b8f3437b89212fae0dfadf
3,5.1868,space,3.7312,0,41,41,212,1,,,5915e5c6405db80001f30ff1,61b910848dbc9169fb853a8c,2021-12-14_21h45.55.346,PRaM,2021.2.3,Win32,61.10601894,61b8f3437b89212fae0dfadf
4,0.9202,space,0.5172,0,42,42,292,1,,,5915e5c6405db80001f30ff1,61b910848dbc9169fb853a8c,2021-12-14_21h45.55.346,PRaM,2021.2.3,Win32,61.10601894,61b8f3437b89212fae0dfadf
6,0.7901,space,0.7429,0,43,43,309,1,,,5915e5c6405db80001f30ff1,61b910848dbc9169fb853a8c,2021-12-14_21h45.55.346,PRaM,2021.2.3,Win32,61.10601894,61b8f3437b89212fae0dfadf
7,1.2242,space,1.6495,0,44,44,346,1,,,5915e5c6405db80001f30ff1,61b910848dbc9169fb853a8c,2021-12-14_21h45.55.346,PRaM,2021.2.3,Win32,61.10601894,61b8f3437b89212fae0dfadf
6,1.4562,space,0.256,0,45,45,294,1,,,5915e5c6405db80001f30ff1,61b910848dbc9169fb853a8c,2021-12-14_21h45.55.346,PRaM,2021.2.3,Win32,61.10601894,61b8f3437b89212fae0dfadf
6,3.3154,space,2.1665,0,46,46,240,1,,,5915e5c6405db80001f30ff1,61b910848dbc9169fb853a8c,2021-12-14_21h45.55.346,PRaM,2021.2.3,Win32,61.10601894,61b8f3437b89212fae0dfadf
7,0.7386,space,0.7011,0,47,47,1,1,,,5915e5c6405db80001f30ff1,61b910848dbc9169fb853a8c,2021-12-14_21h45.55.346,PRaM,2021.2.3,Win32,61.10601894,61b8f3437b89212fae0dfadf
6,0.7887,space,0.034,0,48,48,27,1,,,5915e5c6405db80001f30ff1,61b910848dbc9169fb853a8c,2021-12-14_21h45.55.346,PRaM,2021.2.3,Win32,61.10601894,61b8f3437b89212fae0dfadf
5,0.7246,space,0.5673,0,49,49,251,1,,,5915e5c6405db80001f30ff1,61b910848dbc9169fb853a8c,2021-12-14_21h45.55.346,PRaM,2021.2.3,Win32,61.10601894,61b8f3437b89212fae0dfadf
7,1.0922,space,0.4592,0,50,50,74,1,,,5915e5c6405db80001f30ff1,61b910848dbc9169fb853a8c,2021-12-14_21h45.55.346,PRaM,2021.2.3,Win32,61.10601894,61b8f3437b89212fae0dfadf
3,0.8391,space,0.2181,0,51,51,319,1,,,5915e5c6405db80001f30ff1,61b910848dbc9169fb853a8c,2021-12-14_21h45.55.346,PRaM,2021.2.3,Win32,61.10601894,61b8f3437b89212fae0dfadf
4,0.7378,space,0.4677,0,52,52,138,1,,,5915e5c6405db80001f30ff1,61b910848dbc9169fb853a8c,2021-12-14_21h45.55.346,PRaM,2021.2.3,Win32,61.10601894,61b8f3437b89212fae0dfadf
7,1.2463,space,0.3525,0,53,53,228,1,,,5915e5c6405db80001f30ff1,61b910848dbc9169fb853a8c,2021-12-14_21h45.55.346,PRaM,2021.2.3,Win32,61.10601894,61b8f3437b89212fae0dfadf
3,230.2164,space,228.8587,0,54,54,263,1,,,5915e5c6405db80001f30ff1,61b910848dbc9169fb853a8c,2021-12-14_21h45.55.346,PRaM,2021.2.3,Win32,61.10601894,61b8f3437b89212fae0dfadf
7,105.2704,space,103.843,0,55,55,4,1,,,5915e5c6405db80001f30ff1,61b910848dbc9169fb853a8c,2021-12-14_21h45.55.346,PRaM,2021.2.3,Win32,61.10601894,61b8f3437b89212fae0dfadf
5,21.0789,space,19.8232,0,56,56,267,1,,,5915e5c6405db80001f30ff1,61b910848dbc9169fb853a8c,2021-12-14_21h45.55.346,PRaM,2021.2.3,Win32,61.10601894,61b8f3437b89212fae0dfadf
7,5.7205,space,4.5689,0,57,57,19,1,,,5915e5c6405db80001f30ff1,61b910848dbc9169fb853a8c,2021-12-14_21h45.55.346,PRaM,2021.2.3,Win32,61.10601894,61b8f3437b89212fae0dfadf
4,1.7879,space,0.4053,0,58,58,198,1,,,5915e5c6405db80001f30ff1,61b910848dbc9169fb853a8c,2021-12-14_21h45.55.346,PRaM,2021.2.3,Win32,61.10601894,61b8f3437b89212fae0dfadf
7,2.1772,space,0.9194,0,59,59,42,1,,,5915e5c6405db80001f30ff1,61b910848dbc9169fb853a8c,2021-12-14_21h45.55.346,PRaM,2021.2.3,Win32,61.10601894,61b8f3437b89212fae0dfadf
4,2.4577,space,1.1344,0,60,60,245,1,,,5915e5c6405db80001f30ff1,61b910848dbc9169fb853a8c,2021-12-14_21h45.55.346,PRaM,2021.2.3,Win32,61.10601894,61b8f3437b89212fae0dfadf
6,1.7143,space,0.2336,0,61,61,145,1,,,5915e5c6405db80001f30ff1,61b910848dbc9169fb853a8c,2021-12-14_21h45.55.346,PRaM,2021.2.3,Win32,61.10601894,61b8f3437b89212fae0dfadf
4,14.3149,space,13.3755,0,62,62,190,1,,,5915e5c6405db80001f30ff1,61b910848dbc9169fb853a8c,2021-12-14_21h45.55.346,PRaM,2021.2.3,Win32,61.10601894,61b8f3437b89212fae0dfadf
5,4.4732,space,3.8315,0,63,63,10,1,,,5915e5c6405db80001f30ff1,61b910848dbc9169fb853a8c,2021-12-14_21h45.55.346,PRaM,2021.2.3,Win32,61.10601894,61b8f3437b89212fae0dfadf
3,4.1502,space,2.6503,0,64,64,15,1,,,5915e5c6405db80001f30ff1,61b910848dbc9169fb853a8c,2021-12-14_21h45.55.346,PRaM,2021.2.3,Win32,61.10601894,61b8f3437b89212fae0dfadf
7,3.4208,space,2.0206,0,65,65,102,1,,,5915e5c6405db80001f30ff1,61b910848dbc9169fb853a8c,2021-12-14_21h45.55.346,PRaM,2021.2.3,Win32,61.10601894,61b8f3437b89212fae0dfadf
5,1.5707,space,0.0347,0,66,66,186,1,,,5915e5c6405db80001f30ff1,61b910848dbc9169fb853a8c,2021-12-14_21h45.55.346,PRaM,2021.2.3,Win32,61.10601894,61b8f3437b89212fae0dfadf
5,2.7272,space,1.35,0,67,67,269,1,,,5915e5c6405db80001f30ff1,61b910848dbc9169fb853a8c,2021-12-14_21h45.55.346,PRaM,2021.2.3,Win32,61.10601894,61b8f3437b89212fae0dfadf
7,20.4067,space,19.3446,0,68,68,359,1,,,5915e5c6405db80001f30ff1,61b910848dbc9169fb853a8c,2021-12-14_21h45.55.346,PRaM,2021.2.3,Win32,61.10601894,61b8f3437b89212fae0dfadf
5,8.4017,space,7.037,0,69,69,187,1,,,5915e5c6405db80001f30ff1,61b910848dbc9169fb853a8c,2021-12-14_21h45.55.346,PRaM,2021.2.3,Win32,61.10601894,61b8f3437b89212fae0dfadf
3,2.3388,space,1.0191,0,70,70,165,1,,,5915e5c6405db80001f30ff1,61b910848dbc9169fb853a8c,2021-12-14_21h45.55.346,PRaM,2021.2.3,Win32,61.10601894,61b8f3437b89212fae0dfadf
3,2.7383,space,1.2687,0,71,71,329,1,,,5915e5c6405db80001f30ff1,61b910848dbc9169fb853a8c,2021-12-14_21h45.55.346,PRaM,2021.2.3,Win32,61.10601894,61b8f3437b89212fae0dfadf
6,3.5548,space,2.0557,0,72,72,291,1,,,5915e5c6405db80001f30ff1,61b910848dbc9169fb853a8c,2021-12-14_21h45.55.346,PRaM,2021.2.3,Win32,61.10601894,61b8f3437b89212fae0dfadf
7,1.5054,space,3.5333,0,73,73,59,1,,,5915e5c6405db80001f30ff1,61b910848dbc9169fb853a8c,2021-12-14_21h45.55.346,PRaM,2021.2.3,Win32,61.10601894,61b8f3437b89212fae0dfadf
3,1.9656,space,0.4559,0,74,74,170,1,,,5915e5c6405db80001f30ff1,61b910848dbc9169fb853a8c,2021-12-14_21h45.55.346,PRaM,2021.2.3,Win32,61.10601894,61b8f3437b89212fae0dfadf
8,30.6285,space,29.6549,0,75,75,297,1,,,5915e5c6405db80001f30ff1,61b910848dbc9169fb853a8c,2021-12-14_21h45.55.346,PRaM,2021.2.3,Win32,61.10601894,61b8f3437b89212fae0dfadf
6,1.3651,space,1.658,0,76,76,162,1,,,5915e5c6405db80001f30ff1,61b910848dbc9169fb853a8c,2021-12-14_21h45.55.346,PRaM,2021.2.3,Win32,61.10601894,61b8f3437b89212fae0dfadf
7,0.9724,space,0.3176,0,77,77,161,1,,,5915e5c6405db80001f30ff1,61b910848dbc9169fb853a8c,2021-12-14_21h45.55.346,PRaM,2021.2.3,Win32,61.10601894,61b8f3437b89212fae0dfadf
6,1.654,space,0.1501,0,78,78,232,1,,,5915e5c6405db80001f30ff1,61b910848dbc9169fb853a8c,2021-12-14_21h45.55.346,PRaM,2021.2.3,Win32,61.10601894,61b8f3437b89212fae0dfadf
7,5.1525,space,3.5994,0,79,79,14,1,,,5915e5c6405db80001f30ff1,61b910848dbc9169fb853a8c,2021-12-14_21h45.55.346,PRaM,2021.2.3,Win32,61.10601894,61b8f3437b89212fae0dfadf
4,9.766,space,8.3955,0,80,80,63,1,,,5915e5c6405db80001f30ff1,61b910848dbc9169fb853a8c,2021-12-14_21h45.55.346,PRaM,2021.2.3,Win32,61.10601894,61b8f3437b89212fae0dfadf
6,3.5116,space,1.9233,0,81,81,93,1,,,5915e5c6405db80001f30ff1,61b910848dbc9169fb853a8c,2021-12-14_21h45.55.346,PRaM,2021.2.3,Win32,61.10601894,61b8f3437b89212fae0dfadf
6,4.1162,space,2.8008,0,82,82,233,1,,,5915e5c6405db80001f30ff1,61b910848dbc9169fb853a8c,2021-12-14_21h45.55.346,PRaM,2021.2.3,Win32,61.10601894,61b8f3437b89212fae0dfadf
7,1.9475,space,0.4034,0,83,83,62,1,,,5915e5c6405db80001f30ff1,61b910848dbc9169fb853a8c,2021-12-14_21h45.55.346,PRaM,2021.2.3,Win32,61.10601894,61b8f3437b89212fae0dfadf
7,4.0435,space,2.5393,0,84,84,176,1,,,5915e5c6405db80001f30ff1,61b910848dbc9169fb853a8c,2021-12-14_21h45.55.346,PRaM,2021.2.3,Win32,61.10601894,61b8f3437b89212fae0dfadf
7,8.5874,space,7.2021,0,85,85,215,1,,,5915e5c6405db80001f30ff1,61b910848dbc9169fb853a8c,2021-12-14_21h45.55.346,PRaM,2021.2.3,Win32,61.10601894,61b8f3437b89212fae0dfadf
3,5.8295,space,4.6319,0,86,86,333,1,,,5915e5c6405db80001f30ff1,61b910848dbc9169fb853a8c,2021-12-14_21h45.55.346,PRaM,2021.2.3,Win32,61.10601894,61b8f3437b89212fae0dfadf
6,15.7619,space,15.7762,0,87,87,107,1,,,5915e5c6405db80001f30ff1,61b910848dbc9169fb853a8c,2021-12-14_21h45.55.346,PRaM,2021.2.3,Win32,61.10601894,61b8f3437b89212fae0dfadf
4,8.8282,space,7.9799,0,88,88,127,1,,,5915e5c6405db80001f30ff1,61b910848dbc9169fb853a8c,2021-12-14_21h45.55.346,PRaM,2021.2.3,Win32,61.10601894,61b8f3437b89212fae0dfadf
5,11.9145,space,10.729,0,89,89,150,1,,,5915e5c6405db80001f30ff1,61b910848dbc9169fb853a8c,2021-12-14_21h45.55.346,PRaM,2021.2.3,Win32,61.10601894,61b8f3437b89212fae0dfadf
6,5.2989,space,4.706,0,90,90,13,1,,,5915e5c6405db80001f30ff1,61b910848dbc9169fb853a8c,2021-12-14_21h45.55.346,PRaM,2021.2.3,Win32,61.10601894,61b8f3437b89212fae0dfadf
3,5.297,space,4.3341,0,91,91,248,1,,,5915e5c6405db80001f30ff1,61b910848dbc9169fb853a8c,2021-12-14_21h45.55.346,PRaM,2021.2.3,Win32,61.10601894,61b8f3437b89212fae0dfadf
3,10.3149,space,8.9461,0,92,92,101,1,,,5915e5c6405db80001f30ff1,61b910848dbc9169fb853a8c,2021-12-14_21h45.55.346,PRaM,2021.2.3,Win32,61.10601894,61b8f3437b89212fae0dfadf
6,18.5014,space,17.2251,0,93,93,205,1,,,5915e5c6405db80001f30ff1,61b910848dbc9169fb853a8c,2021-12-14_21h45.55.346,PRaM,2021.2.3,Win32,61.10601894,61b8f3437b89212fae0dfadf
3,5.282,space,3.8997,0,94,94,72,1,,,5915e5c6405db80001f30ff1,61b910848dbc9169fb853a8c,2021-12-14_21h45.55.346,PRaM,2021.2.3,Win32,61.10601894,61b8f3437b89212fae0dfadf
3,6.148,space,5.0711,0,95,95,214,1,,,5915e5c6405db80001f30ff1,61b910848dbc9169fb853a8c,2021-12-14_21h45.55.346,PRaM,2021.2.3,Win32,61.10601894,61b8f3437b89212fae0dfadf
7,6.0748,space,4.9307,0,96,96,323,1,,,5915e5c6405db80001f30ff1,61b910848dbc9169fb853a8c,2021-12-14_21h45.55.346,PRaM,2021.2.3,Win32,61.10601894,61b8f3437b89212fae0dfadf
2,20.8784,space,20.4991,0,97,97,230,1,,,5915e5c6405db80001f30ff1,61b910848dbc9169fb853a8c,2021-12-14_21h45.55.346,PRaM,2021.2.3,Win32,61.10601894,61b8f3437b89212fae0dfadf
3,8.7466,space,7.6145,0,98,98,166,1,,,5915e5c6405db80001f30ff1,61b910848dbc9169fb853a8c,2021-12-14_21h45.55.346,PRaM,2021.2.3,Win32,61.10601894,61b8f3437b89212fae0dfadf
7,10.119,space,9.0615,0,99,99,338,1,,,5915e5c6405db80001f30ff1,61b910848dbc9169fb853a8c,2021-12-14_21h45.55.346,PRaM,2021.2.3,Win32,61.10601894,61b8f3437b89212fae0dfadf
6,44.6814,space,43.9443,0,100,100,238,1,,,5915e5c6405db80001f30ff1,61b910848dbc9169fb853a8c,2021-12-14_21h45.55.346,PRaM,2021.2.3,Win32,61.10601894,61b8f3437b89212fae0dfadf
3,2.9107,space,1.5672,0,101,101,375,1,,,5915e5c6405db80001f30ff1,61b910848dbc9169fb853a8c,2021-12-14_21h45.55.346,PRaM,2021.2.3,Win32,61.10601894,61b8f3437b89212fae0dfadf
4,1.7455,space,0.3854,0,102,102,235,1,,,5915e5c6405db80001f30ff1,61b910848dbc9169fb853a8c,2021-12-14_21h45.55.346,PRaM,2021.2.3,Win32,61.10601894,61b8f3437b89212fae0dfadf
3,5.7956,space,4.382,0,103,103,78,1,,,5915e5c6405db80001f30ff1,61b910848dbc9169fb853a8c,2021-12-14_21h45.55.346,PRaM,2021.2.3,Win32,61.10601894,61b8f3437b89212fae0dfadf
4,3.6709,space,2.0659,0,104,104,191,1,,,5915e5c6405db80001f30ff1,61b910848dbc9169fb853a8c,2021-12-14_21h45.55.346,PRaM,2021.2.3,Win32,61.10601894,61b8f3437b89212fae0dfadf
6,1.1546,space,32.9711,0,105,105,268,1,,,5915e5c6405db80001f30ff1,61b910848dbc9169fb853a8c,2021-12-14_21h45.55.346,PRaM,2021.2.3,Win32,61.10601894,61b8f3437b89212fae0dfadf
3,26.5138,space,25.1213,0,106,106,148,1,,,5915e5c6405db80001f30ff1,61b910848dbc9169fb853a8c,2021-12-14_21h45.55.346,PRaM,2021.2.3,Win32,61.10601894,61b8f3437b89212fae0dfadf
4,2.6465,space,1.3159,0,107,107,354,1,,,5915e5c6405db80001f30ff1,61b910848dbc9169fb853a8c,2021-12-14_21h45.55.346,PRaM,2021.2.3,Win32,61.10601894,61b8f3437b89212fae0dfadf
3,11.0407,space,9.4494,0,108,108,313,1,,,5915e5c6405db80001f30ff1,61b910848dbc9169fb853a8c,2021-12-14_21h45.55.346,PRaM,2021.2.3,Win32,61.10601894,61b8f3437b89212fae0dfadf
6,3.5756,space,1.9048,0,109,109,194,1,,,5915e5c6405db80001f30ff1,61b910848dbc9169fb853a8c,2021-12-14_21h45.55.346,PRaM,2021.2.3,Win32,61.10601894,61b8f3437b89212fae0dfadf
4,1.5212,space,0.5511,0,110,110,77,1,,,5915e5c6405db80001f30ff1,61b910848dbc9169fb853a8c,2021-12-14_21h45.55.346,PRaM,2021.2.3,Win32,61.10601894,61b8f3437b89212fae0dfadf
7,1.2587,space,0.4181,0,111,111,65,1,,,5915e5c6405db80001f30ff1,61b910848dbc9169fb853a8c,2021-12-14_21h45.55.346,PRaM,2021.2.3,Win32,61.10601894,61b8f3437b89212fae0dfadf
4,1.6877,space,0.2184,0,112,112,118,1,,,5915e5c6405db80001f30ff1,61b910848dbc9169fb853a8c,2021-12-14_21h45.55.346,PRaM,2021.2.3,Win32,61.10601894,61b8f3437b89212fae0dfadf
6,1.1556,space,0.5339,0,113,113,352,1,,,5915e5c6405db80001f30ff1,61b910848dbc9169fb853a8c,2021-12-14_21h45.55.346,PRaM,2021.2.3,Win32,61.10601894,61b8f3437b89212fae0dfadf
5,0.7716,space,0.7429,0,114,114,137,1,,,5915e5c6405db80001f30ff1,61b910848dbc9169fb853a8c,2021-12-14_21h45.55.346,PRaM,2021.2.3,Win32,61.10601894,61b8f3437b89212fae0dfadf
7,1.0389,space,0.4347,0,115,115,320,1,,,5915e5c6405db80001f30ff1,61b910848dbc9169fb853a8c,2021-12-14_21h45.55.346,PRaM,2021.2.3,Win32,61.10601894,61b8f3437b89212fae0dfadf
3,1.8758,space,0.3658,0,116,116,73,1,,,5915e5c6405db80001f30ff1,61b910848dbc9169fb853a8c,2021-12-14_21h45.55.346,PRaM,2021.2.3,Win32,61.10601894,61b8f3437b89212fae0dfadf
3,5.3631,space,3.8158,0,117,117,144,1,,,5915e5c6405db80001f30ff1,61b910848dbc9169fb853a8c,2021-12-14_21h45.55.346,PRaM,2021.2.3,Win32,61.10601894,61b8f3437b89212fae0dfadf
5,1.5451,space,0.5518,0,118,118,52,1,,,5915e5c6405db80001f30ff1,61b910848dbc9169fb853a8c,2021-12-14_21h45.55.346,PRaM,2021.2.3,Win32,61.10601894,61b8f3437b89212fae0dfadf
2,2.6408,space,1.317,0,119,119,90,1,,,5915e5c6405db80001f30ff1,61b910848dbc9169fb853a8c,2021-12-14_21h45.55.346,PRaM,2021.2.3,Win32,61.10601894,61b8f3437b89212fae0dfadf
4,0.9791,space,0.0344,0,120,120,353,1,,,5915e5c6405db80001f30ff1,61b910848dbc9169fb853a8c,2021-12-14_21h45.55.346,PRaM,2021.2.3,Win32,61.10601894,61b8f3437b89212fae0dfadf
5,1.8882,space,0.4246,0,121,121,167,1,,,5915e5c6405db80001f30ff1,61b910848dbc9169fb853a8c,2021-12-14_21h45.55.346,PRaM,2021.2.3,Win32,61.10601894,61b8f3437b89212fae0dfadf
6,1.3226,space,0.018,0,122,122,41,1,,,5915e5c6405db80001f30ff1,61b910848dbc9169fb853a8c,2021-12-14_21h45.55.346,PRaM,2021.2.3,Win32,61.10601894,61b8f3437b89212fae0dfadf
3,1.3554,space,0.0346,0,123,123,156,1,,,5915e5c6405db80001f30ff1,61b910848dbc9169fb853a8c,2021-12-14_21h45.55.346,PRaM,2021.2.3,Win32,61.10601894,61b8f3437b89212fae0dfadf
7,1.0547,space,0.0431,0,124,124,367,1,,,5915e5c6405db80001f30ff1,61b910848dbc9169fb853a8c,2021-12-14_21h45.55.346,PRaM,2021.2.3,Win32,61.10601894,61b8f3437b89212fae0dfadf
3,1.2385,space,0.4337,0,125,125,303,1,,,5915e5c6405db80001f30ff1,61b910848dbc9169fb853a8c,2021-12-14_21h45.55.346,PRaM,2021.2.3,Win32,61.10601894,61b8f3437b89212fae0dfadf
5,1.7537,space,0.3531,0,126,126,299,1,,,5915e5c6405db80001f30ff1,61b910848dbc9169fb853a8c,2021-12-14_21h45.55.346,PRaM,2021.2.3,Win32,61.10601894,61b8f3437b89212fae0dfadf
6,1.2707,space,0.3336,0,127,127,108,1,,,5915e5c6405db80001f30ff1,61b910848dbc9169fb853a8c,2021-12-14_21h45.55.346,PRaM,2021.2.3,Win32,61.10601894,61b8f3437b89212fae0dfadf
6,4.1985,space,2.6834,0,128,128,316,1,,,5915e5c6405db80001f30ff1,61b910848dbc9169fb853a8c,2021-12-14_21h45.55.346,PRaM,2021.2.3,Win32,61.10601894,61b8f3437b89212fae0dfadf
5,1.3893,space,0.4822,0,129,129,355,1,,,5915e5c6405db80001f30ff1,61b910848dbc9169fb853a8c,2021-12-14_21h45.55.346,PRaM,2021.2.3,Win32,61.10601894,61b8f3437b89212fae0dfadf
7,3.6667,space,2.3753,0,130,130,262,1,,,5915e5c6405db80001f30ff1,61b910848dbc9169fb853a8c,2021-12-14_21h45.55.346,PRaM,2021.2.3,Win32,61.10601894,61b8f3437b89212fae0dfadf
4,2.7116,space,1.222,0,131,131,231,1,,,5915e5c6405db80001f30ff1,61b910848dbc9169fb853a8c,2021-12-14_21h45.55.346,PRaM,2021.2.3,Win32,61.10601894,61b8f3437b89212fae0dfadf
2,8.6526,space,7.5048,0,132,132,185,1,,,5915e5c6405db80001f30ff1,61b910848dbc9169fb853a8c,2021-12-14_21h45.55.346,PRaM,2021.2.3,Win32,61.10601894,61b8f3437b89212fae0dfadf
4,1.4434,space,0.3772,0,133,133,345,1,,,5915e5c6405db80001f30ff1,61b910848dbc9169fb853a8c,2021-12-14_21h45.55.346,PRaM,2021.2.3,Win32,61.10601894,61b8f3437b89212fae0dfadf
6,0.6633,space,0.468,0,134,134,163,1,,,5915e5c6405db80001f30ff1,61b910848dbc9169fb853a8c,2021-12-14_21h45.55.346,PRaM,2021.2.3,Win32,61.10601894,61b8f3437b89212fae0dfadf
3,1.3564,space,0.1874,0,135,135,252,1,,,5915e5c6405db80001f30ff1,61b910848dbc9169fb853a8c,2021-12-14_21h45.55.346,PRaM,2021.2.3,Win32,61.10601894,61b8f3437b89212fae0dfadf
6,2.946,space,1.3921,0,136,136,239,1,,,5915e5c6405db80001f30ff1,61b910848dbc9169fb853a8c,2021-12-14_21h45.55.346,PRaM,2021.2.3,Win32,61.10601894,61b8f3437b89212fae0dfadf
4,0.7618,space,0.3889,0,137,137,37,1,,,5915e5c6405db80001f30ff1,61b910848dbc9169fb853a8c,2021-12-14_21h45.55.346,PRaM,2021.2.3,Win32,61.10601894,61b8f3437b89212fae0dfadf
2,1.4533,space,0.1173,0,138,138,122,1,,,5915e5c6405db80001f30ff1,61b910848dbc9169fb853a8c,2021-12-14_21h45.55.346,PRaM,2021.2.3,Win32,61.10601894,61b8f3437b89212fae0dfadf
6,3.5358,space,2.0007,0,139,139,174,1,,,5915e5c6405db80001f30ff1,61b910848dbc9169fb853a8c,2021-12-14_21h45.55.346,PRaM,2021.2.3,Win32,61.10601894,61b8f3437b89212fae0dfadf
4,1.6885,space,0.152,0,140,140,103,1,,,5915e5c6405db80001f30ff1,61b910848dbc9169fb853a8c,2021-12-14_21h45.55.346,PRaM,2021.2.3,Win32,61.10601894,61b8f3437b89212fae0dfadf
6,7.8853,space,6.3872,0,141,141,68,1,,,5915e5c6405db80001f30ff1,61b910848dbc9169fb853a8c,2021-12-14_21h45.55.346,PRaM,2021.2.3,Win32,61.10601894,61b8f3437b89212fae0dfadf
4,0.9914,space,0.5013,0,142,142,222,1,,,5915e5c6405db80001f30ff1,61b910848dbc9169fb853a8c,2021-12-14_21h45.55.346,PRaM,2021.2.3,Win32,61.10601894,61b8f3437b89212fae0dfadf
7,2.4038,space,1.0912,0,143,143,306,1,,,5915e5c6405db80001f30ff1,61b910848dbc9169fb853a8c,2021-12-14_21h45.55.346,PRaM,2021.2.3,Win32,61.10601894,61b8f3437b89212fae0dfadf
6,0.9237,space,0.2842,0,144,144,340,1,,,5915e5c6405db80001f30ff1,61b910848dbc9169fb853a8c,2021-12-14_21h45.55.346,PRaM,2021.2.3,Win32,61.10601894,61b8f3437b89212fae0dfadf
5,1.039,space,0.3678,0,145,145,94,1,,,5915e5c6405db80001f30ff1,61b910848dbc9169fb853a8c,2021-12-14_21h45.55.346,PRaM,2021.2.3,Win32,61.10601894,61b8f3437b89212fae0dfadf
7,2.0795,space,0.9551,0,146,146,285,1,,,5915e5c6405db80001f30ff1,61b910848dbc9169fb853a8c,2021-12-14_21h45.55.346,PRaM,2021.2.3,Win32,61.10601894,61b8f3437b89212fae0dfadf
4,1.7048,space,0.4173,0,147,147,66,1,,,5915e5c6405db80001f30ff1,61b910848dbc9169fb853a8c,2021-12-14_21h45.55.346,PRaM,2021.2.3,Win32,61.10601894,61b8f3437b89212fae0dfadf
6,0.7755,space,0.2211,0,148,148,152,1,,,5915e5c6405db80001f30ff1,61b910848dbc9169fb853a8c,2021-12-14_21h45.55.346,PRaM,2021.2.3,Win32,61.10601894,61b8f3437b89212fae0dfadf
7,0.6944,space,0.7007,0,149,149,225,1,,,5915e5c6405db80001f30ff1,61b910848dbc9169fb853a8c,2021-12-14_21h45.55.346,PRaM,2021.2.3,Win32,61.10601894,61b8f3437b89212fae0dfadf
4,1.3553,space,0.1685,0,150,150,60,1,,,5915e5c6405db80001f30ff1,61b910848dbc9169fb853a8c,2021-12-14_21h45.55.346,PRaM,2021.2.3,Win32,61.10601894,61b8f3437b89212fae0dfadf
7,1.4052,space,0.0011,0,151,151,343,1,,,5915e5c6405db80001f30ff1,61b910848dbc9169fb853a8c,2021-12-14_21h45.55.346,PRaM,2021.2.3,Win32,61.10601894,61b8f3437b89212fae0dfadf
6,1.4718,space,0.2843,0,152,152,182,1,,,5915e5c6405db80001f30ff1,61b910848dbc9169fb853a8c,2021-12-14_21h45.55.346,PRaM,2021.2.3,Win32,61.10601894,61b8f3437b89212fae0dfadf
3,1.7741,space,0.5235,0,153,153,81,1,,,5915e5c6405db80001f30ff1,61b910848dbc9169fb853a8c,2021-12-14_21h45.55.346,PRaM,2021.2.3,Win32,61.10601894,61b8f3437b89212fae0dfadf
7,6.8812,space,5.6987,0,154,154,321,1,,,5915e5c6405db80001f30ff1,61b910848dbc9169fb853a8c,2021-12-14_21h45.55.346,PRaM,2021.2.3,Win32,61.10601894,61b8f3437b89212fae0dfadf
3,1.3096,space,0.1385,0,155,155,253,1,,,5915e5c6405db80001f30ff1,61b910848dbc9169fb853a8c,2021-12-14_21h45.55.346,PRaM,2021.2.3,Win32,61.10601894,61b8f3437b89212fae0dfadf
7,1.4712,space,0.0012,0,156,156,335,1,,,5915e5c6405db80001f30ff1,61b910848dbc9169fb853a8c,2021-12-14_21h45.55.346,PRaM,2021.2.3,Win32,61.10601894,61b8f3437b89212fae0dfadf
5,1.2709,space,0.6174,0,157,157,113,1,,,5915e5c6405db80001f30ff1,61b910848dbc9169fb853a8c,2021-12-14_21h45.55.346,PRaM,2021.2.3,Win32,61.10601894,61b8f3437b89212fae0dfadf
6,2.6624,space,1.0841,0,158,158,347,1,,,5915e5c6405db80001f30ff1,61b910848dbc9169fb853a8c,2021-12-14_21h45.55.346,PRaM,2021.2.3,Win32,61.10601894,61b8f3437b89212fae0dfadf
8,1.9045,space,0.3883,0,159,159,208,1,,,5915e5c6405db80001f30ff1,61b910848dbc9169fb853a8c,2021-12-14_21h45.55.346,PRaM,2021.2.3,Win32,61.10601894,61b8f3437b89212fae0dfadf
5,1.6543,space,0.0598,0,160,160,295,1,,,5915e5c6405db80001f30ff1,61b910848dbc9169fb853a8c,2021-12-14_21h45.55.346,PRaM,2021.2.3,Win32,61.10601894,61b8f3437b89212fae0dfadf
3,2.2057,space,0.8835,0,161,161,272,1,,,5915e5c6405db80001f30ff1,61b910848dbc9169fb853a8c,2021-12-14_21h45.55.346,PRaM,2021.2.3,Win32,61.10601894,61b8f3437b89212fae0dfadf
2,5.1718,space,4.0711,0,162,162,371,1,,,5915e5c6405db80001f30ff1,61b910848dbc9169fb853a8c,2021-12-14_21h45.55.346,PRaM,2021.2.3,Win32,61.10601894,61b8f3437b89212fae0dfadf
5,2.6883,space,1.1576,0,163,163,6,1,,,5915e5c6405db80001f30ff1,61b910848dbc9169fb853a8c,2021-12-14_21h45.55.346,PRaM,2021.2.3,Win32,61.10601894,61b8f3437b89212fae0dfadf
2,2.5669,space,1.5015,0,164,164,273,1,,,5915e5c6405db80001f30ff1,61b910848dbc9169fb853a8c,2021-12-14_21h45.55.346,PRaM,2021.2.3,Win32,61.10601894,61b8f3437b89212fae0dfadf
7,1.6543,space,0.1347,0,165,165,3,1,,,5915e5c6405db80001f30ff1,61b910848dbc9169fb853a8c,2021-12-14_21h45.55.346,PRaM,2021.2.3,Win32,61.10601894,61b8f3437b89212fae0dfadf
4,1.5749,space,2.5003,0,166,166,104,1,,,5915e5c6405db80001f30ff1,61b910848dbc9169fb853a8c,2021-12-14_21h45.55.346,PRaM,2021.2.3,Win32,61.10601894,61b8f3437b89212fae0dfadf
3,1.7959,space,0.2343,0,167,167,357,1,,,5915e5c6405db80001f30ff1,61b910848dbc9169fb853a8c,2021-12-14_21h45.55.346,PRaM,2021.2.3,Win32,61.10601894,61b8f3437b89212fae0dfadf
2,2.5053,space,1.0683,0,168,168,87,1,,,5915e5c6405db80001f30ff1,61b910848dbc9169fb853a8c,2021-12-14_21h45.55.346,PRaM,2021.2.3,Win32,61.10601894,61b8f3437b89212fae0dfadf
6,8.646,space,7.2692,0,169,169,56,1,,,5915e5c6405db80001f30ff1,61b910848dbc9169fb853a8c,2021-12-14_21h45.55.346,PRaM,2021.2.3,Win32,61.10601894,61b8f3437b89212fae0dfadf
3,3.6438,space,2.3338,0,170,170,275,1,,,5915e5c6405db80001f30ff1,61b910848dbc9169fb853a8c,2021-12-14_21h45.55.346,PRaM,2021.2.3,Win32,61.10601894,61b8f3437b89212fae0dfadf
2,3.1867,space,1.8515,0,171,171,29,1,,,5915e5c6405db80001f30ff1,61b910848dbc9169fb853a8c,2021-12-14_21h45.55.346,PRaM,2021.2.3,Win32,61.10601894,61b8f3437b89212fae0dfadf
6,1.3859,space,1.0168,0,172,172,332,1,,,5915e5c6405db80001f30ff1,61b910848dbc9169fb853a8c,2021-12-14_21h45.55.346,PRaM,2021.2.3,Win32,61.10601894,61b8f3437b89212fae0dfadf
7,1.3886,space,1.4397,0,173,173,125,1,,,5915e5c6405db80001f30ff1,61b910848dbc9169fb853a8c,2021-12-14_21h45.55.346,PRaM,2021.2.3,Win32,61.10601894,61b8f3437b89212fae0dfadf
5,2.109,space,0.5841,0,174,174,26,1,,,5915e5c6405db80001f30ff1,61b910848dbc9169fb853a8c,2021-12-14_21h45.55.346,PRaM,2021.2.3,Win32,61.10601894,61b8f3437b89212fae0dfadf
6,1.472,space,0.4512,0,175,175,12,1,,,5915e5c6405db80001f30ff1,61b910848dbc9169fb853a8c,2021-12-14_21h45.55.346,PRaM,2021.2.3,Win32,61.10601894,61b8f3437b89212fae0dfadf
7,1.1031,space,0.2679,0,176,176,279,1,,,5915e5c6405db80001f30ff1,61b910848dbc9169fb853a8c,2021-12-14_21h45.55.346,PRaM,2021.2.3,Win32,61.10601894,61b8f3437b89212fae0dfadf
7,1.3562,space,0.3047,0,177,177,109,1,,,5915e5c6405db80001f30ff1,61b910848dbc9169fb853a8c,2021-12-14_21h45.55.346,PRaM,2021.2.3,Win32,61.10601894,61b8f3437b89212fae0dfadf
1,29.347,space,27.9946,0,178,178,50,1,,,5915e5c6405db80001f30ff1,61b910848dbc9169fb853a8c,2021-12-14_21h45.55.346,PRaM,2021.2.3,Win32,61.10601894,61b8f3437b89212fae0dfadf
5,2.155,space,0.8498,0,179,179,242,1,,,5915e5c6405db80001f30ff1,61b910848dbc9169fb853a8c,2021-12-14_21h45.55.346,PRaM,2021.2.3,Win32,61.10601894,61b8f3437b89212fae0dfadf
2,62.5513,space,62.3043,0,180,180,157,1,,,5915e5c6405db80001f30ff1,61b910848dbc9169fb853a8c,2021-12-14_21h45.55.346,PRaM,2021.2.3,Win32,61.10601894,61b8f3437b89212fae0dfadf
7,1.4588,space,0.0406,0,181,181,325,1,,,5915e5c6405db80001f30ff1,61b910848dbc9169fb853a8c,2021-12-14_21h45.55.346,PRaM,2021.2.3,Win32,61.10601894,61b8f3437b89212fae0dfadf
6,1.309,space,0.634,0,182,182,305,1,,,5915e5c6405db80001f30ff1,61b910848dbc9169fb853a8c,2021-12-14_21h45.55.346,PRaM,2021.2.3,Win32,61.10601894,61b8f3437b89212fae0dfadf
3,2.6046,space,1.2188,0,183,183,218,1,,,5915e5c6405db80001f30ff1,61b910848dbc9169fb853a8c,2021-12-14_21h45.55.346,PRaM,2021.2.3,Win32,61.10601894,61b8f3437b89212fae0dfadf
2,1.9543,space,0.7089,0,184,184,92,1,,,5915e5c6405db80001f30ff1,61b910848dbc9169fb853a8c,2021-12-14_21h45.55.346,PRaM,2021.2.3,Win32,61.10601894,61b8f3437b89212fae0dfadf
7,1.8217,space,0.3344,0,185,185,264,1,,,5915e5c6405db80001f30ff1,61b910848dbc9169fb853a8c,2021-12-14_21h45.55.346,PRaM,2021.2.3,Win32,61.10601894,61b8f3437b89212fae0dfadf
4,1.952,space,0.5725,0,186,186,159,1,,,5915e5c6405db80001f30ff1,61b910848dbc9169fb853a8c,2021-12-14_21h45.55.346,PRaM,2021.2.3,Win32,61.10601894,61b8f3437b89212fae0dfadf
3,3.2672,space,1.7336,0,187,187,330,1,,,5915e5c6405db80001f30ff1,61b910848dbc9169fb853a8c,2021-12-14_21h45.55.346,PRaM,2021.2.3,Win32,61.10601894,61b8f3437b89212fae0dfadf
7,1.5726,space,0.1351,0,188,188,358,1,,,5915e5c6405db80001f30ff1,61b910848dbc9169fb853a8c,2021-12-14_21h45.55.346,PRaM,2021.2.3,Win32,61.10601894,61b8f3437b89212fae0dfadf
7,4.2527,space,2.9167,0,189,189,276,1,,,5915e5c6405db80001f30ff1,61b910848dbc9169fb853a8c,2021-12-14_21h45.55.346,PRaM,2021.2.3,Win32,61.10601894,61b8f3437b89212fae0dfadf
6,1.4707,space,0.9696,0,190,190,334,1,,,5915e5c6405db80001f30ff1,61b910848dbc9169fb853a8c,2021-12-14_21h45.55.346,PRaM,2021.2.3,Win32,61.10601894,61b8f3437b89212fae0dfadf
3,1.887,space,0.3368,0,191,191,130,1,,,5915e5c6405db80001f30ff1,61b910848dbc9169fb853a8c,2021-12-14_21h45.55.346,PRaM,2021.2.3,Win32,61.10601894,61b8f3437b89212fae0dfadf
7,12.9104,space,11.4329,0,192,192,181,1,,,5915e5c6405db80001f30ff1,61b910848dbc9169fb853a8c,2021-12-14_21h45.55.346,PRaM,2021.2.3,Win32,61.10601894,61b8f3437b89212fae0dfadf
2,1.2318,space,1.0033,0,193,193,265,1,,,5915e5c6405db80001f30ff1,61b910848dbc9169fb853a8c,2021-12-14_21h45.55.346,PRaM,2021.2.3,Win32,61.10601894,61b8f3437b89212fae0dfadf
6,1.4277,space,0.5179,0,194,194,213,1,,,5915e5c6405db80001f30ff1,61b910848dbc9169fb853a8c,2021-12-14_21h45.55.346,PRaM,2021.2.3,Win32,61.10601894,61b8f3437b89212fae0dfadf
3,1.4642,space,0.0411,0,195,195,241,1,,,5915e5c6405db80001f30ff1,61b910848dbc9169fb853a8c,2021-12-14_21h45.55.346,PRaM,2021.2.3,Win32,61.10601894,61b8f3437b89212fae0dfadf
5,1.0971,space,0.2193,0,196,196,234,1,,,5915e5c6405db80001f30ff1,61b910848dbc9169fb853a8c,2021-12-14_21h45.55.346,PRaM,2021.2.3,Win32,61.10601894,61b8f3437b89212fae0dfadf
7,1.5208,space,0.0435,0,197,197,71,1,,,5915e5c6405db80001f30ff1,61b910848dbc9169fb853a8c,2021-12-14_21h45.55.346,PRaM,2021.2.3,Win32,61.10601894,61b8f3437b89212fae0dfadf
3,1.519,space,0.5371,0,198,198,342,1,,,5915e5c6405db80001f30ff1,61b910848dbc9169fb853a8c,2021-12-14_21h45.55.346,PRaM,2021.2.3,Win32,61.10601894,61b8f3437b89212fae0dfadf
5,1.4269,space,0.3079,0,199,199,11,1,,,5915e5c6405db80001f30ff1,61b910848dbc9169fb853a8c,2021-12-14_21h45.55.346,PRaM,2021.2.3,Win32,61.10601894,61b8f3437b89212fae0dfadf
4,1.6242,space,0.0011,0,200,200,129,1,,,5915e5c6405db80001f30ff1,61b910848dbc9169fb853a8c,2021-12-14_21h45.55.346,PRaM,2021.2.3,Win32,61.10601894,61b8f3437b89212fae0dfadf
7,2.3564,space,0.8346,0,201,201,97,1,,,5915e5c6405db80001f30ff1,61b910848dbc9169fb853a8c,2021-12-14_21h45.55.346,PRaM,2021.2.3,Win32,61.10601894,61b8f3437b89212fae0dfadf
8,1.7695,space,0.2004,0,202,202,244,1,,,5915e5c6405db80001f30ff1,61b910848dbc9169fb853a8c,2021-12-14_21h45.55.346,PRaM,2021.2.3,Win32,61.10601894,61b8f3437b89212fae0dfadf
5,2.7872,space,1.1497,0,203,203,44,1,,,5915e5c6405db80001f30ff1,61b910848dbc9169fb853a8c,2021-12-14_21h45.55.346,PRaM,2021.2.3,Win32,61.10601894,61b8f3437b89212fae0dfadf
4,1.486,space,0.5335,0,204,204,360,1,,,5915e5c6405db80001f30ff1,61b910848dbc9169fb853a8c,2021-12-14_21h45.55.346,PRaM,2021.2.3,Win32,61.10601894,61b8f3437b89212fae0dfadf
7,1.772,space,0.1835,0,205,205,61,1,,,5915e5c6405db80001f30ff1,61b910848dbc9169fb853a8c,2021-12-14_21h45.55.346,PRaM,2021.2.3,Win32,61.10601894,61b8f3437b89212fae0dfadf
8,1.2973,space,0.238,0,206,206,247,1,,,5915e5c6405db80001f30ff1,61b910848dbc9169fb853a8c,2021-12-14_21h45.55.346,PRaM,2021.2.3,Win32,61.10601894,61b8f3437b89212fae0dfadf
5,2.2206,space,0.6012,0,207,207,318,1,,,5915e5c6405db80001f30ff1,61b910848dbc9169fb853a8c,2021-12-14_21h45.55.346,PRaM,2021.2.3,Win32,61.10601894,61b8f3437b89212fae0dfadf
6,2.2407,space,0.6,0,208,208,179,1,,,5915e5c6405db80001f30ff1,61b910848dbc9169fb853a8c,2021-12-14_21h45.55.346,PRaM,2021.2.3,Win32,61.10601894,61b8f3437b89212fae0dfadf
6,0.8716,space,0.7503,0,209,209,348,1,,,5915e5c6405db80001f30ff1,61b910848dbc9169fb853a8c,2021-12-14_21h45.55.346,PRaM,2021.2.3,Win32,61.10601894,61b8f3437b89212fae0dfadf
7,1.5877,space,0.8676,0,210,210,33,1,,,5915e5c6405db80001f30ff1,61b910848dbc9169fb853a8c,2021-12-14_21h45.55.346,PRaM,2021.2.3,Win32,61.10601894,61b8f3437b89212fae0dfadf
7,0.7369,space,0.2899,0,211,211,192,1,,,5915e5c6405db80001f30ff1,61b910848dbc9169fb853a8c,2021-12-14_21h45.55.346,PRaM,2021.2.3,Win32,61.10601894,61b8f3437b89212fae0dfadf
7,0.9216,space,0.09,0,212,212,85,1,,,5915e5c6405db80001f30ff1,61b910848dbc9169fb853a8c,2021-12-14_21h45.55.346,PRaM,2021.2.3,Win32,61.10601894,61b8f3437b89212fae0dfadf
7,6.6801,space,5.1213,0,213,213,43,1,,,5915e5c6405db80001f30ff1,61b910848dbc9169fb853a8c,2021-12-14_21h45.55.346,PRaM,2021.2.3,Win32,61.10601894,61b8f3437b89212fae0dfadf
8,0.7268,space,0.0013,0,214,214,112,1,,,5915e5c6405db80001f30ff1,61b910848dbc9169fb853a8c,2021-12-14_21h45.55.346,PRaM,2021.2.3,Win32,61.10601894,61b8f3437b89212fae0dfadf
7,0.6224,space,0.5422,0,215,215,5,1,,,5915e5c6405db80001f30ff1,61b910848dbc9169fb853a8c,2021-12-14_21h45.55.346,PRaM,2021.2.3,Win32,61.10601894,61b8f3437b89212fae0dfadf
7,2.2065,space,0.3671,0,216,216,115,1,,,5915e5c6405db80001f30ff1,61b910848dbc9169fb853a8c,2021-12-14_21h45.55.346,PRaM,2021.2.3,Win32,61.10601894,61b8f3437b89212fae0dfadf
7,1.1582,space,0.0012,0,217,217,377,1,,,5915e5c6405db80001f30ff1,61b910848dbc9169fb853a8c,2021-12-14_21h45.55.346,PRaM,2021.2.3,Win32,61.10601894,61b8f3437b89212fae0dfadf
6,1.5885,space,0.4225,0,218,218,75,1,,,5915e5c6405db80001f30ff1,61b910848dbc9169fb853a8c,2021-12-14_21h45.55.346,PRaM,2021.2.3,Win32,61.10601894,61b8f3437b89212fae0dfadf
6,1.1626,space,0.0406,0,219,219,70,1,,,5915e5c6405db80001f30ff1,61b910848dbc9169fb853a8c,2021-12-14_21h45.55.346,PRaM,2021.2.3,Win32,61.10601894,61b8f3437b89212fae0dfadf
8,3.8936,space,2.4001,0,220,220,350,1,,,5915e5c6405db80001f30ff1,61b910848dbc9169fb853a8c,2021-12-14_21h45.55.346,PRaM,2021.2.3,Win32,61.10601894,61b8f3437b89212fae0dfadf
7,1.5223,space,0.3687,0,221,221,110,1,,,5915e5c6405db80001f30ff1,61b910848dbc9169fb853a8c,2021-12-14_21h45.55.346,PRaM,2021.2.3,Win32,61.10601894,61b8f3437b89212fae0dfadf
5,1.388,space,0.5048,0,222,222,80,1,,,5915e5c6405db80001f30ff1,61b910848dbc9169fb853a8c,2021-12-14_21h45.55.346,PRaM,2021.2.3,Win32,61.10601894,61b8f3437b89212fae0dfadf
6,1.204,space,193.1308,0,223,223,177,1,,,5915e5c6405db80001f30ff1,61b910848dbc9169fb853a8c,2021-12-14_21h45.55.346,PRaM,2021.2.3,Win32,61.10601894,61b8f3437b89212fae0dfadf
,,space,186.4481,0,224,224,7,1,,,5915e5c6405db80001f30ff1,61b910848dbc9169fb853a8c,2021-12-14_21h45.55.346,PRaM,2021.2.3,Win32,61.10601894,61b8f3437b89212fae0dfadf
5,0.9295,space,1.1387,0,225,225,8,1,,,5915e5c6405db80001f30ff1,61b910848dbc9169fb853a8c,2021-12-14_21h45.55.346,PRaM,2021.2.3,Win32,61.10601894,61b8f3437b89212fae0dfadf
4,1.1389,space,0.3184,0,226,226,217,1,,,5915e5c6405db80001f30ff1,61b910848dbc9169fb853a8c,2021-12-14_21h45.55.346,PRaM,2021.2.3,Win32,61.10601894,61b8f3437b89212fae0dfadf
6,0.7877,space,1.0328,0,227,227,216,1,,,5915e5c6405db80001f30ff1,61b910848dbc9169fb853a8c,2021-12-14_21h45.55.346,PRaM,2021.2.3,Win32,61.10601894,61b8f3437b89212fae0dfadf
3,0.9967,space,0.0732,0,228,228,364,1,,,5915e5c6405db80001f30ff1,61b910848dbc9169fb853a8c,2021-12-14_21h45.55.346,PRaM,2021.2.3,Win32,61.10601894,61b8f3437b89212fae0dfadf
5,0.711,space,0.3402,0,229,229,369,1,,,5915e5c6405db80001f30ff1,61b910848dbc9169fb853a8c,2021-12-14_21h45.55.346,PRaM,2021.2.3,Win32,61.10601894,61b8f3437b89212fae0dfadf
7,0.8388,space,0.7677,0,230,230,201,1,,,5915e5c6405db80001f30ff1,61b910848dbc9169fb853a8c,2021-12-14_21h45.55.346,PRaM,2021.2.3,Win32,61.10601894,61b8f3437b89212fae0dfadf
3,0.7899,space,2.3172,0,231,231,123,1,,,5915e5c6405db80001f30ff1,61b910848dbc9169fb853a8c,2021-12-14_21h45.55.346,PRaM,2021.2.3,Win32,61.10601894,61b8f3437b89212fae0dfadf
5,0.6523,space,0.3594,0,232,232,207,1,,,5915e5c6405db80001f30ff1,61b910848dbc9169fb853a8c,2021-12-14_21h45.55.346,PRaM,2021.2.3,Win32,61.10601894,61b8f3437b89212fae0dfadf
3,1.0041,space,0.0348,0,233,233,164,1,,,5915e5c6405db80001f30ff1,61b910848dbc9169fb853a8c,2021-12-14_21h45.55.346,PRaM,2021.2.3,Win32,61.10601894,61b8f3437b89212fae0dfadf
5,1.3029,space,2.1326,0,234,234,260,1,,,5915e5c6405db80001f30ff1,61b910848dbc9169fb853a8c,2021-12-14_21h45.55.346,PRaM,2021.2.3,Win32,61.10601894,61b8f3437b89212fae0dfadf
6,0.6942,space,0.6685,0,235,235,21,1,,,5915e5c6405db80001f30ff1,61b910848dbc9169fb853a8c,2021-12-14_21h45.55.346,PRaM,2021.2.3,Win32,61.10601894,61b8f3437b89212fae0dfadf
5,0.7211,space,0.2172,0,236,236,100,1,,,5915e5c6405db80001f30ff1,61b910848dbc9169fb853a8c,2021-12-14_21h45.55.346,PRaM,2021.2.3,Win32,61.10601894,61b8f3437b89212fae0dfadf
4,0.8409,space,0.118,0,237,237,28,1,,,5915e5c6405db80001f30ff1,61b910848dbc9169fb853a8c,2021-12-14_21h45.55.346,PRaM,2021.2.3,Win32,61.10601894,61b8f3437b89212fae0dfadf
7,2.9655,space,1.4175,0,238,238,286,1,,,5915e5c6405db80001f30ff1,61b910848dbc9169fb853a8c,2021-12-14_21h45.55.346,PRaM,2021.2.3,Win32,61.10601894,61b8f3437b89212fae0dfadf
3,1.6566,space,0.0339,0,239,239,199,1,,,5915e5c6405db80001f30ff1,61b910848dbc9169fb853a8c,2021-12-14_21h45.55.346,PRaM,2021.2.3,Win32,61.10601894,61b8f3437b89212fae0dfadf
5,0.7766,space,0.4669,0,240,240,98,1,,,5915e5c6405db80001f30ff1,61b910848dbc9169fb853a8c,2021-12-14_21h45.55.346,PRaM,2021.2.3,Win32,61.10601894,61b8f3437b89212fae0dfadf
4,1.5039,space,0.521,0,241,241,135,1,,,5915e5c6405db80001f30ff1,61b910848dbc9169fb853a8c,2021-12-14_21h45.55.346,PRaM,2021.2.3,Win32,61.10601894,61b8f3437b89212fae0dfadf
5,1.3545,space,0.2513,0,242,242,301,1,,,5915e5c6405db80001f30ff1,61b910848dbc9169fb853a8c,2021-12-14_21h45.55.346,PRaM,2021.2.3,Win32,61.10601894,61b8f3437b89212fae0dfadf
5,0.6786,space,0.2205,0,243,243,227,1,,,5915e5c6405db80001f30ff1,61b910848dbc9169fb853a8c,2021-12-14_21h45.55.346,PRaM,2021.2.3,Win32,61.10601894,61b8f3437b89212fae0dfadf
3,1.9387,space,0.5015,0,244,244,195,1,,,5915e5c6405db80001f30ff1,61b910848dbc9169fb853a8c,2021-12-14_21h45.55.346,PRaM,2021.2.3,Win32,61.10601894,61b8f3437b89212fae0dfadf
5,1.0606,space,0.2265,0,245,245,203,1,,,5915e5c6405db80001f30ff1,61b910848dbc9169fb853a8c,2021-12-14_21h45.55.346,PRaM,2021.2.3,Win32,61.10601894,61b8f3437b89212fae0dfadf
3,0.6085,space,0.3338,0,246,246,266,1,,,5915e5c6405db80001f30ff1,61b910848dbc9169fb853a8c,2021-12-14_21h45.55.346,PRaM,2021.2.3,Win32,61.10601894,61b8f3437b89212fae0dfadf
7,0.5469,space,0.1533,0,247,247,344,1,,,5915e5c6405db80001f30ff1,61b910848dbc9169fb853a8c,2021-12-14_21h45.55.346,PRaM,2021.2.3,Win32,61.10601894,61b8f3437b89212fae0dfadf
7,1.5737,space,0.1841,0,248,248,302,1,,,5915e5c6405db80001f30ff1,61b910848dbc9169fb853a8c,2021-12-14_21h45.55.346,PRaM,2021.2.3,Win32,61.10601894,61b8f3437b89212fae0dfadf
3,1.0392,space,0.039,0,249,249,256,1,,,5915e5c6405db80001f30ff1,61b910848dbc9169fb853a8c,2021-12-14_21h45.55.346,PRaM,2021.2.3,Win32,61.10601894,61b8f3437b89212fae0dfadf
6,1.8236,space,0.0509,0,250,250,219,1,,,5915e5c6405db80001f30ff1,61b910848dbc9169fb853a8c,2021-12-14_21h45.55.346,PRaM,2021.2.3,Win32,61.10601894,61b8f3437b89212fae0dfadf
6,1.4884,space,0.2203,0,251,251,147,1,,,5915e5c6405db80001f30ff1,61b910848dbc9169fb853a8c,2021-12-14_21h45.55.346,PRaM,2021.2.3,Win32,61.10601894,61b8f3437b89212fae0dfadf
6,0.579,space,0.1518,0,252,252,47,1,,,5915e5c6405db80001f30ff1,61b910848dbc9169fb853a8c,2021-12-14_21h45.55.346,PRaM,2021.2.3,Win32,61.10601894,61b8f3437b89212fae0dfadf
3,1.3401,space,0.1433,0,253,253,368,1,,,5915e5c6405db80001f30ff1,61b910848dbc9169fb853a8c,2021-12-14_21h45.55.346,PRaM,2021.2.3,Win32,61.10601894,61b8f3437b89212fae0dfadf
3,1.9134,space,0.3821,0,254,254,211,1,,,5915e5c6405db80001f30ff1,61b910848dbc9169fb853a8c,2021-12-14_21h45.55.346,PRaM,2021.2.3,Win32,61.10601894,61b8f3437b89212fae0dfadf
4,1.4046,space,0.2411,0,255,255,349,1,,,5915e5c6405db80001f30ff1,61b910848dbc9169fb853a8c,2021-12-14_21h45.55.346,PRaM,2021.2.3,Win32,61.10601894,61b8f3437b89212fae0dfadf
3,0.4729,space,0.301,0,256,256,298,1,,,5915e5c6405db80001f30ff1,61b910848dbc9169fb853a8c,2021-12-14_21h45.55.346,PRaM,2021.2.3,Win32,61.10601894,61b8f3437b89212fae0dfadf
5,0.7124,space,0.1344,0,257,257,95,1,,,5915e5c6405db80001f30ff1,61b910848dbc9169fb853a8c,2021-12-14_21h45.55.346,PRaM,2021.2.3,Win32,61.10601894,61b8f3437b89212fae0dfadf
4,1.0945,space,0.9377,0,258,258,288,1,,,5915e5c6405db80001f30ff1,61b910848dbc9169fb853a8c,2021-12-14_21h45.55.346,PRaM,2021.2.3,Win32,61.10601894,61b8f3437b89212fae0dfadf
7,1.4938,space,0.4557,0,259,259,243,1,,,5915e5c6405db80001f30ff1,61b910848dbc9169fb853a8c,2021-12-14_21h45.55.346,PRaM,2021.2.3,Win32,61.10601894,61b8f3437b89212fae0dfadf
7,1.6707,space,0.4245,0,260,260,206,1,,,5915e5c6405db80001f30ff1,61b910848dbc9169fb853a8c,2021-12-14_21h45.55.346,PRaM,2021.2.3,Win32,61.10601894,61b8f3437b89212fae0dfadf
7,1.2385,space,0.2055,0,261,261,317,1,,,5915e5c6405db80001f30ff1,61b910848dbc9169fb853a8c,2021-12-14_21h45.55.346,PRaM,2021.2.3,Win32,61.10601894,61b8f3437b89212fae0dfadf
6,0.4965,space,0.3842,0,262,262,221,1,,,5915e5c6405db80001f30ff1,61b910848dbc9169fb853a8c,2021-12-14_21h45.55.346,PRaM,2021.2.3,Win32,61.10601894,61b8f3437b89212fae0dfadf
7,0.7211,space,0.1377,0,263,263,224,1,,,5915e5c6405db80001f30ff1,61b910848dbc9169fb853a8c,2021-12-14_21h45.55.346,PRaM,2021.2.3,Win32,61.10601894,61b8f3437b89212fae0dfadf
7,0.9917,space,0.9668,0,264,264,365,1,,,5915e5c6405db80001f30ff1,61b910848dbc9169fb853a8c,2021-12-14_21h45.55.346,PRaM,2021.2.3,Win32,61.10601894,61b8f3437b89212fae0dfadf
6,3.2448,space,2.1165,0,265,265,143,1,,,5915e5c6405db80001f30ff1,61b910848dbc9169fb853a8c,2021-12-14_21h45.55.346,PRaM,2021.2.3,Win32,61.10601894,61b8f3437b89212fae0dfadf
3,1.8299,space,0.1409,0,266,266,64,1,,,5915e5c6405db80001f30ff1,61b910848dbc9169fb853a8c,2021-12-14_21h45.55.346,PRaM,2021.2.3,Win32,61.10601894,61b8f3437b89212fae0dfadf
7,1.7542,space,0.0897,0,267,267,0,1,,,5915e5c6405db80001f30ff1,61b910848dbc9169fb853a8c,2021-12-14_21h45.55.346,PRaM,2021.2.3,Win32,61.10601894,61b8f3437b89212fae0dfadf
7,2.7742,space,1.8175,0,268,268,160,1,,,5915e5c6405db80001f30ff1,61b910848dbc9169fb853a8c,2021-12-14_21h45.55.346,PRaM,2021.2.3,Win32,61.10601894,61b8f3437b89212fae0dfadf
7,0.9384,space,0.2236,0,269,269,370,1,,,5915e5c6405db80001f30ff1,61b910848dbc9169fb853a8c,2021-12-14_21h45.55.346,PRaM,2021.2.3,Win32,61.10601894,61b8f3437b89212fae0dfadf
7,0.8049,space,0.1511,0,270,270,83,1,,,5915e5c6405db80001f30ff1,61b910848dbc9169fb853a8c,2021-12-14_21h45.55.346,PRaM,2021.2.3,Win32,61.10601894,61b8f3437b89212fae0dfadf
7,0.724,space,0.1348,0,271,271,136,1,,,5915e5c6405db80001f30ff1,61b910848dbc9169fb853a8c,2021-12-14_21h45.55.346,PRaM,2021.2.3,Win32,61.10601894,61b8f3437b89212fae0dfadf
7,0.8464,space,0.0701,0,272,272,270,1,,,5915e5c6405db80001f30ff1,61b910848dbc9169fb853a8c,2021-12-14_21h45.55.346,PRaM,2021.2.3,Win32,61.10601894,61b8f3437b89212fae0dfadf
8,0.5544,space,0.52,0,273,273,139,1,,,5915e5c6405db80001f30ff1,61b910848dbc9169fb853a8c,2021-12-14_21h45.55.346,PRaM,2021.2.3,Win32,61.10601894,61b8f3437b89212fae0dfadf
5,2.5226,space,0.7014,0,274,274,79,1,,,5915e5c6405db80001f30ff1,61b910848dbc9169fb853a8c,2021-12-14_21h45.55.346,PRaM,2021.2.3,Win32,61.10601894,61b8f3437b89212fae0dfadf
5,1.9594,space,0.1512,0,275,275,48,1,,,5915e5c6405db80001f30ff1,61b910848dbc9169fb853a8c,2021-12-14_21h45.55.346,PRaM,2021.2.3,Win32,61.10601894,61b8f3437b89212fae0dfadf
5,1.9211,space,0.0355,0,276,276,54,1,,,5915e5c6405db80001f30ff1,61b910848dbc9169fb853a8c,2021-12-14_21h45.55.346,PRaM,2021.2.3,Win32,61.10601894,61b8f3437b89212fae0dfadf
6,2.7697,space,0.9518,0,277,277,51,1,,,5915e5c6405db80001f30ff1,61b910848dbc9169fb853a8c,2021-12-14_21h45.55.346,PRaM,2021.2.3,Win32,61.10601894,61b8f3437b89212fae0dfadf
6,1.462,space,0.1525,0,278,278,2,1,,,5915e5c6405db80001f30ff1,61b910848dbc9169fb853a8c,2021-12-14_21h45.55.346,PRaM,2021.2.3,Win32,61.10601894,61b8f3437b89212fae0dfadf
6,1.8714,space,0.168,0,279,279,173,1,,,5915e5c6405db80001f30ff1,61b910848dbc9169fb853a8c,2021-12-14_21h45.55.346,PRaM,2021.2.3,Win32,61.10601894,61b8f3437b89212fae0dfadf
6,1.8369,space,0.217,0,280,280,55,1,,,5915e5c6405db80001f30ff1,61b910848dbc9169fb853a8c,2021-12-14_21h45.55.346,PRaM,2021.2.3,Win32,61.10601894,61b8f3437b89212fae0dfadf
5,1.4201,space,0.467,0,281,281,300,1,,,5915e5c6405db80001f30ff1,61b910848dbc9169fb853a8c,2021-12-14_21h45.55.346,PRaM,2021.2.3,Win32,61.10601894,61b8f3437b89212fae0dfadf
7,1.9709,space,0.3507,0,282,282,289,1,,,5915e5c6405db80001f30ff1,61b910848dbc9169fb853a8c,2021-12-14_21h45.55.346,PRaM,2021.2.3,Win32,61.10601894,61b8f3437b89212fae0dfadf
7,1.8388,space,0.0852,0,283,283,40,1,,,5915e5c6405db80001f30ff1,61b910848dbc9169fb853a8c,2021-12-14_21h45.55.346,PRaM,2021.2.3,Win32,61.10601894,61b8f3437b89212fae0dfadf
3,2.0376,space,0.1593,0,284,284,324,1,,,5915e5c6405db80001f30ff1,61b910848dbc9169fb853a8c,2021-12-14_21h45.55.346,PRaM,2021.2.3,Win32,61.10601894,61b8f3437b89212fae0dfadf
8,1.972,space,0.9015,0,285,285,197,1,,,5915e5c6405db80001f30ff1,61b910848dbc9169fb853a8c,2021-12-14_21h45.55.346,PRaM,2021.2.3,Win32,61.10601894,61b8f3437b89212fae0dfadf
6,1.5703,space,0.0173,0,286,286,140,1,,,5915e5c6405db80001f30ff1,61b910848dbc9169fb853a8c,2021-12-14_21h45.55.346,PRaM,2021.2.3,Win32,61.10601894,61b8f3437b89212fae0dfadf
4,1.2876,space,0.4544,0,287,287,99,1,,,5915e5c6405db80001f30ff1,61b910848dbc9169fb853a8c,2021-12-14_21h45.55.346,PRaM,2021.2.3,Win32,61.10601894,61b8f3437b89212fae0dfadf
8,2.0226,space,0.4341,0,288,288,134,1,,,5915e5c6405db80001f30ff1,61b910848dbc9169fb853a8c,2021-12-14_21h45.55.346,PRaM,2021.2.3,Win32,61.10601894,61b8f3437b89212fae0dfadf
2,1.3798,space,1.0337,0,289,289,158,1,,,5915e5c6405db80001f30ff1,61b910848dbc9169fb853a8c,2021-12-14_21h45.55.346,PRaM,2021.2.3,Win32,61.10601894,61b8f3437b89212fae0dfadf
5,1.4791,space,0.5341,0,290,290,327,1,,,5915e5c6405db80001f30ff1,61b910848dbc9169fb853a8c,2021-12-14_21h45.55.346,PRaM,2021.2.3,Win32,61.10601894,61b8f3437b89212fae0dfadf
4,2.0615,space,0.5744,0,291,291,259,1,,,5915e5c6405db80001f30ff1,61b910848dbc9169fb853a8c,2021-12-14_21h45.55.346,PRaM,2021.2.3,Win32,61.10601894,61b8f3437b89212fae0dfadf
5,2.4875,space,1.0668,0,292,292,304,1,,,5915e5c6405db80001f30ff1,61b910848dbc9169fb853a8c,2021-12-14_21h45.55.346,PRaM,2021.2.3,Win32,61.10601894,61b8f3437b89212fae0dfadf
3,1.5721,space,0.1046,0,293,293,255,1,,,5915e5c6405db80001f30ff1,61b910848dbc9169fb853a8c,2021-12-14_21h45.55.346,PRaM,2021.2.3,Win32,61.10601894,61b8f3437b89212fae0dfadf
4,1.6717,space,0.2571,0,294,294,168,1,,,5915e5c6405db80001f30ff1,61b910848dbc9169fb853a8c,2021-12-14_21h45.55.346,PRaM,2021.2.3,Win32,61.10601894,61b8f3437b89212fae0dfadf
4,3.5852,space,1.9838,0,295,295,341,1,,,5915e5c6405db80001f30ff1,61b910848dbc9169fb853a8c,2021-12-14_21h45.55.346,PRaM,2021.2.3,Win32,61.10601894,61b8f3437b89212fae0dfadf
6,1.2221,space,0.4381,0,296,296,23,1,,,5915e5c6405db80001f30ff1,61b910848dbc9169fb853a8c,2021-12-14_21h45.55.346,PRaM,2021.2.3,Win32,61.10601894,61b8f3437b89212fae0dfadf
3,1.2713,space,0.4679,0,297,297,146,1,,,5915e5c6405db80001f30ff1,61b910848dbc9169fb853a8c,2021-12-14_21h45.55.346,PRaM,2021.2.3,Win32,61.10601894,61b8f3437b89212fae0dfadf
6,1.6215,space,0.4337,0,298,298,89,1,,,5915e5c6405db80001f30ff1,61b910848dbc9169fb853a8c,2021-12-14_21h45.55.346,PRaM,2021.2.3,Win32,61.10601894,61b8f3437b89212fae0dfadf
4,1.838,space,0.4169,0,299,299,22,1,,,5915e5c6405db80001f30ff1,61b910848dbc9169fb853a8c,2021-12-14_21h45.55.346,PRaM,2021.2.3,Win32,61.10601894,61b8f3437b89212fae0dfadf
3,0.9872,space,0.1008,0,300,300,374,1,,,5915e5c6405db80001f30ff1,61b910848dbc9169fb853a8c,2021-12-14_21h45.55.346,PRaM,2021.2.3,Win32,61.10601894,61b8f3437b89212fae0dfadf
7,3.7834,space,2.5356,0,301,301,20,1,,,5915e5c6405db80001f30ff1,61b910848dbc9169fb853a8c,2021-12-14_21h45.55.346,PRaM,2021.2.3,Win32,61.10601894,61b8f3437b89212fae0dfadf
5,1.0399,space,0.101,0,302,302,189,1,,,5915e5c6405db80001f30ff1,61b910848dbc9169fb853a8c,2021-12-14_21h45.55.346,PRaM,2021.2.3,Win32,61.10601894,61b8f3437b89212fae0dfadf
5,2.4542,space,0.9423,0,303,303,284,1,,,5915e5c6405db80001f30ff1,61b910848dbc9169fb853a8c,2021-12-14_21h45.55.346,PRaM,2021.2.3,Win32,61.10601894,61b8f3437b89212fae0dfadf
3,1.1582,space,0.1171,0,304,304,193,1,,,5915e5c6405db80001f30ff1,61b910848dbc9169fb853a8c,2021-12-14_21h45.55.346,PRaM,2021.2.3,Win32,61.10601894,61b8f3437b89212fae0dfadf
5,2.087,space,0.8596,0,305,305,351,1,,,5915e5c6405db80001f30ff1,61b910848dbc9169fb853a8c,2021-12-14_21h45.55.346,PRaM,2021.2.3,Win32,61.10601894,61b8f3437b89212fae0dfadf
6,2.5038,space,1.2665,0,306,306,131,1,,,5915e5c6405db80001f30ff1,61b910848dbc9169fb853a8c,2021-12-14_21h45.55.346,PRaM,2021.2.3,Win32,61.10601894,61b8f3437b89212fae0dfadf
6,6.9837,space,5.4672,0,307,307,67,1,,,5915e5c6405db80001f30ff1,61b910848dbc9169fb853a8c,2021-12-14_21h45.55.346,PRaM,2021.2.3,Win32,61.10601894,61b8f3437b89212fae0dfadf
5,2.1385,space,0.6353,0,308,308,310,1,,,5915e5c6405db80001f30ff1,61b910848dbc9169fb853a8c,2021-12-14_21h45.55.346,PRaM,2021.2.3,Win32,61.10601894,61b8f3437b89212fae0dfadf
4,0.713,space,0.3336,0,309,309,339,1,,,5915e5c6405db80001f30ff1,61b910848dbc9169fb853a8c,2021-12-14_21h45.55.346,PRaM,2021.2.3,Win32,61.10601894,61b8f3437b89212fae0dfadf
5,2.4205,space,1.1345,0,310,310,30,1,,,5915e5c6405db80001f30ff1,61b910848dbc9169fb853a8c,2021-12-14_21h45.55.346,PRaM,2021.2.3,Win32,61.10601894,61b8f3437b89212fae0dfadf
6,0.991,space,0.1215,0,311,311,16,1,,,5915e5c6405db80001f30ff1,61b910848dbc9169fb853a8c,2021-12-14_21h45.55.346,PRaM,2021.2.3,Win32,61.10601894,61b8f3437b89212fae0dfadf
5,0.7061,space,0.1843,0,312,312,45,1,,,5915e5c6405db80001f30ff1,61b910848dbc9169fb853a8c,2021-12-14_21h45.55.346,PRaM,2021.2.3,Win32,61.10601894,61b8f3437b89212fae0dfadf
8,1.1568,space,0.471,0,313,313,311,1,,,5915e5c6405db80001f30ff1,61b910848dbc9169fb853a8c,2021-12-14_21h45.55.346,PRaM,2021.2.3,Win32,61.10601894,61b8f3437b89212fae0dfadf
7,0.6242,space,0.034,0,314,314,290,1,,,5915e5c6405db80001f30ff1,61b910848dbc9169fb853a8c,2021-12-14_21h45.55.346,PRaM,2021.2.3,Win32,61.10601894,61b8f3437b89212fae0dfadf
6,0.7412,space,2.5161,0,315,315,121,1,,,5915e5c6405db80001f30ff1,61b910848dbc9169fb853a8c,2021-12-14_21h45.55.346,PRaM,2021.2.3,Win32,61.10601894,61b8f3437b89212fae0dfadf
7,1.0978,space,0.0919,0,316,316,308,1,,,5915e5c6405db80001f30ff1,61b910848dbc9169fb853a8c,2021-12-14_21h45.55.346,PRaM,2021.2.3,Win32,61.10601894,61b8f3437b89212fae0dfadf
5,1.5403,space,0.7508,0,317,317,372,1,,,5915e5c6405db80001f30ff1,61b910848dbc9169fb853a8c,2021-12-14_21h45.55.346,PRaM,2021.2.3,Win32,61.10601894,61b8f3437b89212fae0dfadf
6,0.6933,space,1.0234,0,318,318,331,1,,,5915e5c6405db80001f30ff1,61b910848dbc9169fb853a8c,2021-12-14_21h45.55.346,PRaM,2021.2.3,Win32,61.10601894,61b8f3437b89212fae0dfadf
5,2.5739,space,0.9067,0,319,319,283,1,,,5915e5c6405db80001f30ff1,61b910848dbc9169fb853a8c,2021-12-14_21h45.55.346,PRaM,2021.2.3,Win32,61.10601894,61b8f3437b89212fae0dfadf
4,0.746,space,0.1915,0,320,320,111,1,,,5915e5c6405db80001f30ff1,61b910848dbc9169fb853a8c,2021-12-14_21h45.55.346,PRaM,2021.2.3,Win32,61.10601894,61b8f3437b89212fae0dfadf
6,0.5097,space,0.3882,0,321,321,39,1,,,5915e5c6405db80001f30ff1,61b910848dbc9169fb853a8c,2021-12-14_21h45.55.346,PRaM,2021.2.3,Win32,61.10601894,61b8f3437b89212fae0dfadf
7,1.4277,space,0.1183,0,322,322,171,1,,,5915e5c6405db80001f30ff1,61b910848dbc9169fb853a8c,2021-12-14_21h45.55.346,PRaM,2021.2.3,Win32,61.10601894,61b8f3437b89212fae0dfadf
6,1.5767,space,0.6834,0,323,323,237,1,,,5915e5c6405db80001f30ff1,61b910848dbc9169fb853a8c,2021-12-14_21h45.55.346,PRaM,2021.2.3,Win32,61.10601894,61b8f3437b89212fae0dfadf
5,1.3617,space,0.0178,0,324,324,183,1,,,5915e5c6405db80001f30ff1,61b910848dbc9169fb853a8c,2021-12-14_21h45.55.346,PRaM,2021.2.3,Win32,61.10601894,61b8f3437b89212fae0dfadf
4,1.0739,space,0.2706,0,325,325,257,1,,,5915e5c6405db80001f30ff1,61b910848dbc9169fb853a8c,2021-12-14_21h45.55.346,PRaM,2021.2.3,Win32,61.10601894,61b8f3437b89212fae0dfadf
7,1.1593,space,0.4228,0,326,326,326,1,,,5915e5c6405db80001f30ff1,61b910848dbc9169fb853a8c,2021-12-14_21h45.55.346,PRaM,2021.2.3,Win32,61.10601894,61b8f3437b89212fae0dfadf
6,1.2587,space,0.092,0,327,327,307,1,,,5915e5c6405db80001f30ff1,61b910848dbc9169fb853a8c,2021-12-14_21h45.55.346,PRaM,2021.2.3,Win32,61.10601894,61b8f3437b89212fae0dfadf
5,1.2727,space,0.1581,0,328,328,149,1,,,5915e5c6405db80001f30ff1,61b910848dbc9169fb853a8c,2021-12-14_21h45.55.346,PRaM,2021.2.3,Win32,61.10601894,61b8f3437b89212fae0dfadf
7,0.8052,space,0.284,0,329,329,366,1,,,5915e5c6405db80001f30ff1,61b910848dbc9169fb853a8c,2021-12-14_21h45.55.346,PRaM,2021.2.3,Win32,61.10601894,61b8f3437b89212fae0dfadf
6,0.6295,space,0.051,0,330,330,35,1,,,5915e5c6405db80001f30ff1,61b910848dbc9169fb853a8c,2021-12-14_21h45.55.346,PRaM,2021.2.3,Win32,61.10601894,61b8f3437b89212fae0dfadf
7,1.137,space,0.1571,0,331,331,220,1,,,5915e5c6405db80001f30ff1,61b910848dbc9169fb853a8c,2021-12-14_21h45.55.346,PRaM,2021.2.3,Win32,61.10601894,61b8f3437b89212fae0dfadf
4,1.4404,space,0.1886,0,332,332,69,1,,,5915e5c6405db80001f30ff1,61b910848dbc9169fb853a8c,2021-12-14_21h45.55.346,PRaM,2021.2.3,Win32,61.10601894,61b8f3437b89212fae0dfadf
5,1.3719,space,0.2078,0,333,333,155,1,,,5915e5c6405db80001f30ff1,61b910848dbc9169fb853a8c,2021-12-14_21h45.55.346,PRaM,2021.2.3,Win32,61.10601894,61b8f3437b89212fae0dfadf
7,2.7876,space,1.2836,0,334,334,246,1,,,5915e5c6405db80001f30ff1,61b910848dbc9169fb853a8c,2021-12-14_21h45.55.346,PRaM,2021.2.3,Win32,61.10601894,61b8f3437b89212fae0dfadf
5,3.9847,space,2.6166,0,335,335,119,1,,,5915e5c6405db80001f30ff1,61b910848dbc9169fb853a8c,2021-12-14_21h45.55.346,PRaM,2021.2.3,Win32,61.10601894,61b8f3437b89212fae0dfadf
4,1.2132,space,0.0349,0,336,336,226,1,,,5915e5c6405db80001f30ff1,61b910848dbc9169fb853a8c,2021-12-14_21h45.55.346,PRaM,2021.2.3,Win32,61.10601894,61b8f3437b89212fae0dfadf
5,1.7407,space,0.2515,0,337,337,229,1,,,5915e5c6405db80001f30ff1,61b910848dbc9169fb853a8c,2021-12-14_21h45.55.346,PRaM,2021.2.3,Win32,61.10601894,61b8f3437b89212fae0dfadf
3,3.6208,space,2.1187,0,338,338,169,1,,,5915e5c6405db80001f30ff1,61b910848dbc9169fb853a8c,2021-12-14_21h45.55.346,PRaM,2021.2.3,Win32,61.10601894,61b8f3437b89212fae0dfadf
4,1.3135,space,0.1182,0,339,339,274,1,,,5915e5c6405db80001f30ff1,61b910848dbc9169fb853a8c,2021-12-14_21h45.55.346,PRaM,2021.2.3,Win32,61.10601894,61b8f3437b89212fae0dfadf
6,2.0861,space,0.6421,0,340,340,114,1,,,5915e5c6405db80001f30ff1,61b910848dbc9169fb853a8c,2021-12-14_21h45.55.346,PRaM,2021.2.3,Win32,61.10601894,61b8f3437b89212fae0dfadf
5,0.7138,space,0.6255,0,341,341,128,1,,,5915e5c6405db80001f30ff1,61b910848dbc9169fb853a8c,2021-12-14_21h45.55.346,PRaM,2021.2.3,Win32,61.10601894,61b8f3437b89212fae0dfadf
6,1.2925,space,0.0198,0,342,342,296,1,,,5915e5c6405db80001f30ff1,61b910848dbc9169fb853a8c,2021-12-14_21h45.55.346,PRaM,2021.2.3,Win32,61.10601894,61b8f3437b89212fae0dfadf
7,0.6221,space,0.0397,0,343,343,96,1,,,5915e5c6405db80001f30ff1,61b910848dbc9169fb853a8c,2021-12-14_21h45.55.346,PRaM,2021.2.3,Win32,61.10601894,61b8f3437b89212fae0dfadf
4,0.8802,space,30.9318,0,344,344,38,1,,,5915e5c6405db80001f30ff1,61b910848dbc9169fb853a8c,2021-12-14_21h45.55.346,PRaM,2021.2.3,Win32,61.10601894,61b8f3437b89212fae0dfadf
5,1.5312,space,0.0012,0,345,345,293,1,,,5915e5c6405db80001f30ff1,61b910848dbc9169fb853a8c,2021-12-14_21h45.55.346,PRaM,2021.2.3,Win32,61.10601894,61b8f3437b89212fae0dfadf
6,1.4875,space,0.1329,0,346,346,31,1,,,5915e5c6405db80001f30ff1,61b910848dbc9169fb853a8c,2021-12-14_21h45.55.346,PRaM,2021.2.3,Win32,61.10601894,61b8f3437b89212fae0dfadf
6,2.1262,space,0.3176,0,347,347,356,1,,,5915e5c6405db80001f30ff1,61b910848dbc9169fb853a8c,2021-12-14_21h45.55.346,PRaM,2021.2.3,Win32,61.10601894,61b8f3437b89212fae0dfadf
5,1.3035,space,5.3311,0,348,348,373,1,,,5915e5c6405db80001f30ff1,61b910848dbc9169fb853a8c,2021-12-14_21h45.55.346,PRaM,2021.2.3,Win32,61.10601894,61b8f3437b89212fae0dfadf
6,1.4848,space,0.1091,0,349,349,204,1,,,5915e5c6405db80001f30ff1,61b910848dbc9169fb853a8c,2021-12-14_21h45.55.346,PRaM,2021.2.3,Win32,61.10601894,61b8f3437b89212fae0dfadf
3,3.6881,space,2.1567,0,350,350,376,1,,,5915e5c6405db80001f30ff1,61b910848dbc9169fb853a8c,2021-12-14_21h45.55.346,PRaM,2021.2.3,Win32,61.10601894,61b8f3437b89212fae0dfadf
2,1.556,space,0.4847,0,351,351,86,1,,,5915e5c6405db80001f30ff1,61b910848dbc9169fb853a8c,2021-12-14_21h45.55.346,PRaM,2021.2.3,Win32,61.10601894,61b8f3437b89212fae0dfadf
4,0.7222,space,0.1007,0,352,352,322,1,,,5915e5c6405db80001f30ff1,61b910848dbc9169fb853a8c,2021-12-14_21h45.55.346,PRaM,2021.2.3,Win32,61.10601894,61b8f3437b89212fae0dfadf
6,3.3029,space,1.6761,0,353,353,175,1,,,5915e5c6405db80001f30ff1,61b910848dbc9169fb853a8c,2021-12-14_21h45.55.346,PRaM,2021.2.3,Win32,61.10601894,61b8f3437b89212fae0dfadf
5,22.7999,space,28.0203,0,354,354,280,1,,,5915e5c6405db80001f30ff1,61b910848dbc9169fb853a8c,2021-12-14_21h45.55.346,PRaM,2021.2.3,Win32,61.10601894,61b8f3437b89212fae0dfadf
6,4.4973,space,3.3559,0,355,355,278,1,,,5915e5c6405db80001f30ff1,61b910848dbc9169fb853a8c,2021-12-14_21h45.55.346,PRaM,2021.2.3,Win32,61.10601894,61b8f3437b89212fae0dfadf
5,267.559,space,267.0496,0,356,356,34,1,,,5915e5c6405db80001f30ff1,61b910848dbc9169fb853a8c,2021-12-14_21h45.55.346,PRaM,2021.2.3,Win32,61.10601894,61b8f3437b89212fae0dfadf
7,10.0502,space,8.8473,0,357,357,287,1,,,5915e5c6405db80001f30ff1,61b910848dbc9169fb853a8c,2021-12-14_21h45.55.346,PRaM,2021.2.3,Win32,61.10601894,61b8f3437b89212fae0dfadf
6,3.2537,space,1.8648,0,358,358,106,1,,,5915e5c6405db80001f30ff1,61b910848dbc9169fb853a8c,2021-12-14_21h45.55.346,PRaM,2021.2.3,Win32,61.10601894,61b8f3437b89212fae0dfadf
8,1.9867,space,0.351,0,359,359,209,1,,,5915e5c6405db80001f30ff1,61b910848dbc9169fb853a8c,2021-12-14_21h45.55.346,PRaM,2021.2.3,Win32,61.10601894,61b8f3437b89212fae0dfadf
6,0.7059,space,1.367,0,360,360,250,1,,,5915e5c6405db80001f30ff1,61b910848dbc9169fb853a8c,2021-12-14_21h45.55.346,PRaM,2021.2.3,Win32,61.10601894,61b8f3437b89212fae0dfadf
5,1.9861,space,0.2526,0,361,361,84,1,,,5915e5c6405db80001f30ff1,61b910848dbc9169fb853a8c,2021-12-14_21h45.55.346,PRaM,2021.2.3,Win32,61.10601894,61b8f3437b89212fae0dfadf
7,1.582,space,0.3664,0,362,362,188,1,,,5915e5c6405db80001f30ff1,61b910848dbc9169fb853a8c,2021-12-14_21h45.55.346,PRaM,2021.2.3,Win32,61.10601894,61b8f3437b89212fae0dfadf
5,1.5876,space,35.6509,0,363,363,153,1,,,5915e5c6405db80001f30ff1,61b910848dbc9169fb853a8c,2021-12-14_21h45.55.346,PRaM,2021.2.3,Win32,61.10601894,61b8f3437b89212fae0dfadf
7,1.9311,space,0.3743,0,364,364,184,1,,,5915e5c6405db80001f30ff1,61b910848dbc9169fb853a8c,2021-12-14_21h45.55.346,PRaM,2021.2.3,Win32,61.10601894,61b8f3437b89212fae0dfadf
7,1.9056,space,0.1183,0,365,365,202,1,,,5915e5c6405db80001f30ff1,61b910848dbc9169fb853a8c,2021-12-14_21h45.55.346,PRaM,2021.2.3,Win32,61.10601894,61b8f3437b89212fae0dfadf
8,1.4522,space,0.1019,0,366,366,32,1,,,5915e5c6405db80001f30ff1,61b910848dbc9169fb853a8c,2021-12-14_21h45.55.346,PRaM,2021.2.3,Win32,61.10601894,61b8f3437b89212fae0dfadf
5,1.7205,space,0.6853,0,367,367,180,1,,,5915e5c6405db80001f30ff1,61b910848dbc9169fb853a8c,2021-12-14_21h45.55.346,PRaM,2021.2.3,Win32,61.10601894,61b8f3437b89212fae0dfadf
6,1.004,space,0.0869,0,368,368,223,1,,,5915e5c6405db80001f30ff1,61b910848dbc9169fb853a8c,2021-12-14_21h45.55.346,PRaM,2021.2.3,Win32,61.10601894,61b8f3437b89212fae0dfadf
5,2.368,space,0.5722,0,369,369,312,1,,,5915e5c6405db80001f30ff1,61b910848dbc9169fb853a8c,2021-12-14_21h45.55.346,PRaM,2021.2.3,Win32,61.10601894,61b8f3437b89212fae0dfadf
7,1.5605,space,0.4844,0,370,370,9,1,,,5915e5c6405db80001f30ff1,61b910848dbc9169fb853a8c,2021-12-14_21h45.55.346,PRaM,2021.2.3,Win32,61.10601894,61b8f3437b89212fae0dfadf
5,1.9112,space,0.2235,0,371,371,133,1,,,5915e5c6405db80001f30ff1,61b910848dbc9169fb853a8c,2021-12-14_21h45.55.346,PRaM,2021.2.3,Win32,61.10601894,61b8f3437b89212fae0dfadf
8,2.5553,space,0.8176,0,372,372,25,1,,,5915e5c6405db80001f30ff1,61b910848dbc9169fb853a8c,2021-12-14_21h45.55.346,PRaM,2021.2.3,Win32,61.10601894,61b8f3437b89212fae0dfadf
4,2.1052,space,0.1668,0,373,373,24,1,,,5915e5c6405db80001f30ff1,61b910848dbc9169fb853a8c,2021-12-14_21h45.55.346,PRaM,2021.2.3,Win32,61.10601894,61b8f3437b89212fae0dfadf
5,2.0203,space,0.1512,0,374,374,18,1,,,5915e5c6405db80001f30ff1,61b910848dbc9169fb853a8c,2021-12-14_21h45.55.346,PRaM,2021.2.3,Win32,61.10601894,61b8f3437b89212fae0dfadf
6,2.3386,space,0.401,0,375,375,142,1,,,5915e5c6405db80001f30ff1,61b910848dbc9169fb853a8c,2021-12-14_21h45.55.346,PRaM,2021.2.3,Win32,61.10601894,61b8f3437b89212fae0dfadf
5,0.6872,space,1.0664,0,376,376,277,1,,,5915e5c6405db80001f30ff1,61b910848dbc9169fb853a8c,2021-12-14_21h45.55.346,PRaM,2021.2.3,Win32,61.10601894,61b8f3437b89212fae0dfadf
4,1.7208,space,0.0707,0,377,377,200,1,,,5915e5c6405db80001f30ff1,61b910848dbc9169fb853a8c,2021-12-14_21h45.55.346,PRaM,2021.2.3,Win32,61.10601894,61b8f3437b89212fae0dfadf
