Rating.response,Rating.rt,EndTrial.keys,EndTrial.rt,trials.thisRepN,trials.thisTrialN,trials.thisN,trials.thisIndex,trials.ran,Pos1,Pos2,participant,session,date,expName,psychopyVersion,OS,frameRate,study_id
2,15.877,space,15.455,0,0,0,249,1,,,596f003434773e0001fc0d28,61b909687acc23596b5bf0cc,2021-12-14_13h22.53.227,PRaM,2021.2.3,MacIntel,57.47126437,61b8f3437b89212fae0dfadf
8,4.726,space,3.976,0,1,1,320,1,,,596f003434773e0001fc0d28,61b909687acc23596b5bf0cc,2021-12-14_13h22.53.227,PRaM,2021.2.3,MacIntel,57.47126437,61b8f3437b89212fae0dfadf
1,5.067,space,3.523,0,2,2,82,1,,,596f003434773e0001fc0d28,61b909687acc23596b5bf0cc,2021-12-14_13h22.53.227,PRaM,2021.2.3,MacIntel,57.47126437,61b8f3437b89212fae0dfadf
1,3.197,space,1.845,0,3,3,55,1,,,596f003434773e0001fc0d28,61b909687acc23596b5bf0cc,2021-12-14_13h22.53.227,PRaM,2021.2.3,MacIntel,57.47126437,61b8f3437b89212fae0dfadf
1,3.903,space,2.369,0,4,4,342,1,,,596f003434773e0001fc0d28,61b909687acc23596b5bf0cc,2021-12-14_13h22.53.227,PRaM,2021.2.3,MacIntel,57.47126437,61b8f3437b89212fae0dfadf
2,5.235,space,3.688,0,5,5,162,1,,,596f003434773e0001fc0d28,61b909687acc23596b5bf0cc,2021-12-14_13h22.53.227,PRaM,2021.2.3,MacIntel,57.47126437,61b8f3437b89212fae0dfadf
1,3.91,space,2.786,0,6,6,65,1,,,596f003434773e0001fc0d28,61b909687acc23596b5bf0cc,2021-12-14_13h22.53.227,PRaM,2021.2.3,MacIntel,57.47126437,61b8f3437b89212fae0dfadf
4,4.928,space,3.806,0,7,7,192,1,,,596f003434773e0001fc0d28,61b909687acc23596b5bf0cc,2021-12-14_13h22.53.227,PRaM,2021.2.3,MacIntel,57.47126437,61b8f3437b89212fae0dfadf
5,6.804,space,5.408,0,8,8,69,1,,,596f003434773e0001fc0d28,61b909687acc23596b5bf0cc,2021-12-14_13h22.53.227,PRaM,2021.2.3,MacIntel,57.47126437,61b8f3437b89212fae0dfadf
3,5.278,space,3.859,0,9,9,202,1,,,596f003434773e0001fc0d28,61b909687acc23596b5bf0cc,2021-12-14_13h22.53.227,PRaM,2021.2.3,MacIntel,57.47126437,61b8f3437b89212fae0dfadf
1,4.044,space,2.605,0,10,10,43,1,,,596f003434773e0001fc0d28,61b909687acc23596b5bf0cc,2021-12-14_13h22.53.227,PRaM,2021.2.3,MacIntel,57.47126437,61b8f3437b89212fae0dfadf
7,2.775,space,1.336,0,11,11,154,1,,,596f003434773e0001fc0d28,61b909687acc23596b5bf0cc,2021-12-14_13h22.53.227,PRaM,2021.2.3,MacIntel,57.47126437,61b8f3437b89212fae0dfadf
1,4.093,space,2.643,0,12,12,28,1,,,596f003434773e0001fc0d28,61b909687acc23596b5bf0cc,2021-12-14_13h22.53.227,PRaM,2021.2.3,MacIntel,57.47126437,61b8f3437b89212fae0dfadf
1,2.883,space,1.412,0,13,13,371,1,,,596f003434773e0001fc0d28,61b909687acc23596b5bf0cc,2021-12-14_13h22.53.227,PRaM,2021.2.3,MacIntel,57.47126437,61b8f3437b89212fae0dfadf
7,6.048,space,4.559,0,14,14,136,1,,,596f003434773e0001fc0d28,61b909687acc23596b5bf0cc,2021-12-14_13h22.53.227,PRaM,2021.2.3,MacIntel,57.47126437,61b8f3437b89212fae0dfadf
2,6.144,space,4.864,0,15,15,331,1,,,596f003434773e0001fc0d28,61b909687acc23596b5bf0cc,2021-12-14_13h22.53.227,PRaM,2021.2.3,MacIntel,57.47126437,61b8f3437b89212fae0dfadf
1,2.358,space,0.924,0,16,16,283,1,,,596f003434773e0001fc0d28,61b909687acc23596b5bf0cc,2021-12-14_13h22.53.227,PRaM,2021.2.3,MacIntel,57.47126437,61b8f3437b89212fae0dfadf
8,2.575,space,1.085,0,17,17,301,1,,,596f003434773e0001fc0d28,61b909687acc23596b5bf0cc,2021-12-14_13h22.53.227,PRaM,2021.2.3,MacIntel,57.47126437,61b8f3437b89212fae0dfadf
1,3.76,space,2.252,0,18,18,185,1,,,596f003434773e0001fc0d28,61b909687acc23596b5bf0cc,2021-12-14_13h22.53.227,PRaM,2021.2.3,MacIntel,57.47126437,61b8f3437b89212fae0dfadf
2,4.61,space,3.404,0,19,19,228,1,,,596f003434773e0001fc0d28,61b909687acc23596b5bf0cc,2021-12-14_13h22.53.227,PRaM,2021.2.3,MacIntel,57.47126437,61b8f3437b89212fae0dfadf
1,5.111,space,3.59,0,20,20,357,1,,,596f003434773e0001fc0d28,61b909687acc23596b5bf0cc,2021-12-14_13h22.53.227,PRaM,2021.2.3,MacIntel,57.47126437,61b8f3437b89212fae0dfadf
7,3.652,space,2.154,0,21,21,61,1,,,596f003434773e0001fc0d28,61b909687acc23596b5bf0cc,2021-12-14_13h22.53.227,PRaM,2021.2.3,MacIntel,57.47126437,61b8f3437b89212fae0dfadf
3,5.111,space,3.559,0,22,22,62,1,,,596f003434773e0001fc0d28,61b909687acc23596b5bf0cc,2021-12-14_13h22.53.227,PRaM,2021.2.3,MacIntel,57.47126437,61b8f3437b89212fae0dfadf
1,3.553,space,2.113,0,23,23,368,1,,,596f003434773e0001fc0d28,61b909687acc23596b5bf0cc,2021-12-14_13h22.53.227,PRaM,2021.2.3,MacIntel,57.47126437,61b8f3437b89212fae0dfadf
2,4.416,space,2.848,0,24,24,233,1,,,596f003434773e0001fc0d28,61b909687acc23596b5bf0cc,2021-12-14_13h22.53.227,PRaM,2021.2.3,MacIntel,57.47126437,61b8f3437b89212fae0dfadf
1,5.846,space,4.265,0,25,25,131,1,,,596f003434773e0001fc0d28,61b909687acc23596b5bf0cc,2021-12-14_13h22.53.227,PRaM,2021.2.3,MacIntel,57.47126437,61b8f3437b89212fae0dfadf
1,2.343,space,0.836,0,26,26,138,1,,,596f003434773e0001fc0d28,61b909687acc23596b5bf0cc,2021-12-14_13h22.53.227,PRaM,2021.2.3,MacIntel,57.47126437,61b8f3437b89212fae0dfadf
3,5.418,space,3.908,0,27,27,126,1,,,596f003434773e0001fc0d28,61b909687acc23596b5bf0cc,2021-12-14_13h22.53.227,PRaM,2021.2.3,MacIntel,57.47126437,61b8f3437b89212fae0dfadf
2,4.362,space,2.771,0,28,28,256,1,,,596f003434773e0001fc0d28,61b909687acc23596b5bf0cc,2021-12-14_13h22.53.227,PRaM,2021.2.3,MacIntel,57.47126437,61b8f3437b89212fae0dfadf
3,7.657,space,6.065,0,29,29,364,1,,,596f003434773e0001fc0d28,61b909687acc23596b5bf0cc,2021-12-14_13h22.53.227,PRaM,2021.2.3,MacIntel,57.47126437,61b8f3437b89212fae0dfadf
6,3.595,space,2.153,0,30,30,139,1,,,596f003434773e0001fc0d28,61b909687acc23596b5bf0cc,2021-12-14_13h22.53.227,PRaM,2021.2.3,MacIntel,57.47126437,61b8f3437b89212fae0dfadf
1,4.385,space,2.762,0,31,31,265,1,,,596f003434773e0001fc0d28,61b909687acc23596b5bf0cc,2021-12-14_13h22.53.227,PRaM,2021.2.3,MacIntel,57.47126437,61b8f3437b89212fae0dfadf
7,3.35,space,1.86,0,32,32,274,1,,,596f003434773e0001fc0d28,61b909687acc23596b5bf0cc,2021-12-14_13h22.53.227,PRaM,2021.2.3,MacIntel,57.47126437,61b8f3437b89212fae0dfadf
2,5.151,space,3.545,0,33,33,39,1,,,596f003434773e0001fc0d28,61b909687acc23596b5bf0cc,2021-12-14_13h22.53.227,PRaM,2021.2.3,MacIntel,57.47126437,61b8f3437b89212fae0dfadf
4,4.234,space,2.676,0,34,34,121,1,,,596f003434773e0001fc0d28,61b909687acc23596b5bf0cc,2021-12-14_13h22.53.227,PRaM,2021.2.3,MacIntel,57.47126437,61b8f3437b89212fae0dfadf
6,4.927,space,3.314,0,35,35,346,1,,,596f003434773e0001fc0d28,61b909687acc23596b5bf0cc,2021-12-14_13h22.53.227,PRaM,2021.2.3,MacIntel,57.47126437,61b8f3437b89212fae0dfadf
2,4.578,space,2.977,0,36,36,223,1,,,596f003434773e0001fc0d28,61b909687acc23596b5bf0cc,2021-12-14_13h22.53.227,PRaM,2021.2.3,MacIntel,57.47126437,61b8f3437b89212fae0dfadf
2,4.342,space,2.691,0,37,37,262,1,,,596f003434773e0001fc0d28,61b909687acc23596b5bf0cc,2021-12-14_13h22.53.227,PRaM,2021.2.3,MacIntel,57.47126437,61b8f3437b89212fae0dfadf
3,3.96,space,2.313,0,38,38,128,1,,,596f003434773e0001fc0d28,61b909687acc23596b5bf0cc,2021-12-14_13h22.53.227,PRaM,2021.2.3,MacIntel,57.47126437,61b8f3437b89212fae0dfadf
2,4.432,space,2.848,0,39,39,300,1,,,596f003434773e0001fc0d28,61b909687acc23596b5bf0cc,2021-12-14_13h22.53.227,PRaM,2021.2.3,MacIntel,57.47126437,61b8f3437b89212fae0dfadf
8,6.184,space,4.573,0,40,40,259,1,,,596f003434773e0001fc0d28,61b909687acc23596b5bf0cc,2021-12-14_13h22.53.227,PRaM,2021.2.3,MacIntel,57.47126437,61b8f3437b89212fae0dfadf
2,3.924,space,2.29,0,41,41,308,1,,,596f003434773e0001fc0d28,61b909687acc23596b5bf0cc,2021-12-14_13h22.53.227,PRaM,2021.2.3,MacIntel,57.47126437,61b8f3437b89212fae0dfadf
2,6.328,space,4.624,0,42,42,321,1,,,596f003434773e0001fc0d28,61b909687acc23596b5bf0cc,2021-12-14_13h22.53.227,PRaM,2021.2.3,MacIntel,57.47126437,61b8f3437b89212fae0dfadf
9,3.092,space,1.526,0,43,43,156,1,,,596f003434773e0001fc0d28,61b909687acc23596b5bf0cc,2021-12-14_13h22.53.227,PRaM,2021.2.3,MacIntel,57.47126437,61b8f3437b89212fae0dfadf
9,2.676,space,1.111,0,44,44,165,1,,,596f003434773e0001fc0d28,61b909687acc23596b5bf0cc,2021-12-14_13h22.53.227,PRaM,2021.2.3,MacIntel,57.47126437,61b8f3437b89212fae0dfadf
7,4.251,space,2.62,0,45,45,335,1,,,596f003434773e0001fc0d28,61b909687acc23596b5bf0cc,2021-12-14_13h22.53.227,PRaM,2021.2.3,MacIntel,57.47126437,61b8f3437b89212fae0dfadf
9,2.783,space,1.192,0,46,46,314,1,,,596f003434773e0001fc0d28,61b909687acc23596b5bf0cc,2021-12-14_13h22.53.227,PRaM,2021.2.3,MacIntel,57.47126437,61b8f3437b89212fae0dfadf
8,4.204,space,2.612,0,47,47,120,1,,,596f003434773e0001fc0d28,61b909687acc23596b5bf0cc,2021-12-14_13h22.53.227,PRaM,2021.2.3,MacIntel,57.47126437,61b8f3437b89212fae0dfadf
1,12.126,space,10.535,0,48,48,243,1,,,596f003434773e0001fc0d28,61b909687acc23596b5bf0cc,2021-12-14_13h22.53.227,PRaM,2021.2.3,MacIntel,57.47126437,61b8f3437b89212fae0dfadf
1,4.634,space,3.115,0,49,49,27,1,,,596f003434773e0001fc0d28,61b909687acc23596b5bf0cc,2021-12-14_13h22.53.227,PRaM,2021.2.3,MacIntel,57.47126437,61b8f3437b89212fae0dfadf
1,2.845,space,1.304,0,50,50,189,1,,,596f003434773e0001fc0d28,61b909687acc23596b5bf0cc,2021-12-14_13h22.53.227,PRaM,2021.2.3,MacIntel,57.47126437,61b8f3437b89212fae0dfadf
1,4.057,space,2.501,0,51,51,91,1,,,596f003434773e0001fc0d28,61b909687acc23596b5bf0cc,2021-12-14_13h22.53.227,PRaM,2021.2.3,MacIntel,57.47126437,61b8f3437b89212fae0dfadf
7,4.148,space,2.538,0,52,52,221,1,,,596f003434773e0001fc0d28,61b909687acc23596b5bf0cc,2021-12-14_13h22.53.227,PRaM,2021.2.3,MacIntel,57.47126437,61b8f3437b89212fae0dfadf
1,3.234,space,1.636,0,53,53,299,1,,,596f003434773e0001fc0d28,61b909687acc23596b5bf0cc,2021-12-14_13h22.53.227,PRaM,2021.2.3,MacIntel,57.47126437,61b8f3437b89212fae0dfadf
1,4.652,space,3.15,0,54,54,234,1,,,596f003434773e0001fc0d28,61b909687acc23596b5bf0cc,2021-12-14_13h22.53.227,PRaM,2021.2.3,MacIntel,57.47126437,61b8f3437b89212fae0dfadf
5,3.609,space,2.007,0,55,55,46,1,,,596f003434773e0001fc0d28,61b909687acc23596b5bf0cc,2021-12-14_13h22.53.227,PRaM,2021.2.3,MacIntel,57.47126437,61b8f3437b89212fae0dfadf
7,4.22,space,2.572,0,56,56,168,1,,,596f003434773e0001fc0d28,61b909687acc23596b5bf0cc,2021-12-14_13h22.53.227,PRaM,2021.2.3,MacIntel,57.47126437,61b8f3437b89212fae0dfadf
8,3.152,space,1.538,0,57,57,296,1,,,596f003434773e0001fc0d28,61b909687acc23596b5bf0cc,2021-12-14_13h22.53.227,PRaM,2021.2.3,MacIntel,57.47126437,61b8f3437b89212fae0dfadf
2,4.127,space,2.572,0,58,58,218,1,,,596f003434773e0001fc0d28,61b909687acc23596b5bf0cc,2021-12-14_13h22.53.227,PRaM,2021.2.3,MacIntel,57.47126437,61b8f3437b89212fae0dfadf
9,3.025,space,1.424,0,59,59,222,1,,,596f003434773e0001fc0d28,61b909687acc23596b5bf0cc,2021-12-14_13h22.53.227,PRaM,2021.2.3,MacIntel,57.47126437,61b8f3437b89212fae0dfadf
1,2.45,space,0.902,0,60,60,322,1,,,596f003434773e0001fc0d28,61b909687acc23596b5bf0cc,2021-12-14_13h22.53.227,PRaM,2021.2.3,MacIntel,57.47126437,61b8f3437b89212fae0dfadf
1,3.592,space,1.971,0,61,61,160,1,,,596f003434773e0001fc0d28,61b909687acc23596b5bf0cc,2021-12-14_13h22.53.227,PRaM,2021.2.3,MacIntel,57.47126437,61b8f3437b89212fae0dfadf
1,1.864,space,0.471,0,62,62,377,1,,,596f003434773e0001fc0d28,61b909687acc23596b5bf0cc,2021-12-14_13h22.53.227,PRaM,2021.2.3,MacIntel,57.47126437,61b8f3437b89212fae0dfadf
7,3.785,space,2.147,0,63,63,175,1,,,596f003434773e0001fc0d28,61b909687acc23596b5bf0cc,2021-12-14_13h22.53.227,PRaM,2021.2.3,MacIntel,57.47126437,61b8f3437b89212fae0dfadf
1,2.95,space,1.369,0,64,64,36,1,,,596f003434773e0001fc0d28,61b909687acc23596b5bf0cc,2021-12-14_13h22.53.227,PRaM,2021.2.3,MacIntel,57.47126437,61b8f3437b89212fae0dfadf
1,2.851,space,1.271,0,65,65,87,1,,,596f003434773e0001fc0d28,61b909687acc23596b5bf0cc,2021-12-14_13h22.53.227,PRaM,2021.2.3,MacIntel,57.47126437,61b8f3437b89212fae0dfadf
9,4.013,space,2.428,0,66,66,53,1,,,596f003434773e0001fc0d28,61b909687acc23596b5bf0cc,2021-12-14_13h22.53.227,PRaM,2021.2.3,MacIntel,57.47126437,61b8f3437b89212fae0dfadf
8,3.663,space,2.063,0,67,67,277,1,,,596f003434773e0001fc0d28,61b909687acc23596b5bf0cc,2021-12-14_13h22.53.227,PRaM,2021.2.3,MacIntel,57.47126437,61b8f3437b89212fae0dfadf
1,4.127,space,2.525,0,68,68,235,1,,,596f003434773e0001fc0d28,61b909687acc23596b5bf0cc,2021-12-14_13h22.53.227,PRaM,2021.2.3,MacIntel,57.47126437,61b8f3437b89212fae0dfadf
7,3.885,space,2.366,0,69,69,135,1,,,596f003434773e0001fc0d28,61b909687acc23596b5bf0cc,2021-12-14_13h22.53.227,PRaM,2021.2.3,MacIntel,57.47126437,61b8f3437b89212fae0dfadf
1,2.825,space,1.241,0,70,70,146,1,,,596f003434773e0001fc0d28,61b909687acc23596b5bf0cc,2021-12-14_13h22.53.227,PRaM,2021.2.3,MacIntel,57.47126437,61b8f3437b89212fae0dfadf
1,2.097,space,0.741,0,71,71,210,1,,,596f003434773e0001fc0d28,61b909687acc23596b5bf0cc,2021-12-14_13h22.53.227,PRaM,2021.2.3,MacIntel,57.47126437,61b8f3437b89212fae0dfadf
1,3.131,space,1.732,0,72,72,161,1,,,596f003434773e0001fc0d28,61b909687acc23596b5bf0cc,2021-12-14_13h22.53.227,PRaM,2021.2.3,MacIntel,57.47126437,61b8f3437b89212fae0dfadf
5,3.693,space,2.057,0,73,73,337,1,,,596f003434773e0001fc0d28,61b909687acc23596b5bf0cc,2021-12-14_13h22.53.227,PRaM,2021.2.3,MacIntel,57.47126437,61b8f3437b89212fae0dfadf
5,4.793,space,3.254,0,74,74,315,1,,,596f003434773e0001fc0d28,61b909687acc23596b5bf0cc,2021-12-14_13h22.53.227,PRaM,2021.2.3,MacIntel,57.47126437,61b8f3437b89212fae0dfadf
8,3.296,space,1.655,0,75,75,238,1,,,596f003434773e0001fc0d28,61b909687acc23596b5bf0cc,2021-12-14_13h22.53.227,PRaM,2021.2.3,MacIntel,57.47126437,61b8f3437b89212fae0dfadf
4,3.649,space,2.098,0,76,76,176,1,,,596f003434773e0001fc0d28,61b909687acc23596b5bf0cc,2021-12-14_13h22.53.227,PRaM,2021.2.3,MacIntel,57.47126437,61b8f3437b89212fae0dfadf
1,3.584,space,1.962,0,77,77,354,1,,,596f003434773e0001fc0d28,61b909687acc23596b5bf0cc,2021-12-14_13h22.53.227,PRaM,2021.2.3,MacIntel,57.47126437,61b8f3437b89212fae0dfadf
1,8.469,space,6.951,0,78,78,266,1,,,596f003434773e0001fc0d28,61b909687acc23596b5bf0cc,2021-12-14_13h22.53.227,PRaM,2021.2.3,MacIntel,57.47126437,61b8f3437b89212fae0dfadf
1,3.375,space,1.864,0,79,79,50,1,,,596f003434773e0001fc0d28,61b909687acc23596b5bf0cc,2021-12-14_13h22.53.227,PRaM,2021.2.3,MacIntel,57.47126437,61b8f3437b89212fae0dfadf
1,2.077,space,0.641,0,80,80,247,1,,,596f003434773e0001fc0d28,61b909687acc23596b5bf0cc,2021-12-14_13h22.53.227,PRaM,2021.2.3,MacIntel,57.47126437,61b8f3437b89212fae0dfadf
8,2.618,space,1.06,0,81,81,280,1,,,596f003434773e0001fc0d28,61b909687acc23596b5bf0cc,2021-12-14_13h22.53.227,PRaM,2021.2.3,MacIntel,57.47126437,61b8f3437b89212fae0dfadf
5,3.541,space,2.004,0,82,82,98,1,,,596f003434773e0001fc0d28,61b909687acc23596b5bf0cc,2021-12-14_13h22.53.227,PRaM,2021.2.3,MacIntel,57.47126437,61b8f3437b89212fae0dfadf
4,6.254,space,4.737,0,83,83,313,1,,,596f003434773e0001fc0d28,61b909687acc23596b5bf0cc,2021-12-14_13h22.53.227,PRaM,2021.2.3,MacIntel,57.47126437,61b8f3437b89212fae0dfadf
3,5.108,space,3.475,0,84,84,338,1,,,596f003434773e0001fc0d28,61b909687acc23596b5bf0cc,2021-12-14_13h22.53.227,PRaM,2021.2.3,MacIntel,57.47126437,61b8f3437b89212fae0dfadf
9,5.264,space,3.741,0,85,85,17,1,,,596f003434773e0001fc0d28,61b909687acc23596b5bf0cc,2021-12-14_13h22.53.227,PRaM,2021.2.3,MacIntel,57.47126437,61b8f3437b89212fae0dfadf
5,3.25,space,1.656,0,86,86,339,1,,,596f003434773e0001fc0d28,61b909687acc23596b5bf0cc,2021-12-14_13h22.53.227,PRaM,2021.2.3,MacIntel,57.47126437,61b8f3437b89212fae0dfadf
7,4.894,space,3.294,0,87,87,220,1,,,596f003434773e0001fc0d28,61b909687acc23596b5bf0cc,2021-12-14_13h22.53.227,PRaM,2021.2.3,MacIntel,57.47126437,61b8f3437b89212fae0dfadf
6,3.834,space,2.357,0,88,88,295,1,,,596f003434773e0001fc0d28,61b909687acc23596b5bf0cc,2021-12-14_13h22.53.227,PRaM,2021.2.3,MacIntel,57.47126437,61b8f3437b89212fae0dfadf
7,4.318,space,2.707,0,89,89,328,1,,,596f003434773e0001fc0d28,61b909687acc23596b5bf0cc,2021-12-14_13h22.53.227,PRaM,2021.2.3,MacIntel,57.47126437,61b8f3437b89212fae0dfadf
9,2.31,space,0.725,0,90,90,291,1,,,596f003434773e0001fc0d28,61b909687acc23596b5bf0cc,2021-12-14_13h22.53.227,PRaM,2021.2.3,MacIntel,57.47126437,61b8f3437b89212fae0dfadf
1,6.07,space,4.489,0,91,91,358,1,,,596f003434773e0001fc0d28,61b909687acc23596b5bf0cc,2021-12-14_13h22.53.227,PRaM,2021.2.3,MacIntel,57.47126437,61b8f3437b89212fae0dfadf
1,3.193,space,1.589,0,92,92,284,1,,,596f003434773e0001fc0d28,61b909687acc23596b5bf0cc,2021-12-14_13h22.53.227,PRaM,2021.2.3,MacIntel,57.47126437,61b8f3437b89212fae0dfadf
1,3.042,space,1.505,0,93,93,94,1,,,596f003434773e0001fc0d28,61b909687acc23596b5bf0cc,2021-12-14_13h22.53.227,PRaM,2021.2.3,MacIntel,57.47126437,61b8f3437b89212fae0dfadf
8,3.827,space,2.242,0,94,94,211,1,,,596f003434773e0001fc0d28,61b909687acc23596b5bf0cc,2021-12-14_13h22.53.227,PRaM,2021.2.3,MacIntel,57.47126437,61b8f3437b89212fae0dfadf
1,5.111,space,3.51,0,95,95,0,1,,,596f003434773e0001fc0d28,61b909687acc23596b5bf0cc,2021-12-14_13h22.53.227,PRaM,2021.2.3,MacIntel,57.47126437,61b8f3437b89212fae0dfadf
1,3.379,space,1.757,0,96,96,35,1,,,596f003434773e0001fc0d28,61b909687acc23596b5bf0cc,2021-12-14_13h22.53.227,PRaM,2021.2.3,MacIntel,57.47126437,61b8f3437b89212fae0dfadf
2,2.709,space,0.99,0,97,97,133,1,,,596f003434773e0001fc0d28,61b909687acc23596b5bf0cc,2021-12-14_13h22.53.227,PRaM,2021.2.3,MacIntel,57.47126437,61b8f3437b89212fae0dfadf
6,3.675,space,2.02,0,98,98,86,1,,,596f003434773e0001fc0d28,61b909687acc23596b5bf0cc,2021-12-14_13h22.53.227,PRaM,2021.2.3,MacIntel,57.47126437,61b8f3437b89212fae0dfadf
9,3.092,space,1.458,0,99,99,276,1,,,596f003434773e0001fc0d28,61b909687acc23596b5bf0cc,2021-12-14_13h22.53.227,PRaM,2021.2.3,MacIntel,57.47126437,61b8f3437b89212fae0dfadf
5,4.48,space,2.856,0,100,100,236,1,,,596f003434773e0001fc0d28,61b909687acc23596b5bf0cc,2021-12-14_13h22.53.227,PRaM,2021.2.3,MacIntel,57.47126437,61b8f3437b89212fae0dfadf
2,4.603,space,2.971,0,101,101,76,1,,,596f003434773e0001fc0d28,61b909687acc23596b5bf0cc,2021-12-14_13h22.53.227,PRaM,2021.2.3,MacIntel,57.47126437,61b8f3437b89212fae0dfadf
8,3.374,space,1.758,0,102,102,112,1,,,596f003434773e0001fc0d28,61b909687acc23596b5bf0cc,2021-12-14_13h22.53.227,PRaM,2021.2.3,MacIntel,57.47126437,61b8f3437b89212fae0dfadf
1,3.468,space,1.821,0,103,103,191,1,,,596f003434773e0001fc0d28,61b909687acc23596b5bf0cc,2021-12-14_13h22.53.227,PRaM,2021.2.3,MacIntel,57.47126437,61b8f3437b89212fae0dfadf
1,2.95,space,1.432,0,104,104,356,1,,,596f003434773e0001fc0d28,61b909687acc23596b5bf0cc,2021-12-14_13h22.53.227,PRaM,2021.2.3,MacIntel,57.47126437,61b8f3437b89212fae0dfadf
9,3.199,space,1.561,0,105,105,302,1,,,596f003434773e0001fc0d28,61b909687acc23596b5bf0cc,2021-12-14_13h22.53.227,PRaM,2021.2.3,MacIntel,57.47126437,61b8f3437b89212fae0dfadf
1,3.085,space,1.439,0,106,106,155,1,,,596f003434773e0001fc0d28,61b909687acc23596b5bf0cc,2021-12-14_13h22.53.227,PRaM,2021.2.3,MacIntel,57.47126437,61b8f3437b89212fae0dfadf
1,1.679,space,0.129,0,107,107,245,1,,,596f003434773e0001fc0d28,61b909687acc23596b5bf0cc,2021-12-14_13h22.53.227,PRaM,2021.2.3,MacIntel,57.47126437,61b8f3437b89212fae0dfadf
4,5.146,space,3.53,0,108,108,29,1,,,596f003434773e0001fc0d28,61b909687acc23596b5bf0cc,2021-12-14_13h22.53.227,PRaM,2021.2.3,MacIntel,57.47126437,61b8f3437b89212fae0dfadf
1,2.933,space,1.288,0,109,109,293,1,,,596f003434773e0001fc0d28,61b909687acc23596b5bf0cc,2021-12-14_13h22.53.227,PRaM,2021.2.3,MacIntel,57.47126437,61b8f3437b89212fae0dfadf
1,1.758,space,0.213,0,110,110,289,1,,,596f003434773e0001fc0d28,61b909687acc23596b5bf0cc,2021-12-14_13h22.53.227,PRaM,2021.2.3,MacIntel,57.47126437,61b8f3437b89212fae0dfadf
1,3.241,space,1.655,0,111,111,9,1,,,596f003434773e0001fc0d28,61b909687acc23596b5bf0cc,2021-12-14_13h22.53.227,PRaM,2021.2.3,MacIntel,57.47126437,61b8f3437b89212fae0dfadf
9,5.499,space,3.957,0,112,112,225,1,,,596f003434773e0001fc0d28,61b909687acc23596b5bf0cc,2021-12-14_13h22.53.227,PRaM,2021.2.3,MacIntel,57.47126437,61b8f3437b89212fae0dfadf
9,1.956,space,0.455,0,113,113,297,1,,,596f003434773e0001fc0d28,61b909687acc23596b5bf0cc,2021-12-14_13h22.53.227,PRaM,2021.2.3,MacIntel,57.47126437,61b8f3437b89212fae0dfadf
9,2.658,space,1.057,0,114,114,20,1,,,596f003434773e0001fc0d28,61b909687acc23596b5bf0cc,2021-12-14_13h22.53.227,PRaM,2021.2.3,MacIntel,57.47126437,61b8f3437b89212fae0dfadf
1,3.45,space,1.843,0,115,115,130,1,,,596f003434773e0001fc0d28,61b909687acc23596b5bf0cc,2021-12-14_13h22.53.227,PRaM,2021.2.3,MacIntel,57.47126437,61b8f3437b89212fae0dfadf
6,3.895,space,2.253,0,116,116,105,1,,,596f003434773e0001fc0d28,61b909687acc23596b5bf0cc,2021-12-14_13h22.53.227,PRaM,2021.2.3,MacIntel,57.47126437,61b8f3437b89212fae0dfadf
2,4.866,space,3.229,0,117,117,215,1,,,596f003434773e0001fc0d28,61b909687acc23596b5bf0cc,2021-12-14_13h22.53.227,PRaM,2021.2.3,MacIntel,57.47126437,61b8f3437b89212fae0dfadf
7,4.245,space,2.553,0,118,118,282,1,,,596f003434773e0001fc0d28,61b909687acc23596b5bf0cc,2021-12-14_13h22.53.227,PRaM,2021.2.3,MacIntel,57.47126437,61b8f3437b89212fae0dfadf
1,2.68,space,1.035,0,119,119,10,1,,,596f003434773e0001fc0d28,61b909687acc23596b5bf0cc,2021-12-14_13h22.53.227,PRaM,2021.2.3,MacIntel,57.47126437,61b8f3437b89212fae0dfadf
1,9.117,space,7.544,0,120,120,361,1,,,596f003434773e0001fc0d28,61b909687acc23596b5bf0cc,2021-12-14_13h22.53.227,PRaM,2021.2.3,MacIntel,57.47126437,61b8f3437b89212fae0dfadf
3,4.394,space,2.856,0,121,121,309,1,,,596f003434773e0001fc0d28,61b909687acc23596b5bf0cc,2021-12-14_13h22.53.227,PRaM,2021.2.3,MacIntel,57.47126437,61b8f3437b89212fae0dfadf
1,2.074,space,0.508,0,122,122,349,1,,,596f003434773e0001fc0d28,61b909687acc23596b5bf0cc,2021-12-14_13h22.53.227,PRaM,2021.2.3,MacIntel,57.47126437,61b8f3437b89212fae0dfadf
1,2.227,space,0.892,0,123,123,224,1,,,596f003434773e0001fc0d28,61b909687acc23596b5bf0cc,2021-12-14_13h22.53.227,PRaM,2021.2.3,MacIntel,57.47126437,61b8f3437b89212fae0dfadf
7,2.627,space,0.996,0,124,124,127,1,,,596f003434773e0001fc0d28,61b909687acc23596b5bf0cc,2021-12-14_13h22.53.227,PRaM,2021.2.3,MacIntel,57.47126437,61b8f3437b89212fae0dfadf
8,2.892,space,1.253,0,125,125,88,1,,,596f003434773e0001fc0d28,61b909687acc23596b5bf0cc,2021-12-14_13h22.53.227,PRaM,2021.2.3,MacIntel,57.47126437,61b8f3437b89212fae0dfadf
1,3.993,space,2.371,0,126,126,108,1,,,596f003434773e0001fc0d28,61b909687acc23596b5bf0cc,2021-12-14_13h22.53.227,PRaM,2021.2.3,MacIntel,57.47126437,61b8f3437b89212fae0dfadf
1,5.11,space,3.506,0,127,127,205,1,,,596f003434773e0001fc0d28,61b909687acc23596b5bf0cc,2021-12-14_13h22.53.227,PRaM,2021.2.3,MacIntel,57.47126437,61b8f3437b89212fae0dfadf
3,4.45,space,2.84,0,128,128,153,1,,,596f003434773e0001fc0d28,61b909687acc23596b5bf0cc,2021-12-14_13h22.53.227,PRaM,2021.2.3,MacIntel,57.47126437,61b8f3437b89212fae0dfadf
4,3.427,space,1.824,0,129,129,92,1,,,596f003434773e0001fc0d28,61b909687acc23596b5bf0cc,2021-12-14_13h22.53.227,PRaM,2021.2.3,MacIntel,57.47126437,61b8f3437b89212fae0dfadf
7,5.146,space,3.541,0,130,130,7,1,,,596f003434773e0001fc0d28,61b909687acc23596b5bf0cc,2021-12-14_13h22.53.227,PRaM,2021.2.3,MacIntel,57.47126437,61b8f3437b89212fae0dfadf
4,3.794,space,2.14,0,131,131,375,1,,,596f003434773e0001fc0d28,61b909687acc23596b5bf0cc,2021-12-14_13h22.53.227,PRaM,2021.2.3,MacIntel,57.47126437,61b8f3437b89212fae0dfadf
,,space,1.903,0,132,132,323,1,,,596f003434773e0001fc0d28,61b909687acc23596b5bf0cc,2021-12-14_13h22.53.227,PRaM,2021.2.3,MacIntel,57.47126437,61b8f3437b89212fae0dfadf
7,4.527,space,2.923,0,133,133,186,1,,,596f003434773e0001fc0d28,61b909687acc23596b5bf0cc,2021-12-14_13h22.53.227,PRaM,2021.2.3,MacIntel,57.47126437,61b8f3437b89212fae0dfadf
7,3.659,space,2.088,0,134,134,200,1,,,596f003434773e0001fc0d28,61b909687acc23596b5bf0cc,2021-12-14_13h22.53.227,PRaM,2021.2.3,MacIntel,57.47126437,61b8f3437b89212fae0dfadf
1,3.201,space,1.57,0,135,135,73,1,,,596f003434773e0001fc0d28,61b909687acc23596b5bf0cc,2021-12-14_13h22.53.227,PRaM,2021.2.3,MacIntel,57.47126437,61b8f3437b89212fae0dfadf
1,2.55,space,1.153,0,136,136,167,1,,,596f003434773e0001fc0d28,61b909687acc23596b5bf0cc,2021-12-14_13h22.53.227,PRaM,2021.2.3,MacIntel,57.47126437,61b8f3437b89212fae0dfadf
8,2.959,space,1.427,0,137,137,93,1,,,596f003434773e0001fc0d28,61b909687acc23596b5bf0cc,2021-12-14_13h22.53.227,PRaM,2021.2.3,MacIntel,57.47126437,61b8f3437b89212fae0dfadf
4,3.743,space,2.156,0,138,138,22,1,,,596f003434773e0001fc0d28,61b909687acc23596b5bf0cc,2021-12-14_13h22.53.227,PRaM,2021.2.3,MacIntel,57.47126437,61b8f3437b89212fae0dfadf
7,3.051,space,1.429,0,139,139,117,1,,,596f003434773e0001fc0d28,61b909687acc23596b5bf0cc,2021-12-14_13h22.53.227,PRaM,2021.2.3,MacIntel,57.47126437,61b8f3437b89212fae0dfadf
1,2.664,space,1.094,0,140,140,89,1,,,596f003434773e0001fc0d28,61b909687acc23596b5bf0cc,2021-12-14_13h22.53.227,PRaM,2021.2.3,MacIntel,57.47126437,61b8f3437b89212fae0dfadf
8,3.351,space,1.775,0,141,141,279,1,,,596f003434773e0001fc0d28,61b909687acc23596b5bf0cc,2021-12-14_13h22.53.227,PRaM,2021.2.3,MacIntel,57.47126437,61b8f3437b89212fae0dfadf
1,2.931,space,1.364,0,142,142,106,1,,,596f003434773e0001fc0d28,61b909687acc23596b5bf0cc,2021-12-14_13h22.53.227,PRaM,2021.2.3,MacIntel,57.47126437,61b8f3437b89212fae0dfadf
1,2.496,space,0.939,0,143,143,34,1,,,596f003434773e0001fc0d28,61b909687acc23596b5bf0cc,2021-12-14_13h22.53.227,PRaM,2021.2.3,MacIntel,57.47126437,61b8f3437b89212fae0dfadf
7,2.925,space,1.303,0,144,144,327,1,,,596f003434773e0001fc0d28,61b909687acc23596b5bf0cc,2021-12-14_13h22.53.227,PRaM,2021.2.3,MacIntel,57.47126437,61b8f3437b89212fae0dfadf
9,3.4,space,1.756,0,145,145,6,1,,,596f003434773e0001fc0d28,61b909687acc23596b5bf0cc,2021-12-14_13h22.53.227,PRaM,2021.2.3,MacIntel,57.47126437,61b8f3437b89212fae0dfadf
9,2.363,space,0.807,0,146,146,12,1,,,596f003434773e0001fc0d28,61b909687acc23596b5bf0cc,2021-12-14_13h22.53.227,PRaM,2021.2.3,MacIntel,57.47126437,61b8f3437b89212fae0dfadf
2,3.059,space,1.378,0,147,147,24,1,,,596f003434773e0001fc0d28,61b909687acc23596b5bf0cc,2021-12-14_13h22.53.227,PRaM,2021.2.3,MacIntel,57.47126437,61b8f3437b89212fae0dfadf
9,3.964,space,2.324,0,148,148,137,1,,,596f003434773e0001fc0d28,61b909687acc23596b5bf0cc,2021-12-14_13h22.53.227,PRaM,2021.2.3,MacIntel,57.47126437,61b8f3437b89212fae0dfadf
1,2.277,space,0.62,0,149,149,287,1,,,596f003434773e0001fc0d28,61b909687acc23596b5bf0cc,2021-12-14_13h22.53.227,PRaM,2021.2.3,MacIntel,57.47126437,61b8f3437b89212fae0dfadf
3,4.616,space,3.032,0,150,150,273,1,,,596f003434773e0001fc0d28,61b909687acc23596b5bf0cc,2021-12-14_13h22.53.227,PRaM,2021.2.3,MacIntel,57.47126437,61b8f3437b89212fae0dfadf
1,3.168,space,1.56,0,151,151,30,1,,,596f003434773e0001fc0d28,61b909687acc23596b5bf0cc,2021-12-14_13h22.53.227,PRaM,2021.2.3,MacIntel,57.47126437,61b8f3437b89212fae0dfadf
5,3.291,space,1.689,0,152,152,270,1,,,596f003434773e0001fc0d28,61b909687acc23596b5bf0cc,2021-12-14_13h22.53.227,PRaM,2021.2.3,MacIntel,57.47126437,61b8f3437b89212fae0dfadf
6,4.229,space,2.572,0,153,153,345,1,,,596f003434773e0001fc0d28,61b909687acc23596b5bf0cc,2021-12-14_13h22.53.227,PRaM,2021.2.3,MacIntel,57.47126437,61b8f3437b89212fae0dfadf
1,2.858,space,1.218,0,154,154,57,1,,,596f003434773e0001fc0d28,61b909687acc23596b5bf0cc,2021-12-14_13h22.53.227,PRaM,2021.2.3,MacIntel,57.47126437,61b8f3437b89212fae0dfadf
7,2.851,space,1.188,0,155,155,318,1,,,596f003434773e0001fc0d28,61b909687acc23596b5bf0cc,2021-12-14_13h22.53.227,PRaM,2021.2.3,MacIntel,57.47126437,61b8f3437b89212fae0dfadf
1,3.31,space,1.712,0,156,156,101,1,,,596f003434773e0001fc0d28,61b909687acc23596b5bf0cc,2021-12-14_13h22.53.227,PRaM,2021.2.3,MacIntel,57.47126437,61b8f3437b89212fae0dfadf
1,2.463,space,0.971,0,157,157,157,1,,,596f003434773e0001fc0d28,61b909687acc23596b5bf0cc,2021-12-14_13h22.53.227,PRaM,2021.2.3,MacIntel,57.47126437,61b8f3437b89212fae0dfadf
1,9.717,space,8.102,0,158,158,199,1,,,596f003434773e0001fc0d28,61b909687acc23596b5bf0cc,2021-12-14_13h22.53.227,PRaM,2021.2.3,MacIntel,57.47126437,61b8f3437b89212fae0dfadf
7,2.627,space,1.028,0,159,159,298,1,,,596f003434773e0001fc0d28,61b909687acc23596b5bf0cc,2021-12-14_13h22.53.227,PRaM,2021.2.3,MacIntel,57.47126437,61b8f3437b89212fae0dfadf
2,4.227,space,2.634,0,160,160,123,1,,,596f003434773e0001fc0d28,61b909687acc23596b5bf0cc,2021-12-14_13h22.53.227,PRaM,2021.2.3,MacIntel,57.47126437,61b8f3437b89212fae0dfadf
1,4.108,space,2.505,0,161,161,71,1,,,596f003434773e0001fc0d28,61b909687acc23596b5bf0cc,2021-12-14_13h22.53.227,PRaM,2021.2.3,MacIntel,57.47126437,61b8f3437b89212fae0dfadf
7,3.014,space,1.409,0,162,162,158,1,,,596f003434773e0001fc0d28,61b909687acc23596b5bf0cc,2021-12-14_13h22.53.227,PRaM,2021.2.3,MacIntel,57.47126437,61b8f3437b89212fae0dfadf
1,2.693,space,1.059,0,163,163,52,1,,,596f003434773e0001fc0d28,61b909687acc23596b5bf0cc,2021-12-14_13h22.53.227,PRaM,2021.2.3,MacIntel,57.47126437,61b8f3437b89212fae0dfadf
1,3.946,space,2.39,0,164,164,113,1,,,596f003434773e0001fc0d28,61b909687acc23596b5bf0cc,2021-12-14_13h22.53.227,PRaM,2021.2.3,MacIntel,57.47126437,61b8f3437b89212fae0dfadf
3,3.361,space,1.776,0,165,165,171,1,,,596f003434773e0001fc0d28,61b909687acc23596b5bf0cc,2021-12-14_13h22.53.227,PRaM,2021.2.3,MacIntel,57.47126437,61b8f3437b89212fae0dfadf
8,2.992,space,1.352,0,166,166,246,1,,,596f003434773e0001fc0d28,61b909687acc23596b5bf0cc,2021-12-14_13h22.53.227,PRaM,2021.2.3,MacIntel,57.47126437,61b8f3437b89212fae0dfadf
1,4.482,space,2.841,0,167,167,141,1,,,596f003434773e0001fc0d28,61b909687acc23596b5bf0cc,2021-12-14_13h22.53.227,PRaM,2021.2.3,MacIntel,57.47126437,61b8f3437b89212fae0dfadf
6,3.075,space,1.486,0,168,168,60,1,,,596f003434773e0001fc0d28,61b909687acc23596b5bf0cc,2021-12-14_13h22.53.227,PRaM,2021.2.3,MacIntel,57.47126437,61b8f3437b89212fae0dfadf
1,2.559,space,0.946,0,169,169,341,1,,,596f003434773e0001fc0d28,61b909687acc23596b5bf0cc,2021-12-14_13h22.53.227,PRaM,2021.2.3,MacIntel,57.47126437,61b8f3437b89212fae0dfadf
8,2.756,space,1.07,0,170,170,366,1,,,596f003434773e0001fc0d28,61b909687acc23596b5bf0cc,2021-12-14_13h22.53.227,PRaM,2021.2.3,MacIntel,57.47126437,61b8f3437b89212fae0dfadf
5,5.194,space,3.559,0,171,171,143,1,,,596f003434773e0001fc0d28,61b909687acc23596b5bf0cc,2021-12-14_13h22.53.227,PRaM,2021.2.3,MacIntel,57.47126437,61b8f3437b89212fae0dfadf
8,2.293,space,0.623,0,172,172,305,1,,,596f003434773e0001fc0d28,61b909687acc23596b5bf0cc,2021-12-14_13h22.53.227,PRaM,2021.2.3,MacIntel,57.47126437,61b8f3437b89212fae0dfadf
5,3.01,space,1.403,0,173,173,336,1,,,596f003434773e0001fc0d28,61b909687acc23596b5bf0cc,2021-12-14_13h22.53.227,PRaM,2021.2.3,MacIntel,57.47126437,61b8f3437b89212fae0dfadf
1,4.533,space,2.927,0,174,174,193,1,,,596f003434773e0001fc0d28,61b909687acc23596b5bf0cc,2021-12-14_13h22.53.227,PRaM,2021.2.3,MacIntel,57.47126437,61b8f3437b89212fae0dfadf
7,4.617,space,2.991,0,175,175,261,1,,,596f003434773e0001fc0d28,61b909687acc23596b5bf0cc,2021-12-14_13h22.53.227,PRaM,2021.2.3,MacIntel,57.47126437,61b8f3437b89212fae0dfadf
1,3.13,space,1.509,0,176,176,78,1,,,596f003434773e0001fc0d28,61b909687acc23596b5bf0cc,2021-12-14_13h22.53.227,PRaM,2021.2.3,MacIntel,57.47126437,61b8f3437b89212fae0dfadf
1,3.761,space,2.107,0,177,177,48,1,,,596f003434773e0001fc0d28,61b909687acc23596b5bf0cc,2021-12-14_13h22.53.227,PRaM,2021.2.3,MacIntel,57.47126437,61b8f3437b89212fae0dfadf
1,3.426,space,1.98,0,178,178,31,1,,,596f003434773e0001fc0d28,61b909687acc23596b5bf0cc,2021-12-14_13h22.53.227,PRaM,2021.2.3,MacIntel,57.47126437,61b8f3437b89212fae0dfadf
1,2.765,space,1.138,0,179,179,198,1,,,596f003434773e0001fc0d28,61b909687acc23596b5bf0cc,2021-12-14_13h22.53.227,PRaM,2021.2.3,MacIntel,57.47126437,61b8f3437b89212fae0dfadf
6,2.843,space,1.335,0,180,180,294,1,,,596f003434773e0001fc0d28,61b909687acc23596b5bf0cc,2021-12-14_13h22.53.227,PRaM,2021.2.3,MacIntel,57.47126437,61b8f3437b89212fae0dfadf
5,5.847,space,4.073,0,181,181,100,1,,,596f003434773e0001fc0d28,61b909687acc23596b5bf0cc,2021-12-14_13h22.53.227,PRaM,2021.2.3,MacIntel,57.47126437,61b8f3437b89212fae0dfadf
8,2.345,space,0.704,0,182,182,177,1,,,596f003434773e0001fc0d28,61b909687acc23596b5bf0cc,2021-12-14_13h22.53.227,PRaM,2021.2.3,MacIntel,57.47126437,61b8f3437b89212fae0dfadf
1,2.744,space,1.163,0,183,183,272,1,,,596f003434773e0001fc0d28,61b909687acc23596b5bf0cc,2021-12-14_13h22.53.227,PRaM,2021.2.3,MacIntel,57.47126437,61b8f3437b89212fae0dfadf
1,4.103,space,2.507,0,184,184,227,1,,,596f003434773e0001fc0d28,61b909687acc23596b5bf0cc,2021-12-14_13h22.53.227,PRaM,2021.2.3,MacIntel,57.47126437,61b8f3437b89212fae0dfadf
9,2.726,space,1.077,0,185,185,38,1,,,596f003434773e0001fc0d28,61b909687acc23596b5bf0cc,2021-12-14_13h22.53.227,PRaM,2021.2.3,MacIntel,57.47126437,61b8f3437b89212fae0dfadf
5,4.701,space,3.096,0,186,186,181,1,,,596f003434773e0001fc0d28,61b909687acc23596b5bf0cc,2021-12-14_13h22.53.227,PRaM,2021.2.3,MacIntel,57.47126437,61b8f3437b89212fae0dfadf
1,3.067,space,1.428,0,187,187,260,1,,,596f003434773e0001fc0d28,61b909687acc23596b5bf0cc,2021-12-14_13h22.53.227,PRaM,2021.2.3,MacIntel,57.47126437,61b8f3437b89212fae0dfadf
1,2.535,space,0.993,0,188,188,257,1,,,596f003434773e0001fc0d28,61b909687acc23596b5bf0cc,2021-12-14_13h22.53.227,PRaM,2021.2.3,MacIntel,57.47126437,61b8f3437b89212fae0dfadf
1,3.776,space,2.166,0,189,189,353,1,,,596f003434773e0001fc0d28,61b909687acc23596b5bf0cc,2021-12-14_13h22.53.227,PRaM,2021.2.3,MacIntel,57.47126437,61b8f3437b89212fae0dfadf
9,3.793,space,2.249,0,190,190,14,1,,,596f003434773e0001fc0d28,61b909687acc23596b5bf0cc,2021-12-14_13h22.53.227,PRaM,2021.2.3,MacIntel,57.47126437,61b8f3437b89212fae0dfadf
2,3.512,space,1.961,0,191,191,68,1,,,596f003434773e0001fc0d28,61b909687acc23596b5bf0cc,2021-12-14_13h22.53.227,PRaM,2021.2.3,MacIntel,57.47126437,61b8f3437b89212fae0dfadf
2,5.111,space,3.545,0,192,192,253,1,,,596f003434773e0001fc0d28,61b909687acc23596b5bf0cc,2021-12-14_13h22.53.227,PRaM,2021.2.3,MacIntel,57.47126437,61b8f3437b89212fae0dfadf
2,4.369,space,2.738,0,193,193,268,1,,,596f003434773e0001fc0d28,61b909687acc23596b5bf0cc,2021-12-14_13h22.53.227,PRaM,2021.2.3,MacIntel,57.47126437,61b8f3437b89212fae0dfadf
5,3.59,space,2,0,194,194,163,1,,,596f003434773e0001fc0d28,61b909687acc23596b5bf0cc,2021-12-14_13h22.53.227,PRaM,2021.2.3,MacIntel,57.47126437,61b8f3437b89212fae0dfadf
9,2.522,space,0.891,0,195,195,288,1,,,596f003434773e0001fc0d28,61b909687acc23596b5bf0cc,2021-12-14_13h22.53.227,PRaM,2021.2.3,MacIntel,57.47126437,61b8f3437b89212fae0dfadf
1,3.201,space,1.587,0,196,196,41,1,,,596f003434773e0001fc0d28,61b909687acc23596b5bf0cc,2021-12-14_13h22.53.227,PRaM,2021.2.3,MacIntel,57.47126437,61b8f3437b89212fae0dfadf
4,3.614,space,1.992,0,197,197,104,1,,,596f003434773e0001fc0d28,61b909687acc23596b5bf0cc,2021-12-14_13h22.53.227,PRaM,2021.2.3,MacIntel,57.47126437,61b8f3437b89212fae0dfadf
8,2.54,space,0.892,0,198,198,64,1,,,596f003434773e0001fc0d28,61b909687acc23596b5bf0cc,2021-12-14_13h22.53.227,PRaM,2021.2.3,MacIntel,57.47126437,61b8f3437b89212fae0dfadf
1,3.092,space,1.476,0,199,199,212,1,,,596f003434773e0001fc0d28,61b909687acc23596b5bf0cc,2021-12-14_13h22.53.227,PRaM,2021.2.3,MacIntel,57.47126437,61b8f3437b89212fae0dfadf
2,3.714,space,2.054,0,200,200,329,1,,,596f003434773e0001fc0d28,61b909687acc23596b5bf0cc,2021-12-14_13h22.53.227,PRaM,2021.2.3,MacIntel,57.47126437,61b8f3437b89212fae0dfadf
2,4.243,space,2.573,0,201,201,132,1,,,596f003434773e0001fc0d28,61b909687acc23596b5bf0cc,2021-12-14_13h22.53.227,PRaM,2021.2.3,MacIntel,57.47126437,61b8f3437b89212fae0dfadf
7,3.528,space,1.873,0,202,202,80,1,,,596f003434773e0001fc0d28,61b909687acc23596b5bf0cc,2021-12-14_13h22.53.227,PRaM,2021.2.3,MacIntel,57.47126437,61b8f3437b89212fae0dfadf
9,3.232,space,1.647,0,203,203,208,1,,,596f003434773e0001fc0d28,61b909687acc23596b5bf0cc,2021-12-14_13h22.53.227,PRaM,2021.2.3,MacIntel,57.47126437,61b8f3437b89212fae0dfadf
1,3.843,space,2.194,0,204,204,142,1,,,596f003434773e0001fc0d28,61b909687acc23596b5bf0cc,2021-12-14_13h22.53.227,PRaM,2021.2.3,MacIntel,57.47126437,61b8f3437b89212fae0dfadf
6,3.426,space,1.847,0,205,205,333,1,,,596f003434773e0001fc0d28,61b909687acc23596b5bf0cc,2021-12-14_13h22.53.227,PRaM,2021.2.3,MacIntel,57.47126437,61b8f3437b89212fae0dfadf
1,2.136,space,0.561,0,206,206,367,1,,,596f003434773e0001fc0d28,61b909687acc23596b5bf0cc,2021-12-14_13h22.53.227,PRaM,2021.2.3,MacIntel,57.47126437,61b8f3437b89212fae0dfadf
8,3.308,space,1.662,0,207,207,196,1,,,596f003434773e0001fc0d28,61b909687acc23596b5bf0cc,2021-12-14_13h22.53.227,PRaM,2021.2.3,MacIntel,57.47126437,61b8f3437b89212fae0dfadf
8,3.478,space,1.863,0,208,208,164,1,,,596f003434773e0001fc0d28,61b909687acc23596b5bf0cc,2021-12-14_13h22.53.227,PRaM,2021.2.3,MacIntel,57.47126437,61b8f3437b89212fae0dfadf
1,3.061,space,1.41,0,209,209,148,1,,,596f003434773e0001fc0d28,61b909687acc23596b5bf0cc,2021-12-14_13h22.53.227,PRaM,2021.2.3,MacIntel,57.47126437,61b8f3437b89212fae0dfadf
8,4.443,space,2.812,0,210,210,269,1,,,596f003434773e0001fc0d28,61b909687acc23596b5bf0cc,2021-12-14_13h22.53.227,PRaM,2021.2.3,MacIntel,57.47126437,61b8f3437b89212fae0dfadf
1,2.347,space,0.721,0,211,211,124,1,,,596f003434773e0001fc0d28,61b909687acc23596b5bf0cc,2021-12-14_13h22.53.227,PRaM,2021.2.3,MacIntel,57.47126437,61b8f3437b89212fae0dfadf
1,2.482,space,0.854,0,212,212,13,1,,,596f003434773e0001fc0d28,61b909687acc23596b5bf0cc,2021-12-14_13h22.53.227,PRaM,2021.2.3,MacIntel,57.47126437,61b8f3437b89212fae0dfadf
1,1.858,space,0.609,0,213,213,311,1,,,596f003434773e0001fc0d28,61b909687acc23596b5bf0cc,2021-12-14_13h22.53.227,PRaM,2021.2.3,MacIntel,57.47126437,61b8f3437b89212fae0dfadf
6,3.557,space,1.887,0,214,214,370,1,,,596f003434773e0001fc0d28,61b909687acc23596b5bf0cc,2021-12-14_13h22.53.227,PRaM,2021.2.3,MacIntel,57.47126437,61b8f3437b89212fae0dfadf
1,3.385,space,1.692,0,215,215,184,1,,,596f003434773e0001fc0d28,61b909687acc23596b5bf0cc,2021-12-14_13h22.53.227,PRaM,2021.2.3,MacIntel,57.47126437,61b8f3437b89212fae0dfadf
9,2.664,space,1.011,0,216,216,4,1,,,596f003434773e0001fc0d28,61b909687acc23596b5bf0cc,2021-12-14_13h22.53.227,PRaM,2021.2.3,MacIntel,57.47126437,61b8f3437b89212fae0dfadf
8,3.193,space,1.557,0,217,217,363,1,,,596f003434773e0001fc0d28,61b909687acc23596b5bf0cc,2021-12-14_13h22.53.227,PRaM,2021.2.3,MacIntel,57.47126437,61b8f3437b89212fae0dfadf
2,4.727,space,3.075,0,218,218,172,1,,,596f003434773e0001fc0d28,61b909687acc23596b5bf0cc,2021-12-14_13h22.53.227,PRaM,2021.2.3,MacIntel,57.47126437,61b8f3437b89212fae0dfadf
1,4.033,space,2.374,0,219,219,45,1,,,596f003434773e0001fc0d28,61b909687acc23596b5bf0cc,2021-12-14_13h22.53.227,PRaM,2021.2.3,MacIntel,57.47126437,61b8f3437b89212fae0dfadf
9,2.624,space,1.013,0,220,220,173,1,,,596f003434773e0001fc0d28,61b909687acc23596b5bf0cc,2021-12-14_13h22.53.227,PRaM,2021.2.3,MacIntel,57.47126437,61b8f3437b89212fae0dfadf
9,3.767,space,2.128,0,221,221,197,1,,,596f003434773e0001fc0d28,61b909687acc23596b5bf0cc,2021-12-14_13h22.53.227,PRaM,2021.2.3,MacIntel,57.47126437,61b8f3437b89212fae0dfadf
5,5.719,space,4.042,0,222,222,317,1,,,596f003434773e0001fc0d28,61b909687acc23596b5bf0cc,2021-12-14_13h22.53.227,PRaM,2021.2.3,MacIntel,57.47126437,61b8f3437b89212fae0dfadf
1,1.932,space,0.27,0,223,223,376,1,,,596f003434773e0001fc0d28,61b909687acc23596b5bf0cc,2021-12-14_13h22.53.227,PRaM,2021.2.3,MacIntel,57.47126437,61b8f3437b89212fae0dfadf
9,4.016,space,2.423,0,224,224,74,1,,,596f003434773e0001fc0d28,61b909687acc23596b5bf0cc,2021-12-14_13h22.53.227,PRaM,2021.2.3,MacIntel,57.47126437,61b8f3437b89212fae0dfadf
1,5.265,space,3.658,0,225,225,2,1,,,596f003434773e0001fc0d28,61b909687acc23596b5bf0cc,2021-12-14_13h22.53.227,PRaM,2021.2.3,MacIntel,57.47126437,61b8f3437b89212fae0dfadf
1,3.345,space,1.772,0,226,226,190,1,,,596f003434773e0001fc0d28,61b909687acc23596b5bf0cc,2021-12-14_13h22.53.227,PRaM,2021.2.3,MacIntel,57.47126437,61b8f3437b89212fae0dfadf
3,4.246,space,2.647,0,227,227,232,1,,,596f003434773e0001fc0d28,61b909687acc23596b5bf0cc,2021-12-14_13h22.53.227,PRaM,2021.2.3,MacIntel,57.47126437,61b8f3437b89212fae0dfadf
2,3.127,space,1.477,0,228,228,201,1,,,596f003434773e0001fc0d28,61b909687acc23596b5bf0cc,2021-12-14_13h22.53.227,PRaM,2021.2.3,MacIntel,57.47126437,61b8f3437b89212fae0dfadf
6,3.501,space,1.97,0,229,229,347,1,,,596f003434773e0001fc0d28,61b909687acc23596b5bf0cc,2021-12-14_13h22.53.227,PRaM,2021.2.3,MacIntel,57.47126437,61b8f3437b89212fae0dfadf
6,2.804,space,1.147,0,230,230,16,1,,,596f003434773e0001fc0d28,61b909687acc23596b5bf0cc,2021-12-14_13h22.53.227,PRaM,2021.2.3,MacIntel,57.47126437,61b8f3437b89212fae0dfadf
1,4.046,space,2.439,0,231,231,111,1,,,596f003434773e0001fc0d28,61b909687acc23596b5bf0cc,2021-12-14_13h22.53.227,PRaM,2021.2.3,MacIntel,57.47126437,61b8f3437b89212fae0dfadf
9,2.601,space,1.022,0,232,232,319,1,,,596f003434773e0001fc0d28,61b909687acc23596b5bf0cc,2021-12-14_13h22.53.227,PRaM,2021.2.3,MacIntel,57.47126437,61b8f3437b89212fae0dfadf
5,3.359,space,1.739,0,233,233,216,1,,,596f003434773e0001fc0d28,61b909687acc23596b5bf0cc,2021-12-14_13h22.53.227,PRaM,2021.2.3,MacIntel,57.47126437,61b8f3437b89212fae0dfadf
1,3.402,space,1.764,0,234,234,251,1,,,596f003434773e0001fc0d28,61b909687acc23596b5bf0cc,2021-12-14_13h22.53.227,PRaM,2021.2.3,MacIntel,57.47126437,61b8f3437b89212fae0dfadf
1,4.047,space,2.457,0,235,235,63,1,,,596f003434773e0001fc0d28,61b909687acc23596b5bf0cc,2021-12-14_13h22.53.227,PRaM,2021.2.3,MacIntel,57.47126437,61b8f3437b89212fae0dfadf
1,1.982,space,0.511,0,236,236,129,1,,,596f003434773e0001fc0d28,61b909687acc23596b5bf0cc,2021-12-14_13h22.53.227,PRaM,2021.2.3,MacIntel,57.47126437,61b8f3437b89212fae0dfadf
9,3.335,space,1.839,0,237,237,84,1,,,596f003434773e0001fc0d28,61b909687acc23596b5bf0cc,2021-12-14_13h22.53.227,PRaM,2021.2.3,MacIntel,57.47126437,61b8f3437b89212fae0dfadf
2,4.077,space,2.491,0,238,238,99,1,,,596f003434773e0001fc0d28,61b909687acc23596b5bf0cc,2021-12-14_13h22.53.227,PRaM,2021.2.3,MacIntel,57.47126437,61b8f3437b89212fae0dfadf
2,3.71,space,2.067,0,239,239,90,1,,,596f003434773e0001fc0d28,61b909687acc23596b5bf0cc,2021-12-14_13h22.53.227,PRaM,2021.2.3,MacIntel,57.47126437,61b8f3437b89212fae0dfadf
1,2.356,space,0.739,0,240,240,58,1,,,596f003434773e0001fc0d28,61b909687acc23596b5bf0cc,2021-12-14_13h22.53.227,PRaM,2021.2.3,MacIntel,57.47126437,61b8f3437b89212fae0dfadf
8,2.524,space,0.888,0,241,241,325,1,,,596f003434773e0001fc0d28,61b909687acc23596b5bf0cc,2021-12-14_13h22.53.227,PRaM,2021.2.3,MacIntel,57.47126437,61b8f3437b89212fae0dfadf
9,3.311,space,1.666,0,242,242,242,1,,,596f003434773e0001fc0d28,61b909687acc23596b5bf0cc,2021-12-14_13h22.53.227,PRaM,2021.2.3,MacIntel,57.47126437,61b8f3437b89212fae0dfadf
6,2.862,space,1.22,0,243,243,254,1,,,596f003434773e0001fc0d28,61b909687acc23596b5bf0cc,2021-12-14_13h22.53.227,PRaM,2021.2.3,MacIntel,57.47126437,61b8f3437b89212fae0dfadf
1,3.341,space,1.783,0,244,244,174,1,,,596f003434773e0001fc0d28,61b909687acc23596b5bf0cc,2021-12-14_13h22.53.227,PRaM,2021.2.3,MacIntel,57.47126437,61b8f3437b89212fae0dfadf
1,1.689,space,0.109,0,245,245,77,1,,,596f003434773e0001fc0d28,61b909687acc23596b5bf0cc,2021-12-14_13h22.53.227,PRaM,2021.2.3,MacIntel,57.47126437,61b8f3437b89212fae0dfadf
1,2.401,space,0.781,0,246,246,18,1,,,596f003434773e0001fc0d28,61b909687acc23596b5bf0cc,2021-12-14_13h22.53.227,PRaM,2021.2.3,MacIntel,57.47126437,61b8f3437b89212fae0dfadf
1,2.224,space,0.722,0,247,247,275,1,,,596f003434773e0001fc0d28,61b909687acc23596b5bf0cc,2021-12-14_13h22.53.227,PRaM,2021.2.3,MacIntel,57.47126437,61b8f3437b89212fae0dfadf
1,2.474,space,0.913,0,248,248,204,1,,,596f003434773e0001fc0d28,61b909687acc23596b5bf0cc,2021-12-14_13h22.53.227,PRaM,2021.2.3,MacIntel,57.47126437,61b8f3437b89212fae0dfadf
9,4.782,space,3.43,0,249,249,207,1,,,596f003434773e0001fc0d28,61b909687acc23596b5bf0cc,2021-12-14_13h22.53.227,PRaM,2021.2.3,MacIntel,57.47126437,61b8f3437b89212fae0dfadf
8,3.534,space,1.976,0,250,250,19,1,,,596f003434773e0001fc0d28,61b909687acc23596b5bf0cc,2021-12-14_13h22.53.227,PRaM,2021.2.3,MacIntel,57.47126437,61b8f3437b89212fae0dfadf
9,2.715,space,1.153,0,251,251,326,1,,,596f003434773e0001fc0d28,61b909687acc23596b5bf0cc,2021-12-14_13h22.53.227,PRaM,2021.2.3,MacIntel,57.47126437,61b8f3437b89212fae0dfadf
1,3.352,space,1.845,0,252,252,312,1,,,596f003434773e0001fc0d28,61b909687acc23596b5bf0cc,2021-12-14_13h22.53.227,PRaM,2021.2.3,MacIntel,57.47126437,61b8f3437b89212fae0dfadf
2,3.644,space,2.095,0,253,253,118,1,,,596f003434773e0001fc0d28,61b909687acc23596b5bf0cc,2021-12-14_13h22.53.227,PRaM,2021.2.3,MacIntel,57.47126437,61b8f3437b89212fae0dfadf
1,2.912,space,1.346,0,254,254,122,1,,,596f003434773e0001fc0d28,61b909687acc23596b5bf0cc,2021-12-14_13h22.53.227,PRaM,2021.2.3,MacIntel,57.47126437,61b8f3437b89212fae0dfadf
7,8.318,space,6.739,0,255,255,32,1,,,596f003434773e0001fc0d28,61b909687acc23596b5bf0cc,2021-12-14_13h22.53.227,PRaM,2021.2.3,MacIntel,57.47126437,61b8f3437b89212fae0dfadf
1,3.165,space,1.575,0,256,256,79,1,,,596f003434773e0001fc0d28,61b909687acc23596b5bf0cc,2021-12-14_13h22.53.227,PRaM,2021.2.3,MacIntel,57.47126437,61b8f3437b89212fae0dfadf
1,2.678,space,1.073,0,257,257,183,1,,,596f003434773e0001fc0d28,61b909687acc23596b5bf0cc,2021-12-14_13h22.53.227,PRaM,2021.2.3,MacIntel,57.47126437,61b8f3437b89212fae0dfadf
1,3.134,space,1.591,0,258,258,359,1,,,596f003434773e0001fc0d28,61b909687acc23596b5bf0cc,2021-12-14_13h22.53.227,PRaM,2021.2.3,MacIntel,57.47126437,61b8f3437b89212fae0dfadf
1,3.346,space,1.873,0,259,259,248,1,,,596f003434773e0001fc0d28,61b909687acc23596b5bf0cc,2021-12-14_13h22.53.227,PRaM,2021.2.3,MacIntel,57.47126437,61b8f3437b89212fae0dfadf
1,2.281,space,0.75,0,260,260,8,1,,,596f003434773e0001fc0d28,61b909687acc23596b5bf0cc,2021-12-14_13h22.53.227,PRaM,2021.2.3,MacIntel,57.47126437,61b8f3437b89212fae0dfadf
4,3.695,space,2.107,0,261,261,324,1,,,596f003434773e0001fc0d28,61b909687acc23596b5bf0cc,2021-12-14_13h22.53.227,PRaM,2021.2.3,MacIntel,57.47126437,61b8f3437b89212fae0dfadf
7,3.248,space,1.647,0,262,262,182,1,,,596f003434773e0001fc0d28,61b909687acc23596b5bf0cc,2021-12-14_13h22.53.227,PRaM,2021.2.3,MacIntel,57.47126437,61b8f3437b89212fae0dfadf
5,3.111,space,1.425,0,263,263,340,1,,,596f003434773e0001fc0d28,61b909687acc23596b5bf0cc,2021-12-14_13h22.53.227,PRaM,2021.2.3,MacIntel,57.47126437,61b8f3437b89212fae0dfadf
9,3.484,space,1.895,0,264,264,85,1,,,596f003434773e0001fc0d28,61b909687acc23596b5bf0cc,2021-12-14_13h22.53.227,PRaM,2021.2.3,MacIntel,57.47126437,61b8f3437b89212fae0dfadf
7,4.079,space,2.447,0,265,265,352,1,,,596f003434773e0001fc0d28,61b909687acc23596b5bf0cc,2021-12-14_13h22.53.227,PRaM,2021.2.3,MacIntel,57.47126437,61b8f3437b89212fae0dfadf
5,3.326,space,1.721,0,266,266,344,1,,,596f003434773e0001fc0d28,61b909687acc23596b5bf0cc,2021-12-14_13h22.53.227,PRaM,2021.2.3,MacIntel,57.47126437,61b8f3437b89212fae0dfadf
1,3.699,space,2.348,0,267,267,203,1,,,596f003434773e0001fc0d28,61b909687acc23596b5bf0cc,2021-12-14_13h22.53.227,PRaM,2021.2.3,MacIntel,57.47126437,61b8f3437b89212fae0dfadf
8,3.856,space,2.395,0,268,268,304,1,,,596f003434773e0001fc0d28,61b909687acc23596b5bf0cc,2021-12-14_13h22.53.227,PRaM,2021.2.3,MacIntel,57.47126437,61b8f3437b89212fae0dfadf
7,2.564,space,0.914,0,269,269,306,1,,,596f003434773e0001fc0d28,61b909687acc23596b5bf0cc,2021-12-14_13h22.53.227,PRaM,2021.2.3,MacIntel,57.47126437,61b8f3437b89212fae0dfadf
1,2.79,space,1.164,0,270,270,330,1,,,596f003434773e0001fc0d28,61b909687acc23596b5bf0cc,2021-12-14_13h22.53.227,PRaM,2021.2.3,MacIntel,57.47126437,61b8f3437b89212fae0dfadf
7,2.829,space,1.188,0,271,271,15,1,,,596f003434773e0001fc0d28,61b909687acc23596b5bf0cc,2021-12-14_13h22.53.227,PRaM,2021.2.3,MacIntel,57.47126437,61b8f3437b89212fae0dfadf
1,4.052,space,2.375,0,272,272,214,1,,,596f003434773e0001fc0d28,61b909687acc23596b5bf0cc,2021-12-14_13h22.53.227,PRaM,2021.2.3,MacIntel,57.47126437,61b8f3437b89212fae0dfadf
1,2.791,space,1.172,0,273,273,292,1,,,596f003434773e0001fc0d28,61b909687acc23596b5bf0cc,2021-12-14_13h22.53.227,PRaM,2021.2.3,MacIntel,57.47126437,61b8f3437b89212fae0dfadf
1,3.781,space,2.161,0,274,274,54,1,,,596f003434773e0001fc0d28,61b909687acc23596b5bf0cc,2021-12-14_13h22.53.227,PRaM,2021.2.3,MacIntel,57.47126437,61b8f3437b89212fae0dfadf
1,2.73,space,1.141,0,275,275,81,1,,,596f003434773e0001fc0d28,61b909687acc23596b5bf0cc,2021-12-14_13h22.53.227,PRaM,2021.2.3,MacIntel,57.47126437,61b8f3437b89212fae0dfadf
3,3.752,space,2.105,0,276,276,310,1,,,596f003434773e0001fc0d28,61b909687acc23596b5bf0cc,2021-12-14_13h22.53.227,PRaM,2021.2.3,MacIntel,57.47126437,61b8f3437b89212fae0dfadf
8,2.626,space,0.993,0,277,277,355,1,,,596f003434773e0001fc0d28,61b909687acc23596b5bf0cc,2021-12-14_13h22.53.227,PRaM,2021.2.3,MacIntel,57.47126437,61b8f3437b89212fae0dfadf
1,2.866,space,1.228,0,278,278,170,1,,,596f003434773e0001fc0d28,61b909687acc23596b5bf0cc,2021-12-14_13h22.53.227,PRaM,2021.2.3,MacIntel,57.47126437,61b8f3437b89212fae0dfadf
6,3.75,space,2.091,0,279,279,140,1,,,596f003434773e0001fc0d28,61b909687acc23596b5bf0cc,2021-12-14_13h22.53.227,PRaM,2021.2.3,MacIntel,57.47126437,61b8f3437b89212fae0dfadf
3,3.192,space,1.571,0,280,280,351,1,,,596f003434773e0001fc0d28,61b909687acc23596b5bf0cc,2021-12-14_13h22.53.227,PRaM,2021.2.3,MacIntel,57.47126437,61b8f3437b89212fae0dfadf
1,9.307,space,7.782,0,281,281,169,1,,,596f003434773e0001fc0d28,61b909687acc23596b5bf0cc,2021-12-14_13h22.53.227,PRaM,2021.2.3,MacIntel,57.47126437,61b8f3437b89212fae0dfadf
7,3.06,space,1.489,0,282,282,290,1,,,596f003434773e0001fc0d28,61b909687acc23596b5bf0cc,2021-12-14_13h22.53.227,PRaM,2021.2.3,MacIntel,57.47126437,61b8f3437b89212fae0dfadf
6,3.282,space,1.842,0,283,283,239,1,,,596f003434773e0001fc0d28,61b909687acc23596b5bf0cc,2021-12-14_13h22.53.227,PRaM,2021.2.3,MacIntel,57.47126437,61b8f3437b89212fae0dfadf
1,2.233,space,0.596,0,284,284,362,1,,,596f003434773e0001fc0d28,61b909687acc23596b5bf0cc,2021-12-14_13h22.53.227,PRaM,2021.2.3,MacIntel,57.47126437,61b8f3437b89212fae0dfadf
6,3.566,space,1.941,0,285,285,194,1,,,596f003434773e0001fc0d28,61b909687acc23596b5bf0cc,2021-12-14_13h22.53.227,PRaM,2021.2.3,MacIntel,57.47126437,61b8f3437b89212fae0dfadf
1,3.159,space,1.554,0,286,286,231,1,,,596f003434773e0001fc0d28,61b909687acc23596b5bf0cc,2021-12-14_13h22.53.227,PRaM,2021.2.3,MacIntel,57.47126437,61b8f3437b89212fae0dfadf
9,3.33,space,1.717,0,287,287,75,1,,,596f003434773e0001fc0d28,61b909687acc23596b5bf0cc,2021-12-14_13h22.53.227,PRaM,2021.2.3,MacIntel,57.47126437,61b8f3437b89212fae0dfadf
1,2.572,space,0.964,0,288,288,103,1,,,596f003434773e0001fc0d28,61b909687acc23596b5bf0cc,2021-12-14_13h22.53.227,PRaM,2021.2.3,MacIntel,57.47126437,61b8f3437b89212fae0dfadf
1,2.791,space,1.226,0,289,289,72,1,,,596f003434773e0001fc0d28,61b909687acc23596b5bf0cc,2021-12-14_13h22.53.227,PRaM,2021.2.3,MacIntel,57.47126437,61b8f3437b89212fae0dfadf
6,3.465,space,1.808,0,290,290,151,1,,,596f003434773e0001fc0d28,61b909687acc23596b5bf0cc,2021-12-14_13h22.53.227,PRaM,2021.2.3,MacIntel,57.47126437,61b8f3437b89212fae0dfadf
1,2.559,space,1.047,0,291,291,49,1,,,596f003434773e0001fc0d28,61b909687acc23596b5bf0cc,2021-12-14_13h22.53.227,PRaM,2021.2.3,MacIntel,57.47126437,61b8f3437b89212fae0dfadf
1,3.886,space,2.211,0,292,292,23,1,,,596f003434773e0001fc0d28,61b909687acc23596b5bf0cc,2021-12-14_13h22.53.227,PRaM,2021.2.3,MacIntel,57.47126437,61b8f3437b89212fae0dfadf
4,4.385,space,2.73,0,293,293,369,1,,,596f003434773e0001fc0d28,61b909687acc23596b5bf0cc,2021-12-14_13h22.53.227,PRaM,2021.2.3,MacIntel,57.47126437,61b8f3437b89212fae0dfadf
1,2.809,space,1.176,0,294,294,40,1,,,596f003434773e0001fc0d28,61b909687acc23596b5bf0cc,2021-12-14_13h22.53.227,PRaM,2021.2.3,MacIntel,57.47126437,61b8f3437b89212fae0dfadf
1,2.24,space,0.607,0,295,295,188,1,,,596f003434773e0001fc0d28,61b909687acc23596b5bf0cc,2021-12-14_13h22.53.227,PRaM,2021.2.3,MacIntel,57.47126437,61b8f3437b89212fae0dfadf
1,3.032,space,1.381,0,296,296,97,1,,,596f003434773e0001fc0d28,61b909687acc23596b5bf0cc,2021-12-14_13h22.53.227,PRaM,2021.2.3,MacIntel,57.47126437,61b8f3437b89212fae0dfadf
6,3.476,space,1.842,0,297,297,267,1,,,596f003434773e0001fc0d28,61b909687acc23596b5bf0cc,2021-12-14_13h22.53.227,PRaM,2021.2.3,MacIntel,57.47126437,61b8f3437b89212fae0dfadf
1,3.51,space,1.881,0,298,298,125,1,,,596f003434773e0001fc0d28,61b909687acc23596b5bf0cc,2021-12-14_13h22.53.227,PRaM,2021.2.3,MacIntel,57.47126437,61b8f3437b89212fae0dfadf
1,1.462,space,4.362,0,299,299,374,1,,,596f003434773e0001fc0d28,61b909687acc23596b5bf0cc,2021-12-14_13h22.53.227,PRaM,2021.2.3,MacIntel,57.47126437,61b8f3437b89212fae0dfadf
1,7.801,space,6.196,0,300,300,1,1,,,596f003434773e0001fc0d28,61b909687acc23596b5bf0cc,2021-12-14_13h22.53.227,PRaM,2021.2.3,MacIntel,57.47126437,61b8f3437b89212fae0dfadf
8,2.526,space,0.905,0,301,301,66,1,,,596f003434773e0001fc0d28,61b909687acc23596b5bf0cc,2021-12-14_13h22.53.227,PRaM,2021.2.3,MacIntel,57.47126437,61b8f3437b89212fae0dfadf
9,2.908,space,1.307,0,302,302,271,1,,,596f003434773e0001fc0d28,61b909687acc23596b5bf0cc,2021-12-14_13h22.53.227,PRaM,2021.2.3,MacIntel,57.47126437,61b8f3437b89212fae0dfadf
2,5.831,space,4.202,0,303,303,47,1,,,596f003434773e0001fc0d28,61b909687acc23596b5bf0cc,2021-12-14_13h22.53.227,PRaM,2021.2.3,MacIntel,57.47126437,61b8f3437b89212fae0dfadf
3,4.092,space,2.407,0,304,304,119,1,,,596f003434773e0001fc0d28,61b909687acc23596b5bf0cc,2021-12-14_13h22.53.227,PRaM,2021.2.3,MacIntel,57.47126437,61b8f3437b89212fae0dfadf
8,3.787,space,2.148,0,305,305,166,1,,,596f003434773e0001fc0d28,61b909687acc23596b5bf0cc,2021-12-14_13h22.53.227,PRaM,2021.2.3,MacIntel,57.47126437,61b8f3437b89212fae0dfadf
7,4.301,space,2.65,0,306,306,150,1,,,596f003434773e0001fc0d28,61b909687acc23596b5bf0cc,2021-12-14_13h22.53.227,PRaM,2021.2.3,MacIntel,57.47126437,61b8f3437b89212fae0dfadf
7,2.917,space,1.307,0,307,307,263,1,,,596f003434773e0001fc0d28,61b909687acc23596b5bf0cc,2021-12-14_13h22.53.227,PRaM,2021.2.3,MacIntel,57.47126437,61b8f3437b89212fae0dfadf
9,2.35,space,0.76,0,308,308,348,1,,,596f003434773e0001fc0d28,61b909687acc23596b5bf0cc,2021-12-14_13h22.53.227,PRaM,2021.2.3,MacIntel,57.47126437,61b8f3437b89212fae0dfadf
7,3.181,space,1.529,0,309,309,59,1,,,596f003434773e0001fc0d28,61b909687acc23596b5bf0cc,2021-12-14_13h22.53.227,PRaM,2021.2.3,MacIntel,57.47126437,61b8f3437b89212fae0dfadf
1,3.036,space,1.366,0,310,310,195,1,,,596f003434773e0001fc0d28,61b909687acc23596b5bf0cc,2021-12-14_13h22.53.227,PRaM,2021.2.3,MacIntel,57.47126437,61b8f3437b89212fae0dfadf
4,2.981,space,1.322,0,311,311,258,1,,,596f003434773e0001fc0d28,61b909687acc23596b5bf0cc,2021-12-14_13h22.53.227,PRaM,2021.2.3,MacIntel,57.47126437,61b8f3437b89212fae0dfadf
1,2.681,space,1.057,0,312,312,5,1,,,596f003434773e0001fc0d28,61b909687acc23596b5bf0cc,2021-12-14_13h22.53.227,PRaM,2021.2.3,MacIntel,57.47126437,61b8f3437b89212fae0dfadf
1,2.081,space,0.436,0,313,313,67,1,,,596f003434773e0001fc0d28,61b909687acc23596b5bf0cc,2021-12-14_13h22.53.227,PRaM,2021.2.3,MacIntel,57.47126437,61b8f3437b89212fae0dfadf
1,2.133,space,0.571,0,314,314,109,1,,,596f003434773e0001fc0d28,61b909687acc23596b5bf0cc,2021-12-14_13h22.53.227,PRaM,2021.2.3,MacIntel,57.47126437,61b8f3437b89212fae0dfadf
1,2.13,space,0.741,0,315,315,95,1,,,596f003434773e0001fc0d28,61b909687acc23596b5bf0cc,2021-12-14_13h22.53.227,PRaM,2021.2.3,MacIntel,57.47126437,61b8f3437b89212fae0dfadf
2,5.201,space,3.549,0,316,316,145,1,,,596f003434773e0001fc0d28,61b909687acc23596b5bf0cc,2021-12-14_13h22.53.227,PRaM,2021.2.3,MacIntel,57.47126437,61b8f3437b89212fae0dfadf
7,3.66,space,2.032,0,317,317,350,1,,,596f003434773e0001fc0d28,61b909687acc23596b5bf0cc,2021-12-14_13h22.53.227,PRaM,2021.2.3,MacIntel,57.47126437,61b8f3437b89212fae0dfadf
7,3.945,space,2.298,0,318,318,42,1,,,596f003434773e0001fc0d28,61b909687acc23596b5bf0cc,2021-12-14_13h22.53.227,PRaM,2021.2.3,MacIntel,57.47126437,61b8f3437b89212fae0dfadf
1,2.3,space,0.672,0,319,319,241,1,,,596f003434773e0001fc0d28,61b909687acc23596b5bf0cc,2021-12-14_13h22.53.227,PRaM,2021.2.3,MacIntel,57.47126437,61b8f3437b89212fae0dfadf
1,2.582,space,0.955,0,320,320,250,1,,,596f003434773e0001fc0d28,61b909687acc23596b5bf0cc,2021-12-14_13h22.53.227,PRaM,2021.2.3,MacIntel,57.47126437,61b8f3437b89212fae0dfadf
6,3.795,space,2.163,0,321,321,209,1,,,596f003434773e0001fc0d28,61b909687acc23596b5bf0cc,2021-12-14_13h22.53.227,PRaM,2021.2.3,MacIntel,57.47126437,61b8f3437b89212fae0dfadf
5,3.461,space,1.764,0,322,322,152,1,,,596f003434773e0001fc0d28,61b909687acc23596b5bf0cc,2021-12-14_13h22.53.227,PRaM,2021.2.3,MacIntel,57.47126437,61b8f3437b89212fae0dfadf
5,3.357,space,1.689,0,323,323,114,1,,,596f003434773e0001fc0d28,61b909687acc23596b5bf0cc,2021-12-14_13h22.53.227,PRaM,2021.2.3,MacIntel,57.47126437,61b8f3437b89212fae0dfadf
1,2.258,space,0.644,0,324,324,187,1,,,596f003434773e0001fc0d28,61b909687acc23596b5bf0cc,2021-12-14_13h22.53.227,PRaM,2021.2.3,MacIntel,57.47126437,61b8f3437b89212fae0dfadf
2,4.076,space,2.444,0,325,325,96,1,,,596f003434773e0001fc0d28,61b909687acc23596b5bf0cc,2021-12-14_13h22.53.227,PRaM,2021.2.3,MacIntel,57.47126437,61b8f3437b89212fae0dfadf
9,2.99,space,1.358,0,326,326,226,1,,,596f003434773e0001fc0d28,61b909687acc23596b5bf0cc,2021-12-14_13h22.53.227,PRaM,2021.2.3,MacIntel,57.47126437,61b8f3437b89212fae0dfadf
8,2.528,space,1.057,0,327,327,255,1,,,596f003434773e0001fc0d28,61b909687acc23596b5bf0cc,2021-12-14_13h22.53.227,PRaM,2021.2.3,MacIntel,57.47126437,61b8f3437b89212fae0dfadf
9,2.41,space,0.766,0,328,328,134,1,,,596f003434773e0001fc0d28,61b909687acc23596b5bf0cc,2021-12-14_13h22.53.227,PRaM,2021.2.3,MacIntel,57.47126437,61b8f3437b89212fae0dfadf
1,4.581,space,2.941,0,329,329,217,1,,,596f003434773e0001fc0d28,61b909687acc23596b5bf0cc,2021-12-14_13h22.53.227,PRaM,2021.2.3,MacIntel,57.47126437,61b8f3437b89212fae0dfadf
1,1.932,space,0.296,0,330,330,116,1,,,596f003434773e0001fc0d28,61b909687acc23596b5bf0cc,2021-12-14_13h22.53.227,PRaM,2021.2.3,MacIntel,57.47126437,61b8f3437b89212fae0dfadf
1,1.324,space,1.307,0,331,331,206,1,,,596f003434773e0001fc0d28,61b909687acc23596b5bf0cc,2021-12-14_13h22.53.227,PRaM,2021.2.3,MacIntel,57.47126437,61b8f3437b89212fae0dfadf
8,3.611,space,2.01,0,332,332,278,1,,,596f003434773e0001fc0d28,61b909687acc23596b5bf0cc,2021-12-14_13h22.53.227,PRaM,2021.2.3,MacIntel,57.47126437,61b8f3437b89212fae0dfadf
9,2.924,space,1.29,0,333,333,180,1,,,596f003434773e0001fc0d28,61b909687acc23596b5bf0cc,2021-12-14_13h22.53.227,PRaM,2021.2.3,MacIntel,57.47126437,61b8f3437b89212fae0dfadf
5,4.248,space,2.574,0,334,334,334,1,,,596f003434773e0001fc0d28,61b909687acc23596b5bf0cc,2021-12-14_13h22.53.227,PRaM,2021.2.3,MacIntel,57.47126437,61b8f3437b89212fae0dfadf
9,2.714,space,1.077,0,335,335,102,1,,,596f003434773e0001fc0d28,61b909687acc23596b5bf0cc,2021-12-14_13h22.53.227,PRaM,2021.2.3,MacIntel,57.47126437,61b8f3437b89212fae0dfadf
2,3.548,space,1.929,0,336,336,252,1,,,596f003434773e0001fc0d28,61b909687acc23596b5bf0cc,2021-12-14_13h22.53.227,PRaM,2021.2.3,MacIntel,57.47126437,61b8f3437b89212fae0dfadf
9,2.427,space,0.759,0,337,337,56,1,,,596f003434773e0001fc0d28,61b909687acc23596b5bf0cc,2021-12-14_13h22.53.227,PRaM,2021.2.3,MacIntel,57.47126437,61b8f3437b89212fae0dfadf
2,4.049,space,2.427,0,338,338,33,1,,,596f003434773e0001fc0d28,61b909687acc23596b5bf0cc,2021-12-14_13h22.53.227,PRaM,2021.2.3,MacIntel,57.47126437,61b8f3437b89212fae0dfadf
1,2.21,space,0.6,0,339,339,11,1,,,596f003434773e0001fc0d28,61b909687acc23596b5bf0cc,2021-12-14_13h22.53.227,PRaM,2021.2.3,MacIntel,57.47126437,61b8f3437b89212fae0dfadf
1,4.674,space,3.076,0,340,340,25,1,,,596f003434773e0001fc0d28,61b909687acc23596b5bf0cc,2021-12-14_13h22.53.227,PRaM,2021.2.3,MacIntel,57.47126437,61b8f3437b89212fae0dfadf
1,1.941,space,0.391,0,341,341,107,1,,,596f003434773e0001fc0d28,61b909687acc23596b5bf0cc,2021-12-14_13h22.53.227,PRaM,2021.2.3,MacIntel,57.47126437,61b8f3437b89212fae0dfadf
8,3.043,space,1.384,0,342,342,244,1,,,596f003434773e0001fc0d28,61b909687acc23596b5bf0cc,2021-12-14_13h22.53.227,PRaM,2021.2.3,MacIntel,57.47126437,61b8f3437b89212fae0dfadf
1,2.889,space,1.222,0,343,343,316,1,,,596f003434773e0001fc0d28,61b909687acc23596b5bf0cc,2021-12-14_13h22.53.227,PRaM,2021.2.3,MacIntel,57.47126437,61b8f3437b89212fae0dfadf
4,2.899,space,1.199,0,344,344,240,1,,,596f003434773e0001fc0d28,61b909687acc23596b5bf0cc,2021-12-14_13h22.53.227,PRaM,2021.2.3,MacIntel,57.47126437,61b8f3437b89212fae0dfadf
1,2.439,space,0.814,0,345,345,229,1,,,596f003434773e0001fc0d28,61b909687acc23596b5bf0cc,2021-12-14_13h22.53.227,PRaM,2021.2.3,MacIntel,57.47126437,61b8f3437b89212fae0dfadf
1,2.747,space,1.128,0,346,346,70,1,,,596f003434773e0001fc0d28,61b909687acc23596b5bf0cc,2021-12-14_13h22.53.227,PRaM,2021.2.3,MacIntel,57.47126437,61b8f3437b89212fae0dfadf
2,3.811,space,2.167,0,347,347,303,1,,,596f003434773e0001fc0d28,61b909687acc23596b5bf0cc,2021-12-14_13h22.53.227,PRaM,2021.2.3,MacIntel,57.47126437,61b8f3437b89212fae0dfadf
1,4.827,space,3.203,0,348,348,373,1,,,596f003434773e0001fc0d28,61b909687acc23596b5bf0cc,2021-12-14_13h22.53.227,PRaM,2021.2.3,MacIntel,57.47126437,61b8f3437b89212fae0dfadf
1,1.453,space,1.116,0,349,349,332,1,,,596f003434773e0001fc0d28,61b909687acc23596b5bf0cc,2021-12-14_13h22.53.227,PRaM,2021.2.3,MacIntel,57.47126437,61b8f3437b89212fae0dfadf
4,3.876,space,2.229,0,350,350,147,1,,,596f003434773e0001fc0d28,61b909687acc23596b5bf0cc,2021-12-14_13h22.53.227,PRaM,2021.2.3,MacIntel,57.47126437,61b8f3437b89212fae0dfadf
2,3.825,space,2.174,0,351,351,178,1,,,596f003434773e0001fc0d28,61b909687acc23596b5bf0cc,2021-12-14_13h22.53.227,PRaM,2021.2.3,MacIntel,57.47126437,61b8f3437b89212fae0dfadf
1,1.884,space,0.409,0,352,352,26,1,,,596f003434773e0001fc0d28,61b909687acc23596b5bf0cc,2021-12-14_13h22.53.227,PRaM,2021.2.3,MacIntel,57.47126437,61b8f3437b89212fae0dfadf
9,2.943,space,1.35,0,353,353,285,1,,,596f003434773e0001fc0d28,61b909687acc23596b5bf0cc,2021-12-14_13h22.53.227,PRaM,2021.2.3,MacIntel,57.47126437,61b8f3437b89212fae0dfadf
3,3.828,space,2.165,0,354,354,281,1,,,596f003434773e0001fc0d28,61b909687acc23596b5bf0cc,2021-12-14_13h22.53.227,PRaM,2021.2.3,MacIntel,57.47126437,61b8f3437b89212fae0dfadf
8,2.693,space,1.093,0,355,355,365,1,,,596f003434773e0001fc0d28,61b909687acc23596b5bf0cc,2021-12-14_13h22.53.227,PRaM,2021.2.3,MacIntel,57.47126437,61b8f3437b89212fae0dfadf
9,2.676,space,1.048,0,356,356,264,1,,,596f003434773e0001fc0d28,61b909687acc23596b5bf0cc,2021-12-14_13h22.53.227,PRaM,2021.2.3,MacIntel,57.47126437,61b8f3437b89212fae0dfadf
2,3.006,space,1.396,0,357,357,230,1,,,596f003434773e0001fc0d28,61b909687acc23596b5bf0cc,2021-12-14_13h22.53.227,PRaM,2021.2.3,MacIntel,57.47126437,61b8f3437b89212fae0dfadf
7,3.092,space,1.474,0,358,358,307,1,,,596f003434773e0001fc0d28,61b909687acc23596b5bf0cc,2021-12-14_13h22.53.227,PRaM,2021.2.3,MacIntel,57.47126437,61b8f3437b89212fae0dfadf
3,4.787,space,3.113,0,359,359,37,1,,,596f003434773e0001fc0d28,61b909687acc23596b5bf0cc,2021-12-14_13h22.53.227,PRaM,2021.2.3,MacIntel,57.47126437,61b8f3437b89212fae0dfadf
8,2.658,space,1.048,0,360,360,149,1,,,596f003434773e0001fc0d28,61b909687acc23596b5bf0cc,2021-12-14_13h22.53.227,PRaM,2021.2.3,MacIntel,57.47126437,61b8f3437b89212fae0dfadf
9,2.995,space,1.374,0,361,361,213,1,,,596f003434773e0001fc0d28,61b909687acc23596b5bf0cc,2021-12-14_13h22.53.227,PRaM,2021.2.3,MacIntel,57.47126437,61b8f3437b89212fae0dfadf
2,3.432,space,1.781,0,362,362,144,1,,,596f003434773e0001fc0d28,61b909687acc23596b5bf0cc,2021-12-14_13h22.53.227,PRaM,2021.2.3,MacIntel,57.47126437,61b8f3437b89212fae0dfadf
1,1.973,space,0.371,0,363,363,343,1,,,596f003434773e0001fc0d28,61b909687acc23596b5bf0cc,2021-12-14_13h22.53.227,PRaM,2021.2.3,MacIntel,57.47126437,61b8f3437b89212fae0dfadf
9,3.195,space,1.606,0,364,364,372,1,,,596f003434773e0001fc0d28,61b909687acc23596b5bf0cc,2021-12-14_13h22.53.227,PRaM,2021.2.3,MacIntel,57.47126437,61b8f3437b89212fae0dfadf
1,2.376,space,0.841,0,365,365,286,1,,,596f003434773e0001fc0d28,61b909687acc23596b5bf0cc,2021-12-14_13h22.53.227,PRaM,2021.2.3,MacIntel,57.47126437,61b8f3437b89212fae0dfadf
6,3.125,space,1.456,0,366,366,159,1,,,596f003434773e0001fc0d28,61b909687acc23596b5bf0cc,2021-12-14_13h22.53.227,PRaM,2021.2.3,MacIntel,57.47126437,61b8f3437b89212fae0dfadf
9,4.068,space,2.427,0,367,367,83,1,,,596f003434773e0001fc0d28,61b909687acc23596b5bf0cc,2021-12-14_13h22.53.227,PRaM,2021.2.3,MacIntel,57.47126437,61b8f3437b89212fae0dfadf
7,5.836,space,4.195,0,368,368,51,1,,,596f003434773e0001fc0d28,61b909687acc23596b5bf0cc,2021-12-14_13h22.53.227,PRaM,2021.2.3,MacIntel,57.47126437,61b8f3437b89212fae0dfadf
5,4.228,space,2.586,0,369,369,44,1,,,596f003434773e0001fc0d28,61b909687acc23596b5bf0cc,2021-12-14_13h22.53.227,PRaM,2021.2.3,MacIntel,57.47126437,61b8f3437b89212fae0dfadf
9,2.596,space,0.972,0,370,370,3,1,,,596f003434773e0001fc0d28,61b909687acc23596b5bf0cc,2021-12-14_13h22.53.227,PRaM,2021.2.3,MacIntel,57.47126437,61b8f3437b89212fae0dfadf
4,4.561,space,2.851,0,371,371,110,1,,,596f003434773e0001fc0d28,61b909687acc23596b5bf0cc,2021-12-14_13h22.53.227,PRaM,2021.2.3,MacIntel,57.47126437,61b8f3437b89212fae0dfadf
2,3.916,space,2.25,0,372,372,237,1,,,596f003434773e0001fc0d28,61b909687acc23596b5bf0cc,2021-12-14_13h22.53.227,PRaM,2021.2.3,MacIntel,57.47126437,61b8f3437b89212fae0dfadf
7,2.765,space,1.207,0,373,373,219,1,,,596f003434773e0001fc0d28,61b909687acc23596b5bf0cc,2021-12-14_13h22.53.227,PRaM,2021.2.3,MacIntel,57.47126437,61b8f3437b89212fae0dfadf
5,3.178,space,1.51,0,374,374,179,1,,,596f003434773e0001fc0d28,61b909687acc23596b5bf0cc,2021-12-14_13h22.53.227,PRaM,2021.2.3,MacIntel,57.47126437,61b8f3437b89212fae0dfadf
7,2.959,space,1.31,0,375,375,21,1,,,596f003434773e0001fc0d28,61b909687acc23596b5bf0cc,2021-12-14_13h22.53.227,PRaM,2021.2.3,MacIntel,57.47126437,61b8f3437b89212fae0dfadf
1,2.708,space,1.093,0,376,376,360,1,,,596f003434773e0001fc0d28,61b909687acc23596b5bf0cc,2021-12-14_13h22.53.227,PRaM,2021.2.3,MacIntel,57.47126437,61b8f3437b89212fae0dfadf
8,2.891,space,1.241,0,377,377,115,1,,,596f003434773e0001fc0d28,61b909687acc23596b5bf0cc,2021-12-14_13h22.53.227,PRaM,2021.2.3,MacIntel,57.47126437,61b8f3437b89212fae0dfadf
