Rating.response,Rating.rt,EndTrial.keys,EndTrial.rt,trials.thisRepN,trials.thisTrialN,trials.thisN,trials.thisIndex,trials.ran,Pos1,Pos2,participant,session,date,expName,psychopyVersion,OS,frameRate,study_id
3,10.2355,space,10.1072,0,0,0,76,1,,,5a904702f053610001718d5d,643916335d138a8a1394d5b5,2023-04-14_10h01.28.353,PRaM,2021.2.3,Win32,60.17571308,61b8f3437b89212fae0dfade
4,5.6212,space,3.987,0,1,1,152,1,,,5a904702f053610001718d5d,643916335d138a8a1394d5b5,2023-04-14_10h01.28.353,PRaM,2021.2.3,Win32,60.17571308,61b8f3437b89212fae0dfade
1,2.2546,space,0.6329,0,2,2,54,1,,,5a904702f053610001718d5d,643916335d138a8a1394d5b5,2023-04-14_10h01.28.353,PRaM,2021.2.3,Win32,60.17571308,61b8f3437b89212fae0dfade
1,2.657,space,1.016,0,3,3,169,1,,,5a904702f053610001718d5d,643916335d138a8a1394d5b5,2023-04-14_10h01.28.353,PRaM,2021.2.3,Win32,60.17571308,61b8f3437b89212fae0dfade
7,3.5399,space,1.8804,0,4,4,84,1,,,5a904702f053610001718d5d,643916335d138a8a1394d5b5,2023-04-14_10h01.28.353,PRaM,2021.2.3,Win32,60.17571308,61b8f3437b89212fae0dfade
3,4.8554,space,3.1428,0,5,5,100,1,,,5a904702f053610001718d5d,643916335d138a8a1394d5b5,2023-04-14_10h01.28.353,PRaM,2021.2.3,Win32,60.17571308,61b8f3437b89212fae0dfade
2,2.2706,space,0.4323,0,6,6,375,1,,,5a904702f053610001718d5d,643916335d138a8a1394d5b5,2023-04-14_10h01.28.353,PRaM,2021.2.3,Win32,60.17571308,61b8f3437b89212fae0dfade
6,5.4946,space,3.8547,0,7,7,291,1,,,5a904702f053610001718d5d,643916335d138a8a1394d5b5,2023-04-14_10h01.28.353,PRaM,2021.2.3,Win32,60.17571308,61b8f3437b89212fae0dfade
2,2.9957,space,1.3151,0,8,8,160,1,,,5a904702f053610001718d5d,643916335d138a8a1394d5b5,2023-04-14_10h01.28.353,PRaM,2021.2.3,Win32,60.17571308,61b8f3437b89212fae0dfade
2,1.9481,space,0.2852,0,9,9,82,1,,,5a904702f053610001718d5d,643916335d138a8a1394d5b5,2023-04-14_10h01.28.353,PRaM,2021.2.3,Win32,60.17571308,61b8f3437b89212fae0dfade
1,2.1784,space,0.5494,0,10,10,308,1,,,5a904702f053610001718d5d,643916335d138a8a1394d5b5,2023-04-14_10h01.28.353,PRaM,2021.2.3,Win32,60.17571308,61b8f3437b89212fae0dfade
5,4.1806,space,2.4441,0,11,11,198,1,,,5a904702f053610001718d5d,643916335d138a8a1394d5b5,2023-04-14_10h01.28.353,PRaM,2021.2.3,Win32,60.17571308,61b8f3437b89212fae0dfade
6,3.3697,space,1.634,0,12,12,63,1,,,5a904702f053610001718d5d,643916335d138a8a1394d5b5,2023-04-14_10h01.28.353,PRaM,2021.2.3,Win32,60.17571308,61b8f3437b89212fae0dfade
1,2.4637,space,0.6736,0,13,13,176,1,,,5a904702f053610001718d5d,643916335d138a8a1394d5b5,2023-04-14_10h01.28.353,PRaM,2021.2.3,Win32,60.17571308,61b8f3437b89212fae0dfade
5,3.133,space,1.3355,0,14,14,348,1,,,5a904702f053610001718d5d,643916335d138a8a1394d5b5,2023-04-14_10h01.28.353,PRaM,2021.2.3,Win32,60.17571308,61b8f3437b89212fae0dfade
2,4.4892,space,2.8303,0,15,15,223,1,,,5a904702f053610001718d5d,643916335d138a8a1394d5b5,2023-04-14_10h01.28.353,PRaM,2021.2.3,Win32,60.17571308,61b8f3437b89212fae0dfade
1,1.9273,space,0.2638,0,16,16,295,1,,,5a904702f053610001718d5d,643916335d138a8a1394d5b5,2023-04-14_10h01.28.353,PRaM,2021.2.3,Win32,60.17571308,61b8f3437b89212fae0dfade
1,2.1321,space,0.4657,0,17,17,97,1,,,5a904702f053610001718d5d,643916335d138a8a1394d5b5,2023-04-14_10h01.28.353,PRaM,2021.2.3,Win32,60.17571308,61b8f3437b89212fae0dfade
1,1.9279,space,0.25,0,18,18,122,1,,,5a904702f053610001718d5d,643916335d138a8a1394d5b5,2023-04-14_10h01.28.353,PRaM,2021.2.3,Win32,60.17571308,61b8f3437b89212fae0dfade
2,2.0149,space,0.3597,0,19,19,296,1,,,5a904702f053610001718d5d,643916335d138a8a1394d5b5,2023-04-14_10h01.28.353,PRaM,2021.2.3,Win32,60.17571308,61b8f3437b89212fae0dfade
7,3.2366,space,1.5578,0,20,20,180,1,,,5a904702f053610001718d5d,643916335d138a8a1394d5b5,2023-04-14_10h01.28.353,PRaM,2021.2.3,Win32,60.17571308,61b8f3437b89212fae0dfade
5,2.841,space,1.0137,0,21,21,337,1,,,5a904702f053610001718d5d,643916335d138a8a1394d5b5,2023-04-14_10h01.28.353,PRaM,2021.2.3,Win32,60.17571308,61b8f3437b89212fae0dfade
2,2.1121,space,0.3201,0,22,22,167,1,,,5a904702f053610001718d5d,643916335d138a8a1394d5b5,2023-04-14_10h01.28.353,PRaM,2021.2.3,Win32,60.17571308,61b8f3437b89212fae0dfade
6,3.4293,space,1.5139,0,23,23,166,1,,,5a904702f053610001718d5d,643916335d138a8a1394d5b5,2023-04-14_10h01.28.353,PRaM,2021.2.3,Win32,60.17571308,61b8f3437b89212fae0dfade
7,1.8775,space,0.3833,0,24,24,331,1,,,5a904702f053610001718d5d,643916335d138a8a1394d5b5,2023-04-14_10h01.28.353,PRaM,2021.2.3,Win32,60.17571308,61b8f3437b89212fae0dfade
6,2.6769,space,1.0221,0,25,25,47,1,,,5a904702f053610001718d5d,643916335d138a8a1394d5b5,2023-04-14_10h01.28.353,PRaM,2021.2.3,Win32,60.17571308,61b8f3437b89212fae0dfade
7,3.3339,space,1.7543,0,26,26,51,1,,,5a904702f053610001718d5d,643916335d138a8a1394d5b5,2023-04-14_10h01.28.353,PRaM,2021.2.3,Win32,60.17571308,61b8f3437b89212fae0dfade
2,1.9321,space,0.277,0,27,27,283,1,,,5a904702f053610001718d5d,643916335d138a8a1394d5b5,2023-04-14_10h01.28.353,PRaM,2021.2.3,Win32,60.17571308,61b8f3437b89212fae0dfade
2,1.9651,space,0.2161,0,28,28,158,1,,,5a904702f053610001718d5d,643916335d138a8a1394d5b5,2023-04-14_10h01.28.353,PRaM,2021.2.3,Win32,60.17571308,61b8f3437b89212fae0dfade
2,2.3688,space,0.553,0,29,29,184,1,,,5a904702f053610001718d5d,643916335d138a8a1394d5b5,2023-04-14_10h01.28.353,PRaM,2021.2.3,Win32,60.17571308,61b8f3437b89212fae0dfade
3,3.2669,space,1.368,0,30,30,205,1,,,5a904702f053610001718d5d,643916335d138a8a1394d5b5,2023-04-14_10h01.28.353,PRaM,2021.2.3,Win32,60.17571308,61b8f3437b89212fae0dfade
2,1.6907,space,2.2114,0,31,31,353,1,,,5a904702f053610001718d5d,643916335d138a8a1394d5b5,2023-04-14_10h01.28.353,PRaM,2021.2.3,Win32,60.17571308,61b8f3437b89212fae0dfade
2,5.5044,space,3.8392,0,32,32,39,1,,,5a904702f053610001718d5d,643916335d138a8a1394d5b5,2023-04-14_10h01.28.353,PRaM,2021.2.3,Win32,60.17571308,61b8f3437b89212fae0dfade
1,2.5202,space,0.6862,0,33,33,103,1,,,5a904702f053610001718d5d,643916335d138a8a1394d5b5,2023-04-14_10h01.28.353,PRaM,2021.2.3,Win32,60.17571308,61b8f3437b89212fae0dfade
3,4.3924,space,2.7149,0,34,34,252,1,,,5a904702f053610001718d5d,643916335d138a8a1394d5b5,2023-04-14_10h01.28.353,PRaM,2021.2.3,Win32,60.17571308,61b8f3437b89212fae0dfade
2,2.581,space,0.8989,0,35,35,62,1,,,5a904702f053610001718d5d,643916335d138a8a1394d5b5,2023-04-14_10h01.28.353,PRaM,2021.2.3,Win32,60.17571308,61b8f3437b89212fae0dfade
1,2.8342,space,1.1333,0,36,36,330,1,,,5a904702f053610001718d5d,643916335d138a8a1394d5b5,2023-04-14_10h01.28.353,PRaM,2021.2.3,Win32,60.17571308,61b8f3437b89212fae0dfade
2,2.8457,space,1.1198,0,37,37,178,1,,,5a904702f053610001718d5d,643916335d138a8a1394d5b5,2023-04-14_10h01.28.353,PRaM,2021.2.3,Win32,60.17571308,61b8f3437b89212fae0dfade
1,1.671,space,1.3901,0,38,38,231,1,,,5a904702f053610001718d5d,643916335d138a8a1394d5b5,2023-04-14_10h01.28.353,PRaM,2021.2.3,Win32,60.17571308,61b8f3437b89212fae0dfade
8,3.7596,space,3.1926,0,39,39,207,1,,,5a904702f053610001718d5d,643916335d138a8a1394d5b5,2023-04-14_10h01.28.353,PRaM,2021.2.3,Win32,60.17571308,61b8f3437b89212fae0dfade
2,2.7259,space,1.0314,0,40,40,155,1,,,5a904702f053610001718d5d,643916335d138a8a1394d5b5,2023-04-14_10h01.28.353,PRaM,2021.2.3,Win32,60.17571308,61b8f3437b89212fae0dfade
1,2.8025,space,1.015,0,41,41,349,1,,,5a904702f053610001718d5d,643916335d138a8a1394d5b5,2023-04-14_10h01.28.353,PRaM,2021.2.3,Win32,60.17571308,61b8f3437b89212fae0dfade
3,3.5028,space,1.7221,0,42,42,346,1,,,5a904702f053610001718d5d,643916335d138a8a1394d5b5,2023-04-14_10h01.28.353,PRaM,2021.2.3,Win32,60.17571308,61b8f3437b89212fae0dfade
4,4.6252,space,2.9759,0,43,43,270,1,,,5a904702f053610001718d5d,643916335d138a8a1394d5b5,2023-04-14_10h01.28.353,PRaM,2021.2.3,Win32,60.17571308,61b8f3437b89212fae0dfade
9,3.3127,space,1.6584,0,44,44,168,1,,,5a904702f053610001718d5d,643916335d138a8a1394d5b5,2023-04-14_10h01.28.353,PRaM,2021.2.3,Win32,60.17571308,61b8f3437b89212fae0dfade
5,4.4824,space,2.7444,0,45,45,134,1,,,5a904702f053610001718d5d,643916335d138a8a1394d5b5,2023-04-14_10h01.28.353,PRaM,2021.2.3,Win32,60.17571308,61b8f3437b89212fae0dfade
6,3.1444,space,1.2836,0,46,46,110,1,,,5a904702f053610001718d5d,643916335d138a8a1394d5b5,2023-04-14_10h01.28.353,PRaM,2021.2.3,Win32,60.17571308,61b8f3437b89212fae0dfade
4,3.5942,space,1.9616,0,47,47,156,1,,,5a904702f053610001718d5d,643916335d138a8a1394d5b5,2023-04-14_10h01.28.353,PRaM,2021.2.3,Win32,60.17571308,61b8f3437b89212fae0dfade
2,3.3984,space,1.7862,0,48,48,81,1,,,5a904702f053610001718d5d,643916335d138a8a1394d5b5,2023-04-14_10h01.28.353,PRaM,2021.2.3,Win32,60.17571308,61b8f3437b89212fae0dfade
2,5.2598,space,3.6616,0,49,49,143,1,,,5a904702f053610001718d5d,643916335d138a8a1394d5b5,2023-04-14_10h01.28.353,PRaM,2021.2.3,Win32,60.17571308,61b8f3437b89212fae0dfade
8,5.953,space,4.3054,0,50,50,17,1,,,5a904702f053610001718d5d,643916335d138a8a1394d5b5,2023-04-14_10h01.28.353,PRaM,2021.2.3,Win32,60.17571308,61b8f3437b89212fae0dfade
2,3.2255,space,1.5521,0,51,51,269,1,,,5a904702f053610001718d5d,643916335d138a8a1394d5b5,2023-04-14_10h01.28.353,PRaM,2021.2.3,Win32,60.17571308,61b8f3437b89212fae0dfade
2,3.9892,space,2.4773,0,52,52,265,1,,,5a904702f053610001718d5d,643916335d138a8a1394d5b5,2023-04-14_10h01.28.353,PRaM,2021.2.3,Win32,60.17571308,61b8f3437b89212fae0dfade
2,3.4638,space,1.7121,0,53,53,141,1,,,5a904702f053610001718d5d,643916335d138a8a1394d5b5,2023-04-14_10h01.28.353,PRaM,2021.2.3,Win32,60.17571308,61b8f3437b89212fae0dfade
3,3.674,space,1.9785,0,54,54,303,1,,,5a904702f053610001718d5d,643916335d138a8a1394d5b5,2023-04-14_10h01.28.353,PRaM,2021.2.3,Win32,60.17571308,61b8f3437b89212fae0dfade
8,2.7776,space,1.0801,0,55,55,221,1,,,5a904702f053610001718d5d,643916335d138a8a1394d5b5,2023-04-14_10h01.28.353,PRaM,2021.2.3,Win32,60.17571308,61b8f3437b89212fae0dfade
7,1.7966,space,0.1329,0,56,56,140,1,,,5a904702f053610001718d5d,643916335d138a8a1394d5b5,2023-04-14_10h01.28.353,PRaM,2021.2.3,Win32,60.17571308,61b8f3437b89212fae0dfade
2,2.161,space,0.3395,0,57,57,89,1,,,5a904702f053610001718d5d,643916335d138a8a1394d5b5,2023-04-14_10h01.28.353,PRaM,2021.2.3,Win32,60.17571308,61b8f3437b89212fae0dfade
2,1.8225,space,1.1307,0,58,58,251,1,,,5a904702f053610001718d5d,643916335d138a8a1394d5b5,2023-04-14_10h01.28.353,PRaM,2021.2.3,Win32,60.17571308,61b8f3437b89212fae0dfade
4,2.1555,space,0.4699,0,59,59,333,1,,,5a904702f053610001718d5d,643916335d138a8a1394d5b5,2023-04-14_10h01.28.353,PRaM,2021.2.3,Win32,60.17571308,61b8f3437b89212fae0dfade
5,2.7895,space,1.0977,0,60,60,240,1,,,5a904702f053610001718d5d,643916335d138a8a1394d5b5,2023-04-14_10h01.28.353,PRaM,2021.2.3,Win32,60.17571308,61b8f3437b89212fae0dfade
4,2.5965,space,0.9165,0,61,61,5,1,,,5a904702f053610001718d5d,643916335d138a8a1394d5b5,2023-04-14_10h01.28.353,PRaM,2021.2.3,Win32,60.17571308,61b8f3437b89212fae0dfade
6,3.3797,space,1.703,0,62,62,174,1,,,5a904702f053610001718d5d,643916335d138a8a1394d5b5,2023-04-14_10h01.28.353,PRaM,2021.2.3,Win32,60.17571308,61b8f3437b89212fae0dfade
4,4.7051,space,2.9251,0,63,63,317,1,,,5a904702f053610001718d5d,643916335d138a8a1394d5b5,2023-04-14_10h01.28.353,PRaM,2021.2.3,Win32,60.17571308,61b8f3437b89212fae0dfade
3,2.0664,space,0.3229,0,64,64,1,1,,,5a904702f053610001718d5d,643916335d138a8a1394d5b5,2023-04-14_10h01.28.353,PRaM,2021.2.3,Win32,60.17571308,61b8f3437b89212fae0dfade
3,8.4722,space,6.6095,0,65,65,116,1,,,5a904702f053610001718d5d,643916335d138a8a1394d5b5,2023-04-14_10h01.28.353,PRaM,2021.2.3,Win32,60.17571308,61b8f3437b89212fae0dfade
2,2.2507,space,0.3852,0,66,66,35,1,,,5a904702f053610001718d5d,643916335d138a8a1394d5b5,2023-04-14_10h01.28.353,PRaM,2021.2.3,Win32,60.17571308,61b8f3437b89212fae0dfade
7,2.188,space,0.516,0,67,67,12,1,,,5a904702f053610001718d5d,643916335d138a8a1394d5b5,2023-04-14_10h01.28.353,PRaM,2021.2.3,Win32,60.17571308,61b8f3437b89212fae0dfade
6,2.2405,space,0.5665,0,68,68,191,1,,,5a904702f053610001718d5d,643916335d138a8a1394d5b5,2023-04-14_10h01.28.353,PRaM,2021.2.3,Win32,60.17571308,61b8f3437b89212fae0dfade
8,3.9001,space,2.2237,0,69,69,86,1,,,5a904702f053610001718d5d,643916335d138a8a1394d5b5,2023-04-14_10h01.28.353,PRaM,2021.2.3,Win32,60.17571308,61b8f3437b89212fae0dfade
6,3.3412,space,1.665,0,70,70,96,1,,,5a904702f053610001718d5d,643916335d138a8a1394d5b5,2023-04-14_10h01.28.353,PRaM,2021.2.3,Win32,60.17571308,61b8f3437b89212fae0dfade
7,2.58,space,0.9405,0,71,71,102,1,,,5a904702f053610001718d5d,643916335d138a8a1394d5b5,2023-04-14_10h01.28.353,PRaM,2021.2.3,Win32,60.17571308,61b8f3437b89212fae0dfade
7,4.1346,space,2.444,0,72,72,147,1,,,5a904702f053610001718d5d,643916335d138a8a1394d5b5,2023-04-14_10h01.28.353,PRaM,2021.2.3,Win32,60.17571308,61b8f3437b89212fae0dfade
2,2.4272,space,0.7785,0,73,73,287,1,,,5a904702f053610001718d5d,643916335d138a8a1394d5b5,2023-04-14_10h01.28.353,PRaM,2021.2.3,Win32,60.17571308,61b8f3437b89212fae0dfade
3,2.94,space,1.0524,0,74,74,188,1,,,5a904702f053610001718d5d,643916335d138a8a1394d5b5,2023-04-14_10h01.28.353,PRaM,2021.2.3,Win32,60.17571308,61b8f3437b89212fae0dfade
5,3.6198,space,1.8675,0,75,75,58,1,,,5a904702f053610001718d5d,643916335d138a8a1394d5b5,2023-04-14_10h01.28.353,PRaM,2021.2.3,Win32,60.17571308,61b8f3437b89212fae0dfade
2,2.6521,space,0.8938,0,76,76,250,1,,,5a904702f053610001718d5d,643916335d138a8a1394d5b5,2023-04-14_10h01.28.353,PRaM,2021.2.3,Win32,60.17571308,61b8f3437b89212fae0dfade
2,1.9089,space,0.3846,0,77,77,138,1,,,5a904702f053610001718d5d,643916335d138a8a1394d5b5,2023-04-14_10h01.28.353,PRaM,2021.2.3,Win32,60.17571308,61b8f3437b89212fae0dfade
4,2.633,space,0.9315,0,78,78,305,1,,,5a904702f053610001718d5d,643916335d138a8a1394d5b5,2023-04-14_10h01.28.353,PRaM,2021.2.3,Win32,60.17571308,61b8f3437b89212fae0dfade
2,2.2219,space,0.4051,0,79,79,52,1,,,5a904702f053610001718d5d,643916335d138a8a1394d5b5,2023-04-14_10h01.28.353,PRaM,2021.2.3,Win32,60.17571308,61b8f3437b89212fae0dfade
7,2.9535,space,1.1483,0,80,80,277,1,,,5a904702f053610001718d5d,643916335d138a8a1394d5b5,2023-04-14_10h01.28.353,PRaM,2021.2.3,Win32,60.17571308,61b8f3437b89212fae0dfade
6,2.8645,space,1.1611,0,81,81,228,1,,,5a904702f053610001718d5d,643916335d138a8a1394d5b5,2023-04-14_10h01.28.353,PRaM,2021.2.3,Win32,60.17571308,61b8f3437b89212fae0dfade
5,2.6669,space,0.9981,0,82,82,32,1,,,5a904702f053610001718d5d,643916335d138a8a1394d5b5,2023-04-14_10h01.28.353,PRaM,2021.2.3,Win32,60.17571308,61b8f3437b89212fae0dfade
3,2.1265,space,0.3525,0,83,83,132,1,,,5a904702f053610001718d5d,643916335d138a8a1394d5b5,2023-04-14_10h01.28.353,PRaM,2021.2.3,Win32,60.17571308,61b8f3437b89212fae0dfade
1,1.8012,space,1.1179,0,84,84,215,1,,,5a904702f053610001718d5d,643916335d138a8a1394d5b5,2023-04-14_10h01.28.353,PRaM,2021.2.3,Win32,60.17571308,61b8f3437b89212fae0dfade
8,2.3519,space,0.6945,0,85,85,222,1,,,5a904702f053610001718d5d,643916335d138a8a1394d5b5,2023-04-14_10h01.28.353,PRaM,2021.2.3,Win32,60.17571308,61b8f3437b89212fae0dfade
5,3.2078,space,1.4303,0,86,86,358,1,,,5a904702f053610001718d5d,643916335d138a8a1394d5b5,2023-04-14_10h01.28.353,PRaM,2021.2.3,Win32,60.17571308,61b8f3437b89212fae0dfade
2,3.2349,space,1.4303,0,87,87,144,1,,,5a904702f053610001718d5d,643916335d138a8a1394d5b5,2023-04-14_10h01.28.353,PRaM,2021.2.3,Win32,60.17571308,61b8f3437b89212fae0dfade
4,4.0634,space,2.1947,0,88,88,304,1,,,5a904702f053610001718d5d,643916335d138a8a1394d5b5,2023-04-14_10h01.28.353,PRaM,2021.2.3,Win32,60.17571308,61b8f3437b89212fae0dfade
2,3.8969,space,2.0449,0,89,89,163,1,,,5a904702f053610001718d5d,643916335d138a8a1394d5b5,2023-04-14_10h01.28.353,PRaM,2021.2.3,Win32,60.17571308,61b8f3437b89212fae0dfade
4,2.7834,space,1.1016,0,90,90,321,1,,,5a904702f053610001718d5d,643916335d138a8a1394d5b5,2023-04-14_10h01.28.353,PRaM,2021.2.3,Win32,60.17571308,61b8f3437b89212fae0dfade
2,2.5638,space,0.9607,0,91,91,229,1,,,5a904702f053610001718d5d,643916335d138a8a1394d5b5,2023-04-14_10h01.28.353,PRaM,2021.2.3,Win32,60.17571308,61b8f3437b89212fae0dfade
4,2.0983,space,0.3944,0,92,92,19,1,,,5a904702f053610001718d5d,643916335d138a8a1394d5b5,2023-04-14_10h01.28.353,PRaM,2021.2.3,Win32,60.17571308,61b8f3437b89212fae0dfade
3,4.5643,space,2.7358,0,93,93,357,1,,,5a904702f053610001718d5d,643916335d138a8a1394d5b5,2023-04-14_10h01.28.353,PRaM,2021.2.3,Win32,60.17571308,61b8f3437b89212fae0dfade
2,2.7471,space,1.0481,0,94,94,161,1,,,5a904702f053610001718d5d,643916335d138a8a1394d5b5,2023-04-14_10h01.28.353,PRaM,2021.2.3,Win32,60.17571308,61b8f3437b89212fae0dfade
5,2.2513,space,0.4562,0,95,95,139,1,,,5a904702f053610001718d5d,643916335d138a8a1394d5b5,2023-04-14_10h01.28.353,PRaM,2021.2.3,Win32,60.17571308,61b8f3437b89212fae0dfade
9,2.6442,space,0.9203,0,96,96,307,1,,,5a904702f053610001718d5d,643916335d138a8a1394d5b5,2023-04-14_10h01.28.353,PRaM,2021.2.3,Win32,60.17571308,61b8f3437b89212fae0dfade
2,2.3845,space,1.3982,0,97,97,249,1,,,5a904702f053610001718d5d,643916335d138a8a1394d5b5,2023-04-14_10h01.28.353,PRaM,2021.2.3,Win32,60.17571308,61b8f3437b89212fae0dfade
8,2.9298,space,1.2698,0,98,98,83,1,,,5a904702f053610001718d5d,643916335d138a8a1394d5b5,2023-04-14_10h01.28.353,PRaM,2021.2.3,Win32,60.17571308,61b8f3437b89212fae0dfade
9,2.9642,space,1.33,0,99,99,363,1,,,5a904702f053610001718d5d,643916335d138a8a1394d5b5,2023-04-14_10h01.28.353,PRaM,2021.2.3,Win32,60.17571308,61b8f3437b89212fae0dfade
6,7.5339,space,5.8705,0,100,100,29,1,,,5a904702f053610001718d5d,643916335d138a8a1394d5b5,2023-04-14_10h01.28.353,PRaM,2021.2.3,Win32,60.17571308,61b8f3437b89212fae0dfade
6,2.0569,space,0.4174,0,101,101,298,1,,,5a904702f053610001718d5d,643916335d138a8a1394d5b5,2023-04-14_10h01.28.353,PRaM,2021.2.3,Win32,60.17571308,61b8f3437b89212fae0dfade
7,4.515,space,2.7127,0,102,102,66,1,,,5a904702f053610001718d5d,643916335d138a8a1394d5b5,2023-04-14_10h01.28.353,PRaM,2021.2.3,Win32,60.17571308,61b8f3437b89212fae0dfade
2,2.7439,space,1.0776,0,103,103,289,1,,,5a904702f053610001718d5d,643916335d138a8a1394d5b5,2023-04-14_10h01.28.353,PRaM,2021.2.3,Win32,60.17571308,61b8f3437b89212fae0dfade
1,2.3543,space,0.7194,0,104,104,345,1,,,5a904702f053610001718d5d,643916335d138a8a1394d5b5,2023-04-14_10h01.28.353,PRaM,2021.2.3,Win32,60.17571308,61b8f3437b89212fae0dfade
1,2.1999,space,0.51,0,105,105,68,1,,,5a904702f053610001718d5d,643916335d138a8a1394d5b5,2023-04-14_10h01.28.353,PRaM,2021.2.3,Win32,60.17571308,61b8f3437b89212fae0dfade
6,2.8638,space,1.0195,0,106,106,239,1,,,5a904702f053610001718d5d,643916335d138a8a1394d5b5,2023-04-14_10h01.28.353,PRaM,2021.2.3,Win32,60.17571308,61b8f3437b89212fae0dfade
3,2.5085,space,0.8163,0,107,107,212,1,,,5a904702f053610001718d5d,643916335d138a8a1394d5b5,2023-04-14_10h01.28.353,PRaM,2021.2.3,Win32,60.17571308,61b8f3437b89212fae0dfade
2,1.716,space,1.3977,0,108,108,218,1,,,5a904702f053610001718d5d,643916335d138a8a1394d5b5,2023-04-14_10h01.28.353,PRaM,2021.2.3,Win32,60.17571308,61b8f3437b89212fae0dfade
7,2.0161,space,0.3101,0,109,109,280,1,,,5a904702f053610001718d5d,643916335d138a8a1394d5b5,2023-04-14_10h01.28.353,PRaM,2021.2.3,Win32,60.17571308,61b8f3437b89212fae0dfade
7,1.767,space,0.2331,0,110,110,335,1,,,5a904702f053610001718d5d,643916335d138a8a1394d5b5,2023-04-14_10h01.28.353,PRaM,2021.2.3,Win32,60.17571308,61b8f3437b89212fae0dfade
7,2.0788,space,0.2216,0,111,111,340,1,,,5a904702f053610001718d5d,643916335d138a8a1394d5b5,2023-04-14_10h01.28.353,PRaM,2021.2.3,Win32,60.17571308,61b8f3437b89212fae0dfade
8,3.3528,space,1.5665,0,112,112,306,1,,,5a904702f053610001718d5d,643916335d138a8a1394d5b5,2023-04-14_10h01.28.353,PRaM,2021.2.3,Win32,60.17571308,61b8f3437b89212fae0dfade
9,1.9583,space,0.0922,0,113,113,137,1,,,5a904702f053610001718d5d,643916335d138a8a1394d5b5,2023-04-14_10h01.28.353,PRaM,2021.2.3,Win32,60.17571308,61b8f3437b89212fae0dfade
8,1.921,space,0.1804,0,114,114,42,1,,,5a904702f053610001718d5d,643916335d138a8a1394d5b5,2023-04-14_10h01.28.353,PRaM,2021.2.3,Win32,60.17571308,61b8f3437b89212fae0dfade
7,2.5386,space,0.6974,0,115,115,157,1,,,5a904702f053610001718d5d,643916335d138a8a1394d5b5,2023-04-14_10h01.28.353,PRaM,2021.2.3,Win32,60.17571308,61b8f3437b89212fae0dfade
1,2.5528,space,0.9315,0,116,116,107,1,,,5a904702f053610001718d5d,643916335d138a8a1394d5b5,2023-04-14_10h01.28.353,PRaM,2021.2.3,Win32,60.17571308,61b8f3437b89212fae0dfade
9,2.5489,space,0.7313,0,117,117,285,1,,,5a904702f053610001718d5d,643916335d138a8a1394d5b5,2023-04-14_10h01.28.353,PRaM,2021.2.3,Win32,60.17571308,61b8f3437b89212fae0dfade
3,2.8955,space,1.1176,0,118,118,262,1,,,5a904702f053610001718d5d,643916335d138a8a1394d5b5,2023-04-14_10h01.28.353,PRaM,2021.2.3,Win32,60.17571308,61b8f3437b89212fae0dfade
2,3.3773,space,1.4909,0,119,119,79,1,,,5a904702f053610001718d5d,643916335d138a8a1394d5b5,2023-04-14_10h01.28.353,PRaM,2021.2.3,Win32,60.17571308,61b8f3437b89212fae0dfade
3,3.4306,space,1.7132,0,120,120,373,1,,,5a904702f053610001718d5d,643916335d138a8a1394d5b5,2023-04-14_10h01.28.353,PRaM,2021.2.3,Win32,60.17571308,61b8f3437b89212fae0dfade
5,2.5636,space,0.6599,0,121,121,352,1,,,5a904702f053610001718d5d,643916335d138a8a1394d5b5,2023-04-14_10h01.28.353,PRaM,2021.2.3,Win32,60.17571308,61b8f3437b89212fae0dfade
3,2.7284,space,0.947,0,122,122,171,1,,,5a904702f053610001718d5d,643916335d138a8a1394d5b5,2023-04-14_10h01.28.353,PRaM,2021.2.3,Win32,60.17571308,61b8f3437b89212fae0dfade
2,3.357,space,1.7066,0,123,123,13,1,,,5a904702f053610001718d5d,643916335d138a8a1394d5b5,2023-04-14_10h01.28.353,PRaM,2021.2.3,Win32,60.17571308,61b8f3437b89212fae0dfade
2,1.875,space,0.0504,0,124,124,235,1,,,5a904702f053610001718d5d,643916335d138a8a1394d5b5,2023-04-14_10h01.28.353,PRaM,2021.2.3,Win32,60.17571308,61b8f3437b89212fae0dfade
8,3.0123,space,1.2518,0,125,125,179,1,,,5a904702f053610001718d5d,643916335d138a8a1394d5b5,2023-04-14_10h01.28.353,PRaM,2021.2.3,Win32,60.17571308,61b8f3437b89212fae0dfade
2,2.5303,space,0.7957,0,126,126,77,1,,,5a904702f053610001718d5d,643916335d138a8a1394d5b5,2023-04-14_10h01.28.353,PRaM,2021.2.3,Win32,60.17571308,61b8f3437b89212fae0dfade
4,3.0233,space,1.1405,0,127,127,200,1,,,5a904702f053610001718d5d,643916335d138a8a1394d5b5,2023-04-14_10h01.28.353,PRaM,2021.2.3,Win32,60.17571308,61b8f3437b89212fae0dfade
7,2.4312,space,0.5904,0,128,128,336,1,,,5a904702f053610001718d5d,643916335d138a8a1394d5b5,2023-04-14_10h01.28.353,PRaM,2021.2.3,Win32,60.17571308,61b8f3437b89212fae0dfade
2,2.3669,space,1.0103,0,129,129,236,1,,,5a904702f053610001718d5d,643916335d138a8a1394d5b5,2023-04-14_10h01.28.353,PRaM,2021.2.3,Win32,60.17571308,61b8f3437b89212fae0dfade
1,1.7372,space,0.0625,0,130,130,248,1,,,5a904702f053610001718d5d,643916335d138a8a1394d5b5,2023-04-14_10h01.28.353,PRaM,2021.2.3,Win32,60.17571308,61b8f3437b89212fae0dfade
2,8.0953,space,6.2844,0,131,131,33,1,,,5a904702f053610001718d5d,643916335d138a8a1394d5b5,2023-04-14_10h01.28.353,PRaM,2021.2.3,Win32,60.17571308,61b8f3437b89212fae0dfade
1,1.9492,space,0.1035,0,132,132,217,1,,,5a904702f053610001718d5d,643916335d138a8a1394d5b5,2023-04-14_10h01.28.353,PRaM,2021.2.3,Win32,60.17571308,61b8f3437b89212fae0dfade
2,2.1977,space,0.3831,0,133,133,70,1,,,5a904702f053610001718d5d,643916335d138a8a1394d5b5,2023-04-14_10h01.28.353,PRaM,2021.2.3,Win32,60.17571308,61b8f3437b89212fae0dfade
4,3.0294,space,1.1634,0,134,134,267,1,,,5a904702f053610001718d5d,643916335d138a8a1394d5b5,2023-04-14_10h01.28.353,PRaM,2021.2.3,Win32,60.17571308,61b8f3437b89212fae0dfade
7,3.0036,space,1.2645,0,135,135,226,1,,,5a904702f053610001718d5d,643916335d138a8a1394d5b5,2023-04-14_10h01.28.353,PRaM,2021.2.3,Win32,60.17571308,61b8f3437b89212fae0dfade
7,2.3906,space,0.5021,0,136,136,242,1,,,5a904702f053610001718d5d,643916335d138a8a1394d5b5,2023-04-14_10h01.28.353,PRaM,2021.2.3,Win32,60.17571308,61b8f3437b89212fae0dfade
3,2.9613,space,1.2155,0,137,137,73,1,,,5a904702f053610001718d5d,643916335d138a8a1394d5b5,2023-04-14_10h01.28.353,PRaM,2021.2.3,Win32,60.17571308,61b8f3437b89212fae0dfade
2,1.6493,space,1.0638,0,138,138,128,1,,,5a904702f053610001718d5d,643916335d138a8a1394d5b5,2023-04-14_10h01.28.353,PRaM,2021.2.3,Win32,60.17571308,61b8f3437b89212fae0dfade
2,1.5258,space,2.1923,0,139,139,360,1,,,5a904702f053610001718d5d,643916335d138a8a1394d5b5,2023-04-14_10h01.28.353,PRaM,2021.2.3,Win32,60.17571308,61b8f3437b89212fae0dfade
7,3.9623,space,2.3435,0,140,140,74,1,,,5a904702f053610001718d5d,643916335d138a8a1394d5b5,2023-04-14_10h01.28.353,PRaM,2021.2.3,Win32,60.17571308,61b8f3437b89212fae0dfade
1,2.2159,space,0.4138,0,141,141,312,1,,,5a904702f053610001718d5d,643916335d138a8a1394d5b5,2023-04-14_10h01.28.353,PRaM,2021.2.3,Win32,60.17571308,61b8f3437b89212fae0dfade
9,2.7302,space,1.0508,0,142,142,320,1,,,5a904702f053610001718d5d,643916335d138a8a1394d5b5,2023-04-14_10h01.28.353,PRaM,2021.2.3,Win32,60.17571308,61b8f3437b89212fae0dfade
3,3.542,space,1.7788,0,143,143,268,1,,,5a904702f053610001718d5d,643916335d138a8a1394d5b5,2023-04-14_10h01.28.353,PRaM,2021.2.3,Win32,60.17571308,61b8f3437b89212fae0dfade
2,1.9092,space,0.121,0,144,144,224,1,,,5a904702f053610001718d5d,643916335d138a8a1394d5b5,2023-04-14_10h01.28.353,PRaM,2021.2.3,Win32,60.17571308,61b8f3437b89212fae0dfade
7,3.276,space,1.8458,0,145,145,271,1,,,5a904702f053610001718d5d,643916335d138a8a1394d5b5,2023-04-14_10h01.28.353,PRaM,2021.2.3,Win32,60.17571308,61b8f3437b89212fae0dfade
2,2.2768,space,0.4048,0,146,146,9,1,,,5a904702f053610001718d5d,643916335d138a8a1394d5b5,2023-04-14_10h01.28.353,PRaM,2021.2.3,Win32,60.17571308,61b8f3437b89212fae0dfade
2,1.7831,space,0.0509,0,147,147,374,1,,,5a904702f053610001718d5d,643916335d138a8a1394d5b5,2023-04-14_10h01.28.353,PRaM,2021.2.3,Win32,60.17571308,61b8f3437b89212fae0dfade
2,1.5936,space,1.406,0,148,148,332,1,,,5a904702f053610001718d5d,643916335d138a8a1394d5b5,2023-04-14_10h01.28.353,PRaM,2021.2.3,Win32,60.17571308,61b8f3437b89212fae0dfade
6,3.1276,space,1.2823,0,149,149,165,1,,,5a904702f053610001718d5d,643916335d138a8a1394d5b5,2023-04-14_10h01.28.353,PRaM,2021.2.3,Win32,60.17571308,61b8f3437b89212fae0dfade
1,3.7317,space,1.9125,0,150,150,275,1,,,5a904702f053610001718d5d,643916335d138a8a1394d5b5,2023-04-14_10h01.28.353,PRaM,2021.2.3,Win32,60.17571308,61b8f3437b89212fae0dfade
2,2.41,space,0.6229,0,151,151,111,1,,,5a904702f053610001718d5d,643916335d138a8a1394d5b5,2023-04-14_10h01.28.353,PRaM,2021.2.3,Win32,60.17571308,61b8f3437b89212fae0dfade
2,4.0512,space,2.2774,0,152,152,206,1,,,5a904702f053610001718d5d,643916335d138a8a1394d5b5,2023-04-14_10h01.28.353,PRaM,2021.2.3,Win32,60.17571308,61b8f3437b89212fae0dfade
2,2.208,space,0.5021,0,153,153,21,1,,,5a904702f053610001718d5d,643916335d138a8a1394d5b5,2023-04-14_10h01.28.353,PRaM,2021.2.3,Win32,60.17571308,61b8f3437b89212fae0dfade
2,1.9492,space,0.1379,0,154,154,369,1,,,5a904702f053610001718d5d,643916335d138a8a1394d5b5,2023-04-14_10h01.28.353,PRaM,2021.2.3,Win32,60.17571308,61b8f3437b89212fae0dfade
3,5.0422,space,3.3267,0,155,155,219,1,,,5a904702f053610001718d5d,643916335d138a8a1394d5b5,2023-04-14_10h01.28.353,PRaM,2021.2.3,Win32,60.17571308,61b8f3437b89212fae0dfade
7,2.8486,space,1.0067,0,156,156,85,1,,,5a904702f053610001718d5d,643916335d138a8a1394d5b5,2023-04-14_10h01.28.353,PRaM,2021.2.3,Win32,60.17571308,61b8f3437b89212fae0dfade
7,2.1319,space,0.2879,0,157,157,201,1,,,5a904702f053610001718d5d,643916335d138a8a1394d5b5,2023-04-14_10h01.28.353,PRaM,2021.2.3,Win32,60.17571308,61b8f3437b89212fae0dfade
6,2.2567,space,0.4517,0,158,158,104,1,,,5a904702f053610001718d5d,643916335d138a8a1394d5b5,2023-04-14_10h01.28.353,PRaM,2021.2.3,Win32,60.17571308,61b8f3437b89212fae0dfade
5,2.668,space,0.8493,0,159,159,0,1,,,5a904702f053610001718d5d,643916335d138a8a1394d5b5,2023-04-14_10h01.28.353,PRaM,2021.2.3,Win32,60.17571308,61b8f3437b89212fae0dfade
2,2.2915,space,0.5325,0,160,160,125,1,,,5a904702f053610001718d5d,643916335d138a8a1394d5b5,2023-04-14_10h01.28.353,PRaM,2021.2.3,Win32,60.17571308,61b8f3437b89212fae0dfade
7,3.3083,space,1.5047,0,161,161,159,1,,,5a904702f053610001718d5d,643916335d138a8a1394d5b5,2023-04-14_10h01.28.353,PRaM,2021.2.3,Win32,60.17571308,61b8f3437b89212fae0dfade
6,2.1167,space,0.4484,0,162,162,186,1,,,5a904702f053610001718d5d,643916335d138a8a1394d5b5,2023-04-14_10h01.28.353,PRaM,2021.2.3,Win32,60.17571308,61b8f3437b89212fae0dfade
2,1.9157,space,0.255,0,163,163,124,1,,,5a904702f053610001718d5d,643916335d138a8a1394d5b5,2023-04-14_10h01.28.353,PRaM,2021.2.3,Win32,60.17571308,61b8f3437b89212fae0dfade
4,3.6983,space,1.8368,0,164,164,365,1,,,5a904702f053610001718d5d,643916335d138a8a1394d5b5,2023-04-14_10h01.28.353,PRaM,2021.2.3,Win32,60.17571308,61b8f3437b89212fae0dfade
2,2.8295,space,1.0473,0,165,165,126,1,,,5a904702f053610001718d5d,643916335d138a8a1394d5b5,2023-04-14_10h01.28.353,PRaM,2021.2.3,Win32,60.17571308,61b8f3437b89212fae0dfade
1,2.3912,space,0.4866,0,166,166,23,1,,,5a904702f053610001718d5d,643916335d138a8a1394d5b5,2023-04-14_10h01.28.353,PRaM,2021.2.3,Win32,60.17571308,61b8f3437b89212fae0dfade
7,3.6026,space,2.0092,0,167,167,151,1,,,5a904702f053610001718d5d,643916335d138a8a1394d5b5,2023-04-14_10h01.28.353,PRaM,2021.2.3,Win32,60.17571308,61b8f3437b89212fae0dfade
7,3.1336,space,1.3554,0,168,168,213,1,,,5a904702f053610001718d5d,643916335d138a8a1394d5b5,2023-04-14_10h01.28.353,PRaM,2021.2.3,Win32,60.17571308,61b8f3437b89212fae0dfade
3,2.9434,space,1.1287,0,169,169,131,1,,,5a904702f053610001718d5d,643916335d138a8a1394d5b5,2023-04-14_10h01.28.353,PRaM,2021.2.3,Win32,60.17571308,61b8f3437b89212fae0dfade
7,2.0814,space,0.2374,0,170,170,56,1,,,5a904702f053610001718d5d,643916335d138a8a1394d5b5,2023-04-14_10h01.28.353,PRaM,2021.2.3,Win32,60.17571308,61b8f3437b89212fae0dfade
7,2.3977,space,0.5355,0,171,171,256,1,,,5a904702f053610001718d5d,643916335d138a8a1394d5b5,2023-04-14_10h01.28.353,PRaM,2021.2.3,Win32,60.17571308,61b8f3437b89212fae0dfade
2,2.7285,space,0.919,0,172,172,243,1,,,5a904702f053610001718d5d,643916335d138a8a1394d5b5,2023-04-14_10h01.28.353,PRaM,2021.2.3,Win32,60.17571308,61b8f3437b89212fae0dfade
1,2.3929,space,0.8842,0,173,173,210,1,,,5a904702f053610001718d5d,643916335d138a8a1394d5b5,2023-04-14_10h01.28.353,PRaM,2021.2.3,Win32,60.17571308,61b8f3437b89212fae0dfade
5,3.4911,space,1.7872,0,174,174,294,1,,,5a904702f053610001718d5d,643916335d138a8a1394d5b5,2023-04-14_10h01.28.353,PRaM,2021.2.3,Win32,60.17571308,61b8f3437b89212fae0dfade
1,3.1985,space,1.4263,0,175,175,282,1,,,5a904702f053610001718d5d,643916335d138a8a1394d5b5,2023-04-14_10h01.28.353,PRaM,2021.2.3,Win32,60.17571308,61b8f3437b89212fae0dfade
7,2.7183,space,0.9186,0,176,176,127,1,,,5a904702f053610001718d5d,643916335d138a8a1394d5b5,2023-04-14_10h01.28.353,PRaM,2021.2.3,Win32,60.17571308,61b8f3437b89212fae0dfade
7,1.9606,space,0.1219,0,177,177,211,1,,,5a904702f053610001718d5d,643916335d138a8a1394d5b5,2023-04-14_10h01.28.353,PRaM,2021.2.3,Win32,60.17571308,61b8f3437b89212fae0dfade
3,2.5441,space,0.6696,0,178,178,339,1,,,5a904702f053610001718d5d,643916335d138a8a1394d5b5,2023-04-14_10h01.28.353,PRaM,2021.2.3,Win32,60.17571308,61b8f3437b89212fae0dfade
3,4.1607,space,2.4065,0,179,179,93,1,,,5a904702f053610001718d5d,643916335d138a8a1394d5b5,2023-04-14_10h01.28.353,PRaM,2021.2.3,Win32,60.17571308,61b8f3437b89212fae0dfade
6,2.0653,space,0.1433,0,180,180,244,1,,,5a904702f053610001718d5d,643916335d138a8a1394d5b5,2023-04-14_10h01.28.353,PRaM,2021.2.3,Win32,60.17571308,61b8f3437b89212fae0dfade
2,2.7014,space,0.8699,0,181,181,65,1,,,5a904702f053610001718d5d,643916335d138a8a1394d5b5,2023-04-14_10h01.28.353,PRaM,2021.2.3,Win32,60.17571308,61b8f3437b89212fae0dfade
8,5.7592,space,3.9262,0,182,182,254,1,,,5a904702f053610001718d5d,643916335d138a8a1394d5b5,2023-04-14_10h01.28.353,PRaM,2021.2.3,Win32,60.17571308,61b8f3437b89212fae0dfade
7,2.2502,space,0.5319,0,183,183,75,1,,,5a904702f053610001718d5d,643916335d138a8a1394d5b5,2023-04-14_10h01.28.353,PRaM,2021.2.3,Win32,60.17571308,61b8f3437b89212fae0dfade
2,2.1649,space,0.521,0,184,184,341,1,,,5a904702f053610001718d5d,643916335d138a8a1394d5b5,2023-04-14_10h01.28.353,PRaM,2021.2.3,Win32,60.17571308,61b8f3437b89212fae0dfade
2,1.6366,space,1.9988,0,185,185,367,1,,,5a904702f053610001718d5d,643916335d138a8a1394d5b5,2023-04-14_10h01.28.353,PRaM,2021.2.3,Win32,60.17571308,61b8f3437b89212fae0dfade
2,2.5248,space,1.1543,0,186,186,28,1,,,5a904702f053610001718d5d,643916335d138a8a1394d5b5,2023-04-14_10h01.28.353,PRaM,2021.2.3,Win32,60.17571308,61b8f3437b89212fae0dfade
3,2.4472,space,0.6784,0,187,187,181,1,,,5a904702f053610001718d5d,643916335d138a8a1394d5b5,2023-04-14_10h01.28.353,PRaM,2021.2.3,Win32,60.17571308,61b8f3437b89212fae0dfade
7,2.1433,space,0.4996,0,188,188,366,1,,,5a904702f053610001718d5d,643916335d138a8a1394d5b5,2023-04-14_10h01.28.353,PRaM,2021.2.3,Win32,60.17571308,61b8f3437b89212fae0dfade
2,4.5763,space,2.7928,0,189,189,22,1,,,5a904702f053610001718d5d,643916335d138a8a1394d5b5,2023-04-14_10h01.28.353,PRaM,2021.2.3,Win32,60.17571308,61b8f3437b89212fae0dfade
5,2.5474,space,0.7988,0,190,190,273,1,,,5a904702f053610001718d5d,643916335d138a8a1394d5b5,2023-04-14_10h01.28.353,PRaM,2021.2.3,Win32,60.17571308,61b8f3437b89212fae0dfade
2,2.1292,space,0.2622,0,191,191,11,1,,,5a904702f053610001718d5d,643916335d138a8a1394d5b5,2023-04-14_10h01.28.353,PRaM,2021.2.3,Win32,60.17571308,61b8f3437b89212fae0dfade
7,2.4763,space,0.7936,0,192,192,278,1,,,5a904702f053610001718d5d,643916335d138a8a1394d5b5,2023-04-14_10h01.28.353,PRaM,2021.2.3,Win32,60.17571308,61b8f3437b89212fae0dfade
3,5.8103,space,4.0774,0,193,193,99,1,,,5a904702f053610001718d5d,643916335d138a8a1394d5b5,2023-04-14_10h01.28.353,PRaM,2021.2.3,Win32,60.17571308,61b8f3437b89212fae0dfade
2,1.9406,space,0.0969,0,194,194,71,1,,,5a904702f053610001718d5d,643916335d138a8a1394d5b5,2023-04-14_10h01.28.353,PRaM,2021.2.3,Win32,60.17571308,61b8f3437b89212fae0dfade
1,2.2811,space,0.4498,0,195,195,55,1,,,5a904702f053610001718d5d,643916335d138a8a1394d5b5,2023-04-14_10h01.28.353,PRaM,2021.2.3,Win32,60.17571308,61b8f3437b89212fae0dfade
2,4.2222,space,2.3274,0,196,196,284,1,,,5a904702f053610001718d5d,643916335d138a8a1394d5b5,2023-04-14_10h01.28.353,PRaM,2021.2.3,Win32,60.17571308,61b8f3437b89212fae0dfade
8,4.1687,space,2.4609,0,197,197,199,1,,,5a904702f053610001718d5d,643916335d138a8a1394d5b5,2023-04-14_10h01.28.353,PRaM,2021.2.3,Win32,60.17571308,61b8f3437b89212fae0dfade
2,1.7441,space,1.7127,0,198,198,377,1,,,5a904702f053610001718d5d,643916335d138a8a1394d5b5,2023-04-14_10h01.28.353,PRaM,2021.2.3,Win32,60.17571308,61b8f3437b89212fae0dfade
3,2.2256,space,0.3702,0,199,199,20,1,,,5a904702f053610001718d5d,643916335d138a8a1394d5b5,2023-04-14_10h01.28.353,PRaM,2021.2.3,Win32,60.17571308,61b8f3437b89212fae0dfade
6,2.4647,space,0.6202,0,200,200,208,1,,,5a904702f053610001718d5d,643916335d138a8a1394d5b5,2023-04-14_10h01.28.353,PRaM,2021.2.3,Win32,60.17571308,61b8f3437b89212fae0dfade
2,1.65,space,2.3542,0,201,201,376,1,,,5a904702f053610001718d5d,643916335d138a8a1394d5b5,2023-04-14_10h01.28.353,PRaM,2021.2.3,Win32,60.17571308,61b8f3437b89212fae0dfade
2,3.9781,space,2.1865,0,202,202,87,1,,,5a904702f053610001718d5d,643916335d138a8a1394d5b5,2023-04-14_10h01.28.353,PRaM,2021.2.3,Win32,60.17571308,61b8f3437b89212fae0dfade
2,2.1489,space,0.4326,0,203,203,266,1,,,5a904702f053610001718d5d,643916335d138a8a1394d5b5,2023-04-14_10h01.28.353,PRaM,2021.2.3,Win32,60.17571308,61b8f3437b89212fae0dfade
7,1.7995,space,0.1603,0,204,204,112,1,,,5a904702f053610001718d5d,643916335d138a8a1394d5b5,2023-04-14_10h01.28.353,PRaM,2021.2.3,Win32,60.17571308,61b8f3437b89212fae0dfade
1,4.8716,space,3.0697,0,205,205,318,1,,,5a904702f053610001718d5d,643916335d138a8a1394d5b5,2023-04-14_10h01.28.353,PRaM,2021.2.3,Win32,60.17571308,61b8f3437b89212fae0dfade
2,4.9713,space,3.2247,0,206,206,162,1,,,5a904702f053610001718d5d,643916335d138a8a1394d5b5,2023-04-14_10h01.28.353,PRaM,2021.2.3,Win32,60.17571308,61b8f3437b89212fae0dfade
2,2.353,space,0.6163,0,207,207,18,1,,,5a904702f053610001718d5d,643916335d138a8a1394d5b5,2023-04-14_10h01.28.353,PRaM,2021.2.3,Win32,60.17571308,61b8f3437b89212fae0dfade
1,4.4263,space,2.6261,0,208,208,316,1,,,5a904702f053610001718d5d,643916335d138a8a1394d5b5,2023-04-14_10h01.28.353,PRaM,2021.2.3,Win32,60.17571308,61b8f3437b89212fae0dfade
2,2.8257,space,1.2153,0,209,209,216,1,,,5a904702f053610001718d5d,643916335d138a8a1394d5b5,2023-04-14_10h01.28.353,PRaM,2021.2.3,Win32,60.17571308,61b8f3437b89212fae0dfade
2,1.5491,space,1.278,0,210,210,234,1,,,5a904702f053610001718d5d,643916335d138a8a1394d5b5,2023-04-14_10h01.28.353,PRaM,2021.2.3,Win32,60.17571308,61b8f3437b89212fae0dfade
2,1.6848,space,0.9183,0,211,211,50,1,,,5a904702f053610001718d5d,643916335d138a8a1394d5b5,2023-04-14_10h01.28.353,PRaM,2021.2.3,Win32,60.17571308,61b8f3437b89212fae0dfade
1,2.7117,space,0.9513,0,212,212,145,1,,,5a904702f053610001718d5d,643916335d138a8a1394d5b5,2023-04-14_10h01.28.353,PRaM,2021.2.3,Win32,60.17571308,61b8f3437b89212fae0dfade
6,3.3583,space,1.6462,0,213,213,292,1,,,5a904702f053610001718d5d,643916335d138a8a1394d5b5,2023-04-14_10h01.28.353,PRaM,2021.2.3,Win32,60.17571308,61b8f3437b89212fae0dfade
1,2.2977,space,0.4156,0,214,214,130,1,,,5a904702f053610001718d5d,643916335d138a8a1394d5b5,2023-04-14_10h01.28.353,PRaM,2021.2.3,Win32,60.17571308,61b8f3437b89212fae0dfade
1,2.7561,space,0.8797,0,215,215,8,1,,,5a904702f053610001718d5d,643916335d138a8a1394d5b5,2023-04-14_10h01.28.353,PRaM,2021.2.3,Win32,60.17571308,61b8f3437b89212fae0dfade
8,2.1297,space,0.4793,0,216,216,323,1,,,5a904702f053610001718d5d,643916335d138a8a1394d5b5,2023-04-14_10h01.28.353,PRaM,2021.2.3,Win32,60.17571308,61b8f3437b89212fae0dfade
5,3.9757,space,2.1889,0,217,217,314,1,,,5a904702f053610001718d5d,643916335d138a8a1394d5b5,2023-04-14_10h01.28.353,PRaM,2021.2.3,Win32,60.17571308,61b8f3437b89212fae0dfade
2,1.7826,space,0.0564,0,218,218,329,1,,,5a904702f053610001718d5d,643916335d138a8a1394d5b5,2023-04-14_10h01.28.353,PRaM,2021.2.3,Win32,60.17571308,61b8f3437b89212fae0dfade
9,2.7599,space,1.0717,0,219,219,173,1,,,5a904702f053610001718d5d,643916335d138a8a1394d5b5,2023-04-14_10h01.28.353,PRaM,2021.2.3,Win32,60.17571308,61b8f3437b89212fae0dfade
2,1.8489,space,0.0737,0,220,220,227,1,,,5a904702f053610001718d5d,643916335d138a8a1394d5b5,2023-04-14_10h01.28.353,PRaM,2021.2.3,Win32,60.17571308,61b8f3437b89212fae0dfade
3,2.1566,space,0.4484,0,221,221,361,1,,,5a904702f053610001718d5d,643916335d138a8a1394d5b5,2023-04-14_10h01.28.353,PRaM,2021.2.3,Win32,60.17571308,61b8f3437b89212fae0dfade
6,2.2687,space,0.6484,0,222,222,264,1,,,5a904702f053610001718d5d,643916335d138a8a1394d5b5,2023-04-14_10h01.28.353,PRaM,2021.2.3,Win32,60.17571308,61b8f3437b89212fae0dfade
7,2.3145,space,0.5401,0,223,223,59,1,,,5a904702f053610001718d5d,643916335d138a8a1394d5b5,2023-04-14_10h01.28.353,PRaM,2021.2.3,Win32,60.17571308,61b8f3437b89212fae0dfade
7,1.8377,space,2.1448,0,224,224,16,1,,,5a904702f053610001718d5d,643916335d138a8a1394d5b5,2023-04-14_10h01.28.353,PRaM,2021.2.3,Win32,60.17571308,61b8f3437b89212fae0dfade
9,2.0107,space,0.1771,0,225,225,225,1,,,5a904702f053610001718d5d,643916335d138a8a1394d5b5,2023-04-14_10h01.28.353,PRaM,2021.2.3,Win32,60.17571308,61b8f3437b89212fae0dfade
9,2.5709,space,0.7615,0,226,226,120,1,,,5a904702f053610001718d5d,643916335d138a8a1394d5b5,2023-04-14_10h01.28.353,PRaM,2021.2.3,Win32,60.17571308,61b8f3437b89212fae0dfade
8,5.6759,space,3.9548,0,227,227,255,1,,,5a904702f053610001718d5d,643916335d138a8a1394d5b5,2023-04-14_10h01.28.353,PRaM,2021.2.3,Win32,60.17571308,61b8f3437b89212fae0dfade
7,3.4398,space,2.1071,0,228,228,149,1,,,5a904702f053610001718d5d,643916335d138a8a1394d5b5,2023-04-14_10h01.28.353,PRaM,2021.2.3,Win32,60.17571308,61b8f3437b89212fae0dfade
2,2.0609,space,0.4329,0,229,229,113,1,,,5a904702f053610001718d5d,643916335d138a8a1394d5b5,2023-04-14_10h01.28.353,PRaM,2021.2.3,Win32,60.17571308,61b8f3437b89212fae0dfade
2,1.7448,space,0.9435,0,230,230,258,1,,,5a904702f053610001718d5d,643916335d138a8a1394d5b5,2023-04-14_10h01.28.353,PRaM,2021.2.3,Win32,60.17571308,61b8f3437b89212fae0dfade
1,3.9184,space,2.1109,0,231,231,195,1,,,5a904702f053610001718d5d,643916335d138a8a1394d5b5,2023-04-14_10h01.28.353,PRaM,2021.2.3,Win32,60.17571308,61b8f3437b89212fae0dfade
5,3.319,space,1.5454,0,232,232,364,1,,,5a904702f053610001718d5d,643916335d138a8a1394d5b5,2023-04-14_10h01.28.353,PRaM,2021.2.3,Win32,60.17571308,61b8f3437b89212fae0dfade
8,4.2366,space,2.5188,0,233,233,3,1,,,5a904702f053610001718d5d,643916335d138a8a1394d5b5,2023-04-14_10h01.28.353,PRaM,2021.2.3,Win32,60.17571308,61b8f3437b89212fae0dfade
2,2.1646,space,0.3662,0,234,234,121,1,,,5a904702f053610001718d5d,643916335d138a8a1394d5b5,2023-04-14_10h01.28.353,PRaM,2021.2.3,Win32,60.17571308,61b8f3437b89212fae0dfade
8,2.2994,space,0.5054,0,235,235,297,1,,,5a904702f053610001718d5d,643916335d138a8a1394d5b5,2023-04-14_10h01.28.353,PRaM,2021.2.3,Win32,60.17571308,61b8f3437b89212fae0dfade
3,1.832,space,0.1124,0,236,236,368,1,,,5a904702f053610001718d5d,643916335d138a8a1394d5b5,2023-04-14_10h01.28.353,PRaM,2021.2.3,Win32,60.17571308,61b8f3437b89212fae0dfade
2,2.1151,space,0.2217,0,237,237,41,1,,,5a904702f053610001718d5d,643916335d138a8a1394d5b5,2023-04-14_10h01.28.353,PRaM,2021.2.3,Win32,60.17571308,61b8f3437b89212fae0dfade
3,10.9919,space,9.2971,0,238,238,117,1,,,5a904702f053610001718d5d,643916335d138a8a1394d5b5,2023-04-14_10h01.28.353,PRaM,2021.2.3,Win32,60.17571308,61b8f3437b89212fae0dfade
2,2.5995,space,0.7274,0,239,239,72,1,,,5a904702f053610001718d5d,643916335d138a8a1394d5b5,2023-04-14_10h01.28.353,PRaM,2021.2.3,Win32,60.17571308,61b8f3437b89212fae0dfade
2,1.8956,space,0.0843,0,240,240,108,1,,,5a904702f053610001718d5d,643916335d138a8a1394d5b5,2023-04-14_10h01.28.353,PRaM,2021.2.3,Win32,60.17571308,61b8f3437b89212fae0dfade
2,2.3186,space,0.6324,0,241,241,185,1,,,5a904702f053610001718d5d,643916335d138a8a1394d5b5,2023-04-14_10h01.28.353,PRaM,2021.2.3,Win32,60.17571308,61b8f3437b89212fae0dfade
4,1.8611,space,0.0007,0,242,242,40,1,,,5a904702f053610001718d5d,643916335d138a8a1394d5b5,2023-04-14_10h01.28.353,PRaM,2021.2.3,Win32,60.17571308,61b8f3437b89212fae0dfade
3,2.7739,space,0.9112,0,243,243,327,1,,,5a904702f053610001718d5d,643916335d138a8a1394d5b5,2023-04-14_10h01.28.353,PRaM,2021.2.3,Win32,60.17571308,61b8f3437b89212fae0dfade
1,2.2341,space,0.3494,0,244,244,95,1,,,5a904702f053610001718d5d,643916335d138a8a1394d5b5,2023-04-14_10h01.28.353,PRaM,2021.2.3,Win32,60.17571308,61b8f3437b89212fae0dfade
2,3.0497,space,1.1797,0,245,245,193,1,,,5a904702f053610001718d5d,643916335d138a8a1394d5b5,2023-04-14_10h01.28.353,PRaM,2021.2.3,Win32,60.17571308,61b8f3437b89212fae0dfade
2,1.409,space,0.8204,0,246,246,257,1,,,5a904702f053610001718d5d,643916335d138a8a1394d5b5,2023-04-14_10h01.28.353,PRaM,2021.2.3,Win32,60.17571308,61b8f3437b89212fae0dfade
3,2.0846,space,0.3987,0,247,247,281,1,,,5a904702f053610001718d5d,643916335d138a8a1394d5b5,2023-04-14_10h01.28.353,PRaM,2021.2.3,Win32,60.17571308,61b8f3437b89212fae0dfade
1,3.5562,space,1.7548,0,248,248,220,1,,,5a904702f053610001718d5d,643916335d138a8a1394d5b5,2023-04-14_10h01.28.353,PRaM,2021.2.3,Win32,60.17571308,61b8f3437b89212fae0dfade
7,2.7275,space,0.9262,0,249,249,370,1,,,5a904702f053610001718d5d,643916335d138a8a1394d5b5,2023-04-14_10h01.28.353,PRaM,2021.2.3,Win32,60.17571308,61b8f3437b89212fae0dfade
2,3.44,space,1.7785,0,250,250,241,1,,,5a904702f053610001718d5d,643916335d138a8a1394d5b5,2023-04-14_10h01.28.353,PRaM,2021.2.3,Win32,60.17571308,61b8f3437b89212fae0dfade
8,2.2494,space,0.4993,0,251,251,342,1,,,5a904702f053610001718d5d,643916335d138a8a1394d5b5,2023-04-14_10h01.28.353,PRaM,2021.2.3,Win32,60.17571308,61b8f3437b89212fae0dfade
7,7.0938,space,5.9846,0,252,252,209,1,,,5a904702f053610001718d5d,643916335d138a8a1394d5b5,2023-04-14_10h01.28.353,PRaM,2021.2.3,Win32,60.17571308,61b8f3437b89212fae0dfade
4,2.7022,space,0.8906,0,253,253,351,1,,,5a904702f053610001718d5d,643916335d138a8a1394d5b5,2023-04-14_10h01.28.353,PRaM,2021.2.3,Win32,60.17571308,61b8f3437b89212fae0dfade
4,3.6585,space,1.8152,0,254,254,45,1,,,5a904702f053610001718d5d,643916335d138a8a1394d5b5,2023-04-14_10h01.28.353,PRaM,2021.2.3,Win32,60.17571308,61b8f3437b89212fae0dfade
2,2.275,space,0.4173,0,255,255,129,1,,,5a904702f053610001718d5d,643916335d138a8a1394d5b5,2023-04-14_10h01.28.353,PRaM,2021.2.3,Win32,60.17571308,61b8f3437b89212fae0dfade
7,2.3288,space,0.484,0,256,256,154,1,,,5a904702f053610001718d5d,643916335d138a8a1394d5b5,2023-04-14_10h01.28.353,PRaM,2021.2.3,Win32,60.17571308,61b8f3437b89212fae0dfade
5,3.5931,space,1.7791,0,257,257,204,1,,,5a904702f053610001718d5d,643916335d138a8a1394d5b5,2023-04-14_10h01.28.353,PRaM,2021.2.3,Win32,60.17571308,61b8f3437b89212fae0dfade
3,3.3043,space,1.495,0,258,258,260,1,,,5a904702f053610001718d5d,643916335d138a8a1394d5b5,2023-04-14_10h01.28.353,PRaM,2021.2.3,Win32,60.17571308,61b8f3437b89212fae0dfade
2,2.0084,space,0.1671,0,259,259,177,1,,,5a904702f053610001718d5d,643916335d138a8a1394d5b5,2023-04-14_10h01.28.353,PRaM,2021.2.3,Win32,60.17571308,61b8f3437b89212fae0dfade
2,4.0863,space,2.3445,0,260,260,263,1,,,5a904702f053610001718d5d,643916335d138a8a1394d5b5,2023-04-14_10h01.28.353,PRaM,2021.2.3,Win32,60.17571308,61b8f3437b89212fae0dfade
1,2.0536,space,0.2587,0,261,261,338,1,,,5a904702f053610001718d5d,643916335d138a8a1394d5b5,2023-04-14_10h01.28.353,PRaM,2021.2.3,Win32,60.17571308,61b8f3437b89212fae0dfade
2,2.1829,space,0.3876,0,262,262,31,1,,,5a904702f053610001718d5d,643916335d138a8a1394d5b5,2023-04-14_10h01.28.353,PRaM,2021.2.3,Win32,60.17571308,61b8f3437b89212fae0dfade
2,2.1972,space,0.4912,0,263,263,94,1,,,5a904702f053610001718d5d,643916335d138a8a1394d5b5,2023-04-14_10h01.28.353,PRaM,2021.2.3,Win32,60.17571308,61b8f3437b89212fae0dfade
7,1.789,space,0.4536,0,264,264,14,1,,,5a904702f053610001718d5d,643916335d138a8a1394d5b5,2023-04-14_10h01.28.353,PRaM,2021.2.3,Win32,60.17571308,61b8f3437b89212fae0dfade
7,2.6603,space,0.9386,0,265,265,90,1,,,5a904702f053610001718d5d,643916335d138a8a1394d5b5,2023-04-14_10h01.28.353,PRaM,2021.2.3,Win32,60.17571308,61b8f3437b89212fae0dfade
2,1.8895,space,0.1174,0,266,266,286,1,,,5a904702f053610001718d5d,643916335d138a8a1394d5b5,2023-04-14_10h01.28.353,PRaM,2021.2.3,Win32,60.17571308,61b8f3437b89212fae0dfade
3,4.6683,space,2.9285,0,267,267,46,1,,,5a904702f053610001718d5d,643916335d138a8a1394d5b5,2023-04-14_10h01.28.353,PRaM,2021.2.3,Win32,60.17571308,61b8f3437b89212fae0dfade
8,2.3704,space,0.6238,0,268,268,196,1,,,5a904702f053610001718d5d,643916335d138a8a1394d5b5,2023-04-14_10h01.28.353,PRaM,2021.2.3,Win32,60.17571308,61b8f3437b89212fae0dfade
5,2.5976,space,0.7176,0,269,269,344,1,,,5a904702f053610001718d5d,643916335d138a8a1394d5b5,2023-04-14_10h01.28.353,PRaM,2021.2.3,Win32,60.17571308,61b8f3437b89212fae0dfade
2,1.8568,space,0.1431,0,270,270,324,1,,,5a904702f053610001718d5d,643916335d138a8a1394d5b5,2023-04-14_10h01.28.353,PRaM,2021.2.3,Win32,60.17571308,61b8f3437b89212fae0dfade
2,1.7329,space,0.0108,0,271,271,15,1,,,5a904702f053610001718d5d,643916335d138a8a1394d5b5,2023-04-14_10h01.28.353,PRaM,2021.2.3,Win32,60.17571308,61b8f3437b89212fae0dfade
2,1.2763,space,1.5966,0,272,272,322,1,,,5a904702f053610001718d5d,643916335d138a8a1394d5b5,2023-04-14_10h01.28.353,PRaM,2021.2.3,Win32,60.17571308,61b8f3437b89212fae0dfade
9,3.3423,space,1.574,0,273,273,192,1,,,5a904702f053610001718d5d,643916335d138a8a1394d5b5,2023-04-14_10h01.28.353,PRaM,2021.2.3,Win32,60.17571308,61b8f3437b89212fae0dfade
1,2.4479,space,0.6819,0,274,274,214,1,,,5a904702f053610001718d5d,643916335d138a8a1394d5b5,2023-04-14_10h01.28.353,PRaM,2021.2.3,Win32,60.17571308,61b8f3437b89212fae0dfade
2,2.1229,space,0.7612,0,275,275,371,1,,,5a904702f053610001718d5d,643916335d138a8a1394d5b5,2023-04-14_10h01.28.353,PRaM,2021.2.3,Win32,60.17571308,61b8f3437b89212fae0dfade
2,2.6627,space,0.9425,0,276,276,172,1,,,5a904702f053610001718d5d,643916335d138a8a1394d5b5,2023-04-14_10h01.28.353,PRaM,2021.2.3,Win32,60.17571308,61b8f3437b89212fae0dfade
2,2.0052,space,0.2661,0,277,277,237,1,,,5a904702f053610001718d5d,643916335d138a8a1394d5b5,2023-04-14_10h01.28.353,PRaM,2021.2.3,Win32,60.17571308,61b8f3437b89212fae0dfade
1,2.0487,space,0.3091,0,278,278,247,1,,,5a904702f053610001718d5d,643916335d138a8a1394d5b5,2023-04-14_10h01.28.353,PRaM,2021.2.3,Win32,60.17571308,61b8f3437b89212fae0dfade
6,3.3551,space,1.5984,0,279,279,246,1,,,5a904702f053610001718d5d,643916335d138a8a1394d5b5,2023-04-14_10h01.28.353,PRaM,2021.2.3,Win32,60.17571308,61b8f3437b89212fae0dfade
2,1.5667,space,0.4376,0,280,280,187,1,,,5a904702f053610001718d5d,643916335d138a8a1394d5b5,2023-04-14_10h01.28.353,PRaM,2021.2.3,Win32,60.17571308,61b8f3437b89212fae0dfade
1,2.3343,space,0.5367,0,281,281,135,1,,,5a904702f053610001718d5d,643916335d138a8a1394d5b5,2023-04-14_10h01.28.353,PRaM,2021.2.3,Win32,60.17571308,61b8f3437b89212fae0dfade
7,2.8622,space,1.176,0,282,282,259,1,,,5a904702f053610001718d5d,643916335d138a8a1394d5b5,2023-04-14_10h01.28.353,PRaM,2021.2.3,Win32,60.17571308,61b8f3437b89212fae0dfade
8,2.6998,space,0.9064,0,283,283,288,1,,,5a904702f053610001718d5d,643916335d138a8a1394d5b5,2023-04-14_10h01.28.353,PRaM,2021.2.3,Win32,60.17571308,61b8f3437b89212fae0dfade
8,2.1731,space,0.4094,0,284,284,60,1,,,5a904702f053610001718d5d,643916335d138a8a1394d5b5,2023-04-14_10h01.28.353,PRaM,2021.2.3,Win32,60.17571308,61b8f3437b89212fae0dfade
8,2.6325,space,0.8523,0,285,285,114,1,,,5a904702f053610001718d5d,643916335d138a8a1394d5b5,2023-04-14_10h01.28.353,PRaM,2021.2.3,Win32,60.17571308,61b8f3437b89212fae0dfade
8,1.8312,space,0.0006,0,286,286,334,1,,,5a904702f053610001718d5d,643916335d138a8a1394d5b5,2023-04-14_10h01.28.353,PRaM,2021.2.3,Win32,60.17571308,61b8f3437b89212fae0dfade
7,2.5139,space,0.7907,0,287,287,88,1,,,5a904702f053610001718d5d,643916335d138a8a1394d5b5,2023-04-14_10h01.28.353,PRaM,2021.2.3,Win32,60.17571308,61b8f3437b89212fae0dfade
8,2.3562,space,0.5695,0,288,288,350,1,,,5a904702f053610001718d5d,643916335d138a8a1394d5b5,2023-04-14_10h01.28.353,PRaM,2021.2.3,Win32,60.17571308,61b8f3437b89212fae0dfade
1,2.0483,space,0.2657,0,289,289,313,1,,,5a904702f053610001718d5d,643916335d138a8a1394d5b5,2023-04-14_10h01.28.353,PRaM,2021.2.3,Win32,60.17571308,61b8f3437b89212fae0dfade
1,2.6922,space,0.8988,0,290,290,34,1,,,5a904702f053610001718d5d,643916335d138a8a1394d5b5,2023-04-14_10h01.28.353,PRaM,2021.2.3,Win32,60.17571308,61b8f3437b89212fae0dfade
7,2.0654,space,0.2501,0,291,291,230,1,,,5a904702f053610001718d5d,643916335d138a8a1394d5b5,2023-04-14_10h01.28.353,PRaM,2021.2.3,Win32,60.17571308,61b8f3437b89212fae0dfade
1,3.0282,space,1.1272,0,292,292,359,1,,,5a904702f053610001718d5d,643916335d138a8a1394d5b5,2023-04-14_10h01.28.353,PRaM,2021.2.3,Win32,60.17571308,61b8f3437b89212fae0dfade
2,2.4998,space,0.6821,0,293,293,170,1,,,5a904702f053610001718d5d,643916335d138a8a1394d5b5,2023-04-14_10h01.28.353,PRaM,2021.2.3,Win32,60.17571308,61b8f3437b89212fae0dfade
8,2.2102,space,0.449,0,294,294,7,1,,,5a904702f053610001718d5d,643916335d138a8a1394d5b5,2023-04-14_10h01.28.353,PRaM,2021.2.3,Win32,60.17571308,61b8f3437b89212fae0dfade
9,2.6163,space,0.836,0,295,295,197,1,,,5a904702f053610001718d5d,643916335d138a8a1394d5b5,2023-04-14_10h01.28.353,PRaM,2021.2.3,Win32,60.17571308,61b8f3437b89212fae0dfade
2,4.0967,space,2.2984,0,296,296,133,1,,,5a904702f053610001718d5d,643916335d138a8a1394d5b5,2023-04-14_10h01.28.353,PRaM,2021.2.3,Win32,60.17571308,61b8f3437b89212fae0dfade
2,1.427,space,0.2474,0,297,297,101,1,,,5a904702f053610001718d5d,643916335d138a8a1394d5b5,2023-04-14_10h01.28.353,PRaM,2021.2.3,Win32,60.17571308,61b8f3437b89212fae0dfade
2,1.1158,space,0.1095,0,298,298,356,1,,,5a904702f053610001718d5d,643916335d138a8a1394d5b5,2023-04-14_10h01.28.353,PRaM,2021.2.3,Win32,60.17571308,61b8f3437b89212fae0dfade
4,4.8666,space,3.1136,0,299,299,261,1,,,5a904702f053610001718d5d,643916335d138a8a1394d5b5,2023-04-14_10h01.28.353,PRaM,2021.2.3,Win32,60.17571308,61b8f3437b89212fae0dfade
2,2.4321,space,0.6578,0,300,300,27,1,,,5a904702f053610001718d5d,643916335d138a8a1394d5b5,2023-04-14_10h01.28.353,PRaM,2021.2.3,Win32,60.17571308,61b8f3437b89212fae0dfade
2,2.4088,space,0.6656,0,301,301,57,1,,,5a904702f053610001718d5d,643916335d138a8a1394d5b5,2023-04-14_10h01.28.353,PRaM,2021.2.3,Win32,60.17571308,61b8f3437b89212fae0dfade
1,3.3015,space,1.588,0,302,302,189,1,,,5a904702f053610001718d5d,643916335d138a8a1394d5b5,2023-04-14_10h01.28.353,PRaM,2021.2.3,Win32,60.17571308,61b8f3437b89212fae0dfade
1,2.3351,space,0.5658,0,303,303,190,1,,,5a904702f053610001718d5d,643916335d138a8a1394d5b5,2023-04-14_10h01.28.353,PRaM,2021.2.3,Win32,60.17571308,61b8f3437b89212fae0dfade
4,2.068,space,0.2551,0,304,304,118,1,,,5a904702f053610001718d5d,643916335d138a8a1394d5b5,2023-04-14_10h01.28.353,PRaM,2021.2.3,Win32,60.17571308,61b8f3437b89212fae0dfade
2,1.749,space,0.3991,0,305,305,106,1,,,5a904702f053610001718d5d,643916335d138a8a1394d5b5,2023-04-14_10h01.28.353,PRaM,2021.2.3,Win32,60.17571308,61b8f3437b89212fae0dfade
2,2.0341,space,0.3379,0,306,306,136,1,,,5a904702f053610001718d5d,643916335d138a8a1394d5b5,2023-04-14_10h01.28.353,PRaM,2021.2.3,Win32,60.17571308,61b8f3437b89212fae0dfade
7,8.9601,space,7.2649,0,307,307,238,1,,,5a904702f053610001718d5d,643916335d138a8a1394d5b5,2023-04-14_10h01.28.353,PRaM,2021.2.3,Win32,60.17571308,61b8f3437b89212fae0dfade
2,1.7177,space,0.3833,0,308,308,315,1,,,5a904702f053610001718d5d,643916335d138a8a1394d5b5,2023-04-14_10h01.28.353,PRaM,2021.2.3,Win32,60.17571308,61b8f3437b89212fae0dfade
6,2.2149,space,0.5143,0,309,309,6,1,,,5a904702f053610001718d5d,643916335d138a8a1394d5b5,2023-04-14_10h01.28.353,PRaM,2021.2.3,Win32,60.17571308,61b8f3437b89212fae0dfade
5,2.5074,space,0.7201,0,310,310,105,1,,,5a904702f053610001718d5d,643916335d138a8a1394d5b5,2023-04-14_10h01.28.353,PRaM,2021.2.3,Win32,60.17571308,61b8f3437b89212fae0dfade
4,4.741,space,3.0248,0,311,311,233,1,,,5a904702f053610001718d5d,643916335d138a8a1394d5b5,2023-04-14_10h01.28.353,PRaM,2021.2.3,Win32,60.17571308,61b8f3437b89212fae0dfade
3,2.3644,space,0.6326,0,312,312,37,1,,,5a904702f053610001718d5d,643916335d138a8a1394d5b5,2023-04-14_10h01.28.353,PRaM,2021.2.3,Win32,60.17571308,61b8f3437b89212fae0dfade
4,2.6256,space,0.9055,0,313,313,202,1,,,5a904702f053610001718d5d,643916335d138a8a1394d5b5,2023-04-14_10h01.28.353,PRaM,2021.2.3,Win32,60.17571308,61b8f3437b89212fae0dfade
8,3.7959,space,2.0777,0,314,314,319,1,,,5a904702f053610001718d5d,643916335d138a8a1394d5b5,2023-04-14_10h01.28.353,PRaM,2021.2.3,Win32,60.17571308,61b8f3437b89212fae0dfade
2,2.111,space,0.2914,0,315,315,300,1,,,5a904702f053610001718d5d,643916335d138a8a1394d5b5,2023-04-14_10h01.28.353,PRaM,2021.2.3,Win32,60.17571308,61b8f3437b89212fae0dfade
9,2.3693,space,0.6434,0,316,316,302,1,,,5a904702f053610001718d5d,643916335d138a8a1394d5b5,2023-04-14_10h01.28.353,PRaM,2021.2.3,Win32,60.17571308,61b8f3437b89212fae0dfade
8,2.3976,space,0.6384,0,317,317,119,1,,,5a904702f053610001718d5d,643916335d138a8a1394d5b5,2023-04-14_10h01.28.353,PRaM,2021.2.3,Win32,60.17571308,61b8f3437b89212fae0dfade
2,3.377,space,1.7158,0,318,318,109,1,,,5a904702f053610001718d5d,643916335d138a8a1394d5b5,2023-04-14_10h01.28.353,PRaM,2021.2.3,Win32,60.17571308,61b8f3437b89212fae0dfade
5,4.8541,space,3.092,0,319,319,182,1,,,5a904702f053610001718d5d,643916335d138a8a1394d5b5,2023-04-14_10h01.28.353,PRaM,2021.2.3,Win32,60.17571308,61b8f3437b89212fae0dfade
4,4.0023,space,2.3794,0,320,320,98,1,,,5a904702f053610001718d5d,643916335d138a8a1394d5b5,2023-04-14_10h01.28.353,PRaM,2021.2.3,Win32,60.17571308,61b8f3437b89212fae0dfade
2,2.3476,space,0.4998,0,321,321,354,1,,,5a904702f053610001718d5d,643916335d138a8a1394d5b5,2023-04-14_10h01.28.353,PRaM,2021.2.3,Win32,60.17571308,61b8f3437b89212fae0dfade
2,3.6078,space,1.7589,0,322,322,78,1,,,5a904702f053610001718d5d,643916335d138a8a1394d5b5,2023-04-14_10h01.28.353,PRaM,2021.2.3,Win32,60.17571308,61b8f3437b89212fae0dfade
2,1.5031,space,0.3728,0,323,323,36,1,,,5a904702f053610001718d5d,643916335d138a8a1394d5b5,2023-04-14_10h01.28.353,PRaM,2021.2.3,Win32,60.17571308,61b8f3437b89212fae0dfade
1,2.0197,space,0.3365,0,324,324,67,1,,,5a904702f053610001718d5d,643916335d138a8a1394d5b5,2023-04-14_10h01.28.353,PRaM,2021.2.3,Win32,60.17571308,61b8f3437b89212fae0dfade
2,3.084,space,1.2897,0,325,325,309,1,,,5a904702f053610001718d5d,643916335d138a8a1394d5b5,2023-04-14_10h01.28.353,PRaM,2021.2.3,Win32,60.17571308,61b8f3437b89212fae0dfade
2,2.2653,space,0.5293,0,326,326,183,1,,,5a904702f053610001718d5d,643916335d138a8a1394d5b5,2023-04-14_10h01.28.353,PRaM,2021.2.3,Win32,60.17571308,61b8f3437b89212fae0dfade
8,2.3184,space,0.5494,0,327,327,301,1,,,5a904702f053610001718d5d,643916335d138a8a1394d5b5,2023-04-14_10h01.28.353,PRaM,2021.2.3,Win32,60.17571308,61b8f3437b89212fae0dfade
2,1.9318,space,0.2368,0,328,328,49,1,,,5a904702f053610001718d5d,643916335d138a8a1394d5b5,2023-04-14_10h01.28.353,PRaM,2021.2.3,Win32,60.17571308,61b8f3437b89212fae0dfade
8,3.3904,space,1.646,0,329,329,64,1,,,5a904702f053610001718d5d,643916335d138a8a1394d5b5,2023-04-14_10h01.28.353,PRaM,2021.2.3,Win32,60.17571308,61b8f3437b89212fae0dfade
8,1.5001,space,0.1496,0,330,330,325,1,,,5a904702f053610001718d5d,643916335d138a8a1394d5b5,2023-04-14_10h01.28.353,PRaM,2021.2.3,Win32,60.17571308,61b8f3437b89212fae0dfade
2,1.8158,space,0.0173,0,331,331,245,1,,,5a904702f053610001718d5d,643916335d138a8a1394d5b5,2023-04-14_10h01.28.353,PRaM,2021.2.3,Win32,60.17571308,61b8f3437b89212fae0dfade
2,3.1277,space,1.4291,0,332,332,355,1,,,5a904702f053610001718d5d,643916335d138a8a1394d5b5,2023-04-14_10h01.28.353,PRaM,2021.2.3,Win32,60.17571308,61b8f3437b89212fae0dfade
1,2.3766,space,0.4997,0,333,333,232,1,,,5a904702f053610001718d5d,643916335d138a8a1394d5b5,2023-04-14_10h01.28.353,PRaM,2021.2.3,Win32,60.17571308,61b8f3437b89212fae0dfade
2,2.3634,space,0.5454,0,334,334,48,1,,,5a904702f053610001718d5d,643916335d138a8a1394d5b5,2023-04-14_10h01.28.353,PRaM,2021.2.3,Win32,60.17571308,61b8f3437b89212fae0dfade
2,1.6324,space,0.0345,0,335,335,2,1,,,5a904702f053610001718d5d,643916335d138a8a1394d5b5,2023-04-14_10h01.28.353,PRaM,2021.2.3,Win32,60.17571308,61b8f3437b89212fae0dfade
3,2.2253,space,0.5313,0,336,336,25,1,,,5a904702f053610001718d5d,643916335d138a8a1394d5b5,2023-04-14_10h01.28.353,PRaM,2021.2.3,Win32,60.17571308,61b8f3437b89212fae0dfade
2,1.3558,space,0.8924,0,337,337,26,1,,,5a904702f053610001718d5d,643916335d138a8a1394d5b5,2023-04-14_10h01.28.353,PRaM,2021.2.3,Win32,60.17571308,61b8f3437b89212fae0dfade
6,3.7941,space,2.018,0,338,338,69,1,,,5a904702f053610001718d5d,643916335d138a8a1394d5b5,2023-04-14_10h01.28.353,PRaM,2021.2.3,Win32,60.17571308,61b8f3437b89212fae0dfade
5,1.916,space,0.1329,0,339,339,43,1,,,5a904702f053610001718d5d,643916335d138a8a1394d5b5,2023-04-14_10h01.28.353,PRaM,2021.2.3,Win32,60.17571308,61b8f3437b89212fae0dfade
2,2.0978,space,0.4198,0,340,340,343,1,,,5a904702f053610001718d5d,643916335d138a8a1394d5b5,2023-04-14_10h01.28.353,PRaM,2021.2.3,Win32,60.17571308,61b8f3437b89212fae0dfade
3,2.0983,space,0.2997,0,341,341,310,1,,,5a904702f053610001718d5d,643916335d138a8a1394d5b5,2023-04-14_10h01.28.353,PRaM,2021.2.3,Win32,60.17571308,61b8f3437b89212fae0dfade
2,3.3311,space,1.4796,0,342,342,148,1,,,5a904702f053610001718d5d,643916335d138a8a1394d5b5,2023-04-14_10h01.28.353,PRaM,2021.2.3,Win32,60.17571308,61b8f3437b89212fae0dfade
9,2.5338,space,0.779,0,343,343,61,1,,,5a904702f053610001718d5d,643916335d138a8a1394d5b5,2023-04-14_10h01.28.353,PRaM,2021.2.3,Win32,60.17571308,61b8f3437b89212fae0dfade
7,2.1503,space,0.3161,0,344,344,142,1,,,5a904702f053610001718d5d,643916335d138a8a1394d5b5,2023-04-14_10h01.28.353,PRaM,2021.2.3,Win32,60.17571308,61b8f3437b89212fae0dfade
7,1.9992,space,0.0711,0,345,345,279,1,,,5a904702f053610001718d5d,643916335d138a8a1394d5b5,2023-04-14_10h01.28.353,PRaM,2021.2.3,Win32,60.17571308,61b8f3437b89212fae0dfade
8,2.8597,space,1.0878,0,346,346,153,1,,,5a904702f053610001718d5d,643916335d138a8a1394d5b5,2023-04-14_10h01.28.353,PRaM,2021.2.3,Win32,60.17571308,61b8f3437b89212fae0dfade
2,1.8898,space,0.0949,0,347,347,299,1,,,5a904702f053610001718d5d,643916335d138a8a1394d5b5,2023-04-14_10h01.28.353,PRaM,2021.2.3,Win32,60.17571308,61b8f3437b89212fae0dfade
8,3.222,space,1.4036,0,348,348,372,1,,,5a904702f053610001718d5d,643916335d138a8a1394d5b5,2023-04-14_10h01.28.353,PRaM,2021.2.3,Win32,60.17571308,61b8f3437b89212fae0dfade
2,2.1228,space,0.3493,0,349,349,362,1,,,5a904702f053610001718d5d,643916335d138a8a1394d5b5,2023-04-14_10h01.28.353,PRaM,2021.2.3,Win32,60.17571308,61b8f3437b89212fae0dfade
2,2.1715,space,0.3791,0,350,350,253,1,,,5a904702f053610001718d5d,643916335d138a8a1394d5b5,2023-04-14_10h01.28.353,PRaM,2021.2.3,Win32,60.17571308,61b8f3437b89212fae0dfade
7,3.1289,space,1.4811,0,351,351,150,1,,,5a904702f053610001718d5d,643916335d138a8a1394d5b5,2023-04-14_10h01.28.353,PRaM,2021.2.3,Win32,60.17571308,61b8f3437b89212fae0dfade
8,3.4742,space,1.7128,0,352,352,4,1,,,5a904702f053610001718d5d,643916335d138a8a1394d5b5,2023-04-14_10h01.28.353,PRaM,2021.2.3,Win32,60.17571308,61b8f3437b89212fae0dfade
9,2.8287,space,1.1813,0,353,353,326,1,,,5a904702f053610001718d5d,643916335d138a8a1394d5b5,2023-04-14_10h01.28.353,PRaM,2021.2.3,Win32,60.17571308,61b8f3437b89212fae0dfade
2,1.8167,space,0.0498,0,354,354,91,1,,,5a904702f053610001718d5d,643916335d138a8a1394d5b5,2023-04-14_10h01.28.353,PRaM,2021.2.3,Win32,60.17571308,61b8f3437b89212fae0dfade
6,3.4407,space,1.6946,0,355,355,164,1,,,5a904702f053610001718d5d,643916335d138a8a1394d5b5,2023-04-14_10h01.28.353,PRaM,2021.2.3,Win32,60.17571308,61b8f3437b89212fae0dfade
5,1.8889,space,0.1552,0,356,356,347,1,,,5a904702f053610001718d5d,643916335d138a8a1394d5b5,2023-04-14_10h01.28.353,PRaM,2021.2.3,Win32,60.17571308,61b8f3437b89212fae0dfade
2,1.9747,space,0.2777,0,357,357,146,1,,,5a904702f053610001718d5d,643916335d138a8a1394d5b5,2023-04-14_10h01.28.353,PRaM,2021.2.3,Win32,60.17571308,61b8f3437b89212fae0dfade
3,1.971,space,0.1991,0,358,358,30,1,,,5a904702f053610001718d5d,643916335d138a8a1394d5b5,2023-04-14_10h01.28.353,PRaM,2021.2.3,Win32,60.17571308,61b8f3437b89212fae0dfade
5,2.3136,space,0.599,0,359,359,194,1,,,5a904702f053610001718d5d,643916335d138a8a1394d5b5,2023-04-14_10h01.28.353,PRaM,2021.2.3,Win32,60.17571308,61b8f3437b89212fae0dfade
2,2.1724,space,0.4659,0,360,360,293,1,,,5a904702f053610001718d5d,643916335d138a8a1394d5b5,2023-04-14_10h01.28.353,PRaM,2021.2.3,Win32,60.17571308,61b8f3437b89212fae0dfade
2,1.1375,space,1.1167,0,361,361,311,1,,,5a904702f053610001718d5d,643916335d138a8a1394d5b5,2023-04-14_10h01.28.353,PRaM,2021.2.3,Win32,60.17571308,61b8f3437b89212fae0dfade
1,2.2302,space,0.5653,0,362,362,24,1,,,5a904702f053610001718d5d,643916335d138a8a1394d5b5,2023-04-14_10h01.28.353,PRaM,2021.2.3,Win32,60.17571308,61b8f3437b89212fae0dfade
1,1.9141,space,0.1513,0,363,363,290,1,,,5a904702f053610001718d5d,643916335d138a8a1394d5b5,2023-04-14_10h01.28.353,PRaM,2021.2.3,Win32,60.17571308,61b8f3437b89212fae0dfade
1,3.0289,space,1.3017,0,364,364,175,1,,,5a904702f053610001718d5d,643916335d138a8a1394d5b5,2023-04-14_10h01.28.353,PRaM,2021.2.3,Win32,60.17571308,61b8f3437b89212fae0dfade
7,1.9152,space,0.2381,0,365,365,276,1,,,5a904702f053610001718d5d,643916335d138a8a1394d5b5,2023-04-14_10h01.28.353,PRaM,2021.2.3,Win32,60.17571308,61b8f3437b89212fae0dfade
1,4.1796,space,2.4264,0,366,366,92,1,,,5a904702f053610001718d5d,643916335d138a8a1394d5b5,2023-04-14_10h01.28.353,PRaM,2021.2.3,Win32,60.17571308,61b8f3437b89212fae0dfade
8,2.4157,space,0.7363,0,367,367,53,1,,,5a904702f053610001718d5d,643916335d138a8a1394d5b5,2023-04-14_10h01.28.353,PRaM,2021.2.3,Win32,60.17571308,61b8f3437b89212fae0dfade
2,2.6384,space,0.8734,0,368,368,203,1,,,5a904702f053610001718d5d,643916335d138a8a1394d5b5,2023-04-14_10h01.28.353,PRaM,2021.2.3,Win32,60.17571308,61b8f3437b89212fae0dfade
2,20.0328,space,18.3288,0,369,369,44,1,,,5a904702f053610001718d5d,643916335d138a8a1394d5b5,2023-04-14_10h01.28.353,PRaM,2021.2.3,Win32,60.17571308,61b8f3437b89212fae0dfade
4,2.259,space,0.4758,0,370,370,115,1,,,5a904702f053610001718d5d,643916335d138a8a1394d5b5,2023-04-14_10h01.28.353,PRaM,2021.2.3,Win32,60.17571308,61b8f3437b89212fae0dfade
2,2.1485,space,0.3831,0,371,371,123,1,,,5a904702f053610001718d5d,643916335d138a8a1394d5b5,2023-04-14_10h01.28.353,PRaM,2021.2.3,Win32,60.17571308,61b8f3437b89212fae0dfade
5,2.2324,space,0.5321,0,372,372,274,1,,,5a904702f053610001718d5d,643916335d138a8a1394d5b5,2023-04-14_10h01.28.353,PRaM,2021.2.3,Win32,60.17571308,61b8f3437b89212fae0dfade
8,2.146,space,0.3936,0,373,373,80,1,,,5a904702f053610001718d5d,643916335d138a8a1394d5b5,2023-04-14_10h01.28.353,PRaM,2021.2.3,Win32,60.17571308,61b8f3437b89212fae0dfade
2,1.6892,space,0.3542,0,374,374,272,1,,,5a904702f053610001718d5d,643916335d138a8a1394d5b5,2023-04-14_10h01.28.353,PRaM,2021.2.3,Win32,60.17571308,61b8f3437b89212fae0dfade
7,2.3637,space,0.6552,0,375,375,328,1,,,5a904702f053610001718d5d,643916335d138a8a1394d5b5,2023-04-14_10h01.28.353,PRaM,2021.2.3,Win32,60.17571308,61b8f3437b89212fae0dfade
7,1.9033,space,0.384,0,376,376,38,1,,,5a904702f053610001718d5d,643916335d138a8a1394d5b5,2023-04-14_10h01.28.353,PRaM,2021.2.3,Win32,60.17571308,61b8f3437b89212fae0dfade
2,8.012,space,6.2666,0,377,377,10,1,,,5a904702f053610001718d5d,643916335d138a8a1394d5b5,2023-04-14_10h01.28.353,PRaM,2021.2.3,Win32,60.17571308,61b8f3437b89212fae0dfade
