Rating.response,Rating.rt,EndTrial.keys,EndTrial.rt,trials.thisRepN,trials.thisTrialN,trials.thisN,trials.thisIndex,trials.ran,Pos1,Pos2,participant,session,date,expName,psychopyVersion,OS,frameRate,study_id
1,10.472,space,11.082,0,0,0,41,1,,,5a9262251eda410001360b2c,6437731f00d735c94b9cf4ee,2023-04-12_22h16.31.965,PRaM,2021.2.3,Win32,20.00080003,61b8f3437b89212fae0dfadf
6,5.015,space,5.953,0,1,1,221,1,,,5a9262251eda410001360b2c,6437731f00d735c94b9cf4ee,2023-04-12_22h16.31.965,PRaM,2021.2.3,Win32,20.00080003,61b8f3437b89212fae0dfadf
3,7.351,space,6.397,0,2,2,199,1,,,5a9262251eda410001360b2c,6437731f00d735c94b9cf4ee,2023-04-12_22h16.31.965,PRaM,2021.2.3,Win32,20.00080003,61b8f3437b89212fae0dfadf
5,6.55,space,8.582,0,3,3,118,1,,,5a9262251eda410001360b2c,6437731f00d735c94b9cf4ee,2023-04-12_22h16.31.965,PRaM,2021.2.3,Win32,20.00080003,61b8f3437b89212fae0dfadf
2,8.037,space,6.98,0,4,4,46,1,,,5a9262251eda410001360b2c,6437731f00d735c94b9cf4ee,2023-04-12_22h16.31.965,PRaM,2021.2.3,Win32,20.00080003,61b8f3437b89212fae0dfadf
1,3.004,space,2.111,0,5,5,68,1,,,5a9262251eda410001360b2c,6437731f00d735c94b9cf4ee,2023-04-12_22h16.31.965,PRaM,2021.2.3,Win32,20.00080003,61b8f3437b89212fae0dfadf
9,2.845,space,1.475,0,6,6,197,1,,,5a9262251eda410001360b2c,6437731f00d735c94b9cf4ee,2023-04-12_22h16.31.965,PRaM,2021.2.3,Win32,20.00080003,61b8f3437b89212fae0dfadf
1,4.699,space,3.378,0,7,7,92,1,,,5a9262251eda410001360b2c,6437731f00d735c94b9cf4ee,2023-04-12_22h16.31.965,PRaM,2021.2.3,Win32,20.00080003,61b8f3437b89212fae0dfadf
3,5.149,space,3.974,0,8,8,313,1,,,5a9262251eda410001360b2c,6437731f00d735c94b9cf4ee,2023-04-12_22h16.31.965,PRaM,2021.2.3,Win32,20.00080003,61b8f3437b89212fae0dfadf
4,7.566,space,6.456,0,9,9,4,1,,,5a9262251eda410001360b2c,6437731f00d735c94b9cf4ee,2023-04-12_22h16.31.965,PRaM,2021.2.3,Win32,20.00080003,61b8f3437b89212fae0dfadf
2,4.972,space,3.762,0,10,10,162,1,,,5a9262251eda410001360b2c,6437731f00d735c94b9cf4ee,2023-04-12_22h16.31.965,PRaM,2021.2.3,Win32,20.00080003,61b8f3437b89212fae0dfadf
2,4.278,space,2.828,0,11,11,98,1,,,5a9262251eda410001360b2c,6437731f00d735c94b9cf4ee,2023-04-12_22h16.31.965,PRaM,2021.2.3,Win32,20.00080003,61b8f3437b89212fae0dfadf
1,6.611,space,5.618,0,12,12,40,1,,,5a9262251eda410001360b2c,6437731f00d735c94b9cf4ee,2023-04-12_22h16.31.965,PRaM,2021.2.3,Win32,20.00080003,61b8f3437b89212fae0dfadf
5,4.838,space,3.607,0,13,13,37,1,,,5a9262251eda410001360b2c,6437731f00d735c94b9cf4ee,2023-04-12_22h16.31.965,PRaM,2021.2.3,Win32,20.00080003,61b8f3437b89212fae0dfadf
1,5.123,space,5.327,0,14,14,77,1,,,5a9262251eda410001360b2c,6437731f00d735c94b9cf4ee,2023-04-12_22h16.31.965,PRaM,2021.2.3,Win32,20.00080003,61b8f3437b89212fae0dfadf
1,3.08,space,1.529,0,15,15,227,1,,,5a9262251eda410001360b2c,6437731f00d735c94b9cf4ee,2023-04-12_22h16.31.965,PRaM,2021.2.3,Win32,20.00080003,61b8f3437b89212fae0dfadf
3,5.009,space,3.836,0,16,16,294,1,,,5a9262251eda410001360b2c,6437731f00d735c94b9cf4ee,2023-04-12_22h16.31.965,PRaM,2021.2.3,Win32,20.00080003,61b8f3437b89212fae0dfadf
3,9.907,space,9.031,0,17,17,33,1,,,5a9262251eda410001360b2c,6437731f00d735c94b9cf4ee,2023-04-12_22h16.31.965,PRaM,2021.2.3,Win32,20.00080003,61b8f3437b89212fae0dfadf
1,6.902,space,5.338,0,18,18,176,1,,,5a9262251eda410001360b2c,6437731f00d735c94b9cf4ee,2023-04-12_22h16.31.965,PRaM,2021.2.3,Win32,20.00080003,61b8f3437b89212fae0dfadf
3,2.728,space,1.302,0,19,19,165,1,,,5a9262251eda410001360b2c,6437731f00d735c94b9cf4ee,2023-04-12_22h16.31.965,PRaM,2021.2.3,Win32,20.00080003,61b8f3437b89212fae0dfadf
1,3.505,space,2.743,0,20,20,72,1,,,5a9262251eda410001360b2c,6437731f00d735c94b9cf4ee,2023-04-12_22h16.31.965,PRaM,2021.2.3,Win32,20.00080003,61b8f3437b89212fae0dfadf
1,3.892,space,2.786,0,21,21,206,1,,,5a9262251eda410001360b2c,6437731f00d735c94b9cf4ee,2023-04-12_22h16.31.965,PRaM,2021.2.3,Win32,20.00080003,61b8f3437b89212fae0dfadf
1,3.685,space,2.397,0,22,22,210,1,,,5a9262251eda410001360b2c,6437731f00d735c94b9cf4ee,2023-04-12_22h16.31.965,PRaM,2021.2.3,Win32,20.00080003,61b8f3437b89212fae0dfadf
2,5.616,space,4.374,0,23,23,167,1,,,5a9262251eda410001360b2c,6437731f00d735c94b9cf4ee,2023-04-12_22h16.31.965,PRaM,2021.2.3,Win32,20.00080003,61b8f3437b89212fae0dfadf
1,5.798,space,4.692,0,24,24,169,1,,,5a9262251eda410001360b2c,6437731f00d735c94b9cf4ee,2023-04-12_22h16.31.965,PRaM,2021.2.3,Win32,20.00080003,61b8f3437b89212fae0dfadf
2,2.685,space,1.516,0,25,25,187,1,,,5a9262251eda410001360b2c,6437731f00d735c94b9cf4ee,2023-04-12_22h16.31.965,PRaM,2021.2.3,Win32,20.00080003,61b8f3437b89212fae0dfadf
5,4.828,space,5.738,0,26,26,66,1,,,5a9262251eda410001360b2c,6437731f00d735c94b9cf4ee,2023-04-12_22h16.31.965,PRaM,2021.2.3,Win32,20.00080003,61b8f3437b89212fae0dfadf
9,2.47,space,1.013,0,27,27,291,1,,,5a9262251eda410001360b2c,6437731f00d735c94b9cf4ee,2023-04-12_22h16.31.965,PRaM,2021.2.3,Win32,20.00080003,61b8f3437b89212fae0dfadf
3,4.369,space,9.773,0,28,28,236,1,,,5a9262251eda410001360b2c,6437731f00d735c94b9cf4ee,2023-04-12_22h16.31.965,PRaM,2021.2.3,Win32,20.00080003,61b8f3437b89212fae0dfadf
3,4.925,space,4.731,0,29,29,175,1,,,5a9262251eda410001360b2c,6437731f00d735c94b9cf4ee,2023-04-12_22h16.31.965,PRaM,2021.2.3,Win32,20.00080003,61b8f3437b89212fae0dfadf
1,2.582,space,1.462,0,30,30,103,1,,,5a9262251eda410001360b2c,6437731f00d735c94b9cf4ee,2023-04-12_22h16.31.965,PRaM,2021.2.3,Win32,20.00080003,61b8f3437b89212fae0dfadf
5,4.511,space,3.202,0,31,31,363,1,,,5a9262251eda410001360b2c,6437731f00d735c94b9cf4ee,2023-04-12_22h16.31.965,PRaM,2021.2.3,Win32,20.00080003,61b8f3437b89212fae0dfadf
4,5.029,space,4.616,0,32,32,274,1,,,5a9262251eda410001360b2c,6437731f00d735c94b9cf4ee,2023-04-12_22h16.31.965,PRaM,2021.2.3,Win32,20.00080003,61b8f3437b89212fae0dfadf
7,5.143,space,4.027,0,33,33,254,1,,,5a9262251eda410001360b2c,6437731f00d735c94b9cf4ee,2023-04-12_22h16.31.965,PRaM,2021.2.3,Win32,20.00080003,61b8f3437b89212fae0dfadf
1,3.114,space,1.847,0,34,34,250,1,,,5a9262251eda410001360b2c,6437731f00d735c94b9cf4ee,2023-04-12_22h16.31.965,PRaM,2021.2.3,Win32,20.00080003,61b8f3437b89212fae0dfadf
1,4.997,space,3.629,0,35,35,52,1,,,5a9262251eda410001360b2c,6437731f00d735c94b9cf4ee,2023-04-12_22h16.31.965,PRaM,2021.2.3,Win32,20.00080003,61b8f3437b89212fae0dfadf
2,6.887,space,5.432,0,36,36,22,1,,,5a9262251eda410001360b2c,6437731f00d735c94b9cf4ee,2023-04-12_22h16.31.965,PRaM,2021.2.3,Win32,20.00080003,61b8f3437b89212fae0dfadf
1,2.515,space,1.348,0,37,37,55,1,,,5a9262251eda410001360b2c,6437731f00d735c94b9cf4ee,2023-04-12_22h16.31.965,PRaM,2021.2.3,Win32,20.00080003,61b8f3437b89212fae0dfadf
8,3.631,space,2.659,0,38,38,17,1,,,5a9262251eda410001360b2c,6437731f00d735c94b9cf4ee,2023-04-12_22h16.31.965,PRaM,2021.2.3,Win32,20.00080003,61b8f3437b89212fae0dfadf
2,2.495,space,1.432,0,39,39,255,1,,,5a9262251eda410001360b2c,6437731f00d735c94b9cf4ee,2023-04-12_22h16.31.965,PRaM,2021.2.3,Win32,20.00080003,61b8f3437b89212fae0dfadf
5,3.801,space,2.827,0,40,40,139,1,,,5a9262251eda410001360b2c,6437731f00d735c94b9cf4ee,2023-04-12_22h16.31.965,PRaM,2021.2.3,Win32,20.00080003,61b8f3437b89212fae0dfadf
1,2.927,space,2.311,0,41,41,185,1,,,5a9262251eda410001360b2c,6437731f00d735c94b9cf4ee,2023-04-12_22h16.31.965,PRaM,2021.2.3,Win32,20.00080003,61b8f3437b89212fae0dfadf
5,5.302,space,5.78,0,42,42,271,1,,,5a9262251eda410001360b2c,6437731f00d735c94b9cf4ee,2023-04-12_22h16.31.965,PRaM,2021.2.3,Win32,20.00080003,61b8f3437b89212fae0dfadf
1,3.188,space,1.727,0,43,43,44,1,,,5a9262251eda410001360b2c,6437731f00d735c94b9cf4ee,2023-04-12_22h16.31.965,PRaM,2021.2.3,Win32,20.00080003,61b8f3437b89212fae0dfadf
4,6.505,space,5.781,0,44,44,182,1,,,5a9262251eda410001360b2c,6437731f00d735c94b9cf4ee,2023-04-12_22h16.31.965,PRaM,2021.2.3,Win32,20.00080003,61b8f3437b89212fae0dfadf
1,7.399,space,6.273,0,45,45,151,1,,,5a9262251eda410001360b2c,6437731f00d735c94b9cf4ee,2023-04-12_22h16.31.965,PRaM,2021.2.3,Win32,20.00080003,61b8f3437b89212fae0dfadf
1,2.176,space,0.7,0,46,46,157,1,,,5a9262251eda410001360b2c,6437731f00d735c94b9cf4ee,2023-04-12_22h16.31.965,PRaM,2021.2.3,Win32,20.00080003,61b8f3437b89212fae0dfadf
1,3.549,space,2.018,0,47,47,283,1,,,5a9262251eda410001360b2c,6437731f00d735c94b9cf4ee,2023-04-12_22h16.31.965,PRaM,2021.2.3,Win32,20.00080003,61b8f3437b89212fae0dfadf
1,4.359,space,3.133,0,48,48,109,1,,,5a9262251eda410001360b2c,6437731f00d735c94b9cf4ee,2023-04-12_22h16.31.965,PRaM,2021.2.3,Win32,20.00080003,61b8f3437b89212fae0dfadf
2,5.516,space,4.043,0,49,49,287,1,,,5a9262251eda410001360b2c,6437731f00d735c94b9cf4ee,2023-04-12_22h16.31.965,PRaM,2021.2.3,Win32,20.00080003,61b8f3437b89212fae0dfadf
8,2.915,space,1.865,0,50,50,53,1,,,5a9262251eda410001360b2c,6437731f00d735c94b9cf4ee,2023-04-12_22h16.31.965,PRaM,2021.2.3,Win32,20.00080003,61b8f3437b89212fae0dfadf
2,7.033,space,5.78,0,51,51,128,1,,,5a9262251eda410001360b2c,6437731f00d735c94b9cf4ee,2023-04-12_22h16.31.965,PRaM,2021.2.3,Win32,20.00080003,61b8f3437b89212fae0dfadf
1,6.035,space,5.678,0,52,52,282,1,,,5a9262251eda410001360b2c,6437731f00d735c94b9cf4ee,2023-04-12_22h16.31.965,PRaM,2021.2.3,Win32,20.00080003,61b8f3437b89212fae0dfadf
1,2.482,space,0.992,0,53,53,312,1,,,5a9262251eda410001360b2c,6437731f00d735c94b9cf4ee,2023-04-12_22h16.31.965,PRaM,2021.2.3,Win32,20.00080003,61b8f3437b89212fae0dfadf
3,11.006,space,9.547,0,54,54,144,1,,,5a9262251eda410001360b2c,6437731f00d735c94b9cf4ee,2023-04-12_22h16.31.965,PRaM,2021.2.3,Win32,20.00080003,61b8f3437b89212fae0dfadf
9,3.627,space,2.35,0,55,55,269,1,,,5a9262251eda410001360b2c,6437731f00d735c94b9cf4ee,2023-04-12_22h16.31.965,PRaM,2021.2.3,Win32,20.00080003,61b8f3437b89212fae0dfadf
1,2.181,space,0.611,0,56,56,247,1,,,5a9262251eda410001360b2c,6437731f00d735c94b9cf4ee,2023-04-12_22h16.31.965,PRaM,2021.2.3,Win32,20.00080003,61b8f3437b89212fae0dfadf
4,2.66,space,1.169,0,57,57,351,1,,,5a9262251eda410001360b2c,6437731f00d735c94b9cf4ee,2023-04-12_22h16.31.965,PRaM,2021.2.3,Win32,20.00080003,61b8f3437b89212fae0dfadf
1,4.405,space,2.654,0,58,58,145,1,,,5a9262251eda410001360b2c,6437731f00d735c94b9cf4ee,2023-04-12_22h16.31.965,PRaM,2021.2.3,Win32,20.00080003,61b8f3437b89212fae0dfadf
6,3.906,space,2.405,0,59,59,264,1,,,5a9262251eda410001360b2c,6437731f00d735c94b9cf4ee,2023-04-12_22h16.31.965,PRaM,2021.2.3,Win32,20.00080003,61b8f3437b89212fae0dfadf
1,2.301,space,0.79,0,60,60,67,1,,,5a9262251eda410001360b2c,6437731f00d735c94b9cf4ee,2023-04-12_22h16.31.965,PRaM,2021.2.3,Win32,20.00080003,61b8f3437b89212fae0dfadf
3,3.498,space,2.033,0,61,61,367,1,,,5a9262251eda410001360b2c,6437731f00d735c94b9cf4ee,2023-04-12_22h16.31.965,PRaM,2021.2.3,Win32,20.00080003,61b8f3437b89212fae0dfadf
1,3.318,space,1.583,0,62,62,375,1,,,5a9262251eda410001360b2c,6437731f00d735c94b9cf4ee,2023-04-12_22h16.31.965,PRaM,2021.2.3,Win32,20.00080003,61b8f3437b89212fae0dfadf
2,3.854,space,2.227,0,63,63,361,1,,,5a9262251eda410001360b2c,6437731f00d735c94b9cf4ee,2023-04-12_22h16.31.965,PRaM,2021.2.3,Win32,20.00080003,61b8f3437b89212fae0dfadf
2,2.667,space,1.027,0,64,64,93,1,,,5a9262251eda410001360b2c,6437731f00d735c94b9cf4ee,2023-04-12_22h16.31.965,PRaM,2021.2.3,Win32,20.00080003,61b8f3437b89212fae0dfadf
1,2.95,space,1.047,0,65,65,130,1,,,5a9262251eda410001360b2c,6437731f00d735c94b9cf4ee,2023-04-12_22h16.31.965,PRaM,2021.2.3,Win32,20.00080003,61b8f3437b89212fae0dfadf
5,4.61,space,7.02,0,66,66,149,1,,,5a9262251eda410001360b2c,6437731f00d735c94b9cf4ee,2023-04-12_22h16.31.965,PRaM,2021.2.3,Win32,20.00080003,61b8f3437b89212fae0dfadf
7,4.898,space,3.799,0,67,67,335,1,,,5a9262251eda410001360b2c,6437731f00d735c94b9cf4ee,2023-04-12_22h16.31.965,PRaM,2021.2.3,Win32,20.00080003,61b8f3437b89212fae0dfadf
2,3.547,space,3.934,0,68,68,356,1,,,5a9262251eda410001360b2c,6437731f00d735c94b9cf4ee,2023-04-12_22h16.31.965,PRaM,2021.2.3,Win32,20.00080003,61b8f3437b89212fae0dfadf
1,2.454,space,1.276,0,69,69,2,1,,,5a9262251eda410001360b2c,6437731f00d735c94b9cf4ee,2023-04-12_22h16.31.965,PRaM,2021.2.3,Win32,20.00080003,61b8f3437b89212fae0dfadf
1,4.362,space,3.073,0,70,70,321,1,,,5a9262251eda410001360b2c,6437731f00d735c94b9cf4ee,2023-04-12_22h16.31.965,PRaM,2021.2.3,Win32,20.00080003,61b8f3437b89212fae0dfadf
2,3.314,space,3.693,0,71,71,261,1,,,5a9262251eda410001360b2c,6437731f00d735c94b9cf4ee,2023-04-12_22h16.31.965,PRaM,2021.2.3,Win32,20.00080003,61b8f3437b89212fae0dfadf
2,3.642,space,2.218,0,72,72,147,1,,,5a9262251eda410001360b2c,6437731f00d735c94b9cf4ee,2023-04-12_22h16.31.965,PRaM,2021.2.3,Win32,20.00080003,61b8f3437b89212fae0dfadf
3,3.806,space,2.797,0,73,73,305,1,,,5a9262251eda410001360b2c,6437731f00d735c94b9cf4ee,2023-04-12_22h16.31.965,PRaM,2021.2.3,Win32,20.00080003,61b8f3437b89212fae0dfadf
1,3.968,space,2.737,0,74,74,125,1,,,5a9262251eda410001360b2c,6437731f00d735c94b9cf4ee,2023-04-12_22h16.31.965,PRaM,2021.2.3,Win32,20.00080003,61b8f3437b89212fae0dfadf
1,2.566,space,1.596,0,75,75,81,1,,,5a9262251eda410001360b2c,6437731f00d735c94b9cf4ee,2023-04-12_22h16.31.965,PRaM,2021.2.3,Win32,20.00080003,61b8f3437b89212fae0dfadf
1,2.434,space,1.505,0,76,76,322,1,,,5a9262251eda410001360b2c,6437731f00d735c94b9cf4ee,2023-04-12_22h16.31.965,PRaM,2021.2.3,Win32,20.00080003,61b8f3437b89212fae0dfadf
1,3.379,space,2.082,0,77,77,232,1,,,5a9262251eda410001360b2c,6437731f00d735c94b9cf4ee,2023-04-12_22h16.31.965,PRaM,2021.2.3,Win32,20.00080003,61b8f3437b89212fae0dfadf
3,3.784,space,2.895,0,78,78,127,1,,,5a9262251eda410001360b2c,6437731f00d735c94b9cf4ee,2023-04-12_22h16.31.965,PRaM,2021.2.3,Win32,20.00080003,61b8f3437b89212fae0dfadf
6,2.565,space,1.362,0,79,79,177,1,,,5a9262251eda410001360b2c,6437731f00d735c94b9cf4ee,2023-04-12_22h16.31.965,PRaM,2021.2.3,Win32,20.00080003,61b8f3437b89212fae0dfadf
3,3.427,space,2.219,0,80,80,183,1,,,5a9262251eda410001360b2c,6437731f00d735c94b9cf4ee,2023-04-12_22h16.31.965,PRaM,2021.2.3,Win32,20.00080003,61b8f3437b89212fae0dfadf
1,3.18,space,2.016,0,81,81,338,1,,,5a9262251eda410001360b2c,6437731f00d735c94b9cf4ee,2023-04-12_22h16.31.965,PRaM,2021.2.3,Win32,20.00080003,61b8f3437b89212fae0dfadf
1,2.881,space,1.825,0,82,82,24,1,,,5a9262251eda410001360b2c,6437731f00d735c94b9cf4ee,2023-04-12_22h16.31.965,PRaM,2021.2.3,Win32,20.00080003,61b8f3437b89212fae0dfadf
2,2.853,space,1.782,0,83,83,97,1,,,5a9262251eda410001360b2c,6437731f00d735c94b9cf4ee,2023-04-12_22h16.31.965,PRaM,2021.2.3,Win32,20.00080003,61b8f3437b89212fae0dfadf
7,3.999,space,2.8,0,84,84,115,1,,,5a9262251eda410001360b2c,6437731f00d735c94b9cf4ee,2023-04-12_22h16.31.965,PRaM,2021.2.3,Win32,20.00080003,61b8f3437b89212fae0dfadf
5,7.251,space,6.258,0,85,85,168,1,,,5a9262251eda410001360b2c,6437731f00d735c94b9cf4ee,2023-04-12_22h16.31.965,PRaM,2021.2.3,Win32,20.00080003,61b8f3437b89212fae0dfadf
1,5.363,space,4.579,0,86,86,368,1,,,5a9262251eda410001360b2c,6437731f00d735c94b9cf4ee,2023-04-12_22h16.31.965,PRaM,2021.2.3,Win32,20.00080003,61b8f3437b89212fae0dfadf
1,3.221,space,3.09,0,87,87,265,1,,,5a9262251eda410001360b2c,6437731f00d735c94b9cf4ee,2023-04-12_22h16.31.965,PRaM,2021.2.3,Win32,20.00080003,61b8f3437b89212fae0dfadf
8,4.308,space,3.804,0,88,88,60,1,,,5a9262251eda410001360b2c,6437731f00d735c94b9cf4ee,2023-04-12_22h16.31.965,PRaM,2021.2.3,Win32,20.00080003,61b8f3437b89212fae0dfadf
6,6.657,space,5.211,0,89,89,19,1,,,5a9262251eda410001360b2c,6437731f00d735c94b9cf4ee,2023-04-12_22h16.31.965,PRaM,2021.2.3,Win32,20.00080003,61b8f3437b89212fae0dfadf
5,2.969,space,1.497,0,90,90,119,1,,,5a9262251eda410001360b2c,6437731f00d735c94b9cf4ee,2023-04-12_22h16.31.965,PRaM,2021.2.3,Win32,20.00080003,61b8f3437b89212fae0dfadf
2,5.175,space,3.855,0,91,91,100,1,,,5a9262251eda410001360b2c,6437731f00d735c94b9cf4ee,2023-04-12_22h16.31.965,PRaM,2021.2.3,Win32,20.00080003,61b8f3437b89212fae0dfadf
2,2.563,space,1.463,0,92,92,171,1,,,5a9262251eda410001360b2c,6437731f00d735c94b9cf4ee,2023-04-12_22h16.31.965,PRaM,2021.2.3,Win32,20.00080003,61b8f3437b89212fae0dfadf
1,5.122,space,3.817,0,93,93,240,1,,,5a9262251eda410001360b2c,6437731f00d735c94b9cf4ee,2023-04-12_22h16.31.965,PRaM,2021.2.3,Win32,20.00080003,61b8f3437b89212fae0dfadf
1,2.71,space,1.177,0,94,94,5,1,,,5a9262251eda410001360b2c,6437731f00d735c94b9cf4ee,2023-04-12_22h16.31.965,PRaM,2021.2.3,Win32,20.00080003,61b8f3437b89212fae0dfadf
1,26.589,space,25.882,0,95,95,220,1,,,5a9262251eda410001360b2c,6437731f00d735c94b9cf4ee,2023-04-12_22h16.31.965,PRaM,2021.2.3,Win32,20.00080003,61b8f3437b89212fae0dfadf
1,2.901,space,1.647,0,96,96,248,1,,,5a9262251eda410001360b2c,6437731f00d735c94b9cf4ee,2023-04-12_22h16.31.965,PRaM,2021.2.3,Win32,20.00080003,61b8f3437b89212fae0dfadf
2,3.426,space,2.318,0,97,97,96,1,,,5a9262251eda410001360b2c,6437731f00d735c94b9cf4ee,2023-04-12_22h16.31.965,PRaM,2021.2.3,Win32,20.00080003,61b8f3437b89212fae0dfadf
1,3.616,space,2.276,0,98,98,10,1,,,5a9262251eda410001360b2c,6437731f00d735c94b9cf4ee,2023-04-12_22h16.31.965,PRaM,2021.2.3,Win32,20.00080003,61b8f3437b89212fae0dfadf
8,4.096,space,2.931,0,99,99,259,1,,,5a9262251eda410001360b2c,6437731f00d735c94b9cf4ee,2023-04-12_22h16.31.965,PRaM,2021.2.3,Win32,20.00080003,61b8f3437b89212fae0dfadf
1,2.476,space,0.981,0,100,100,133,1,,,5a9262251eda410001360b2c,6437731f00d735c94b9cf4ee,2023-04-12_22h16.31.965,PRaM,2021.2.3,Win32,20.00080003,61b8f3437b89212fae0dfadf
1,3.275,space,3.884,0,101,101,308,1,,,5a9262251eda410001360b2c,6437731f00d735c94b9cf4ee,2023-04-12_22h16.31.965,PRaM,2021.2.3,Win32,20.00080003,61b8f3437b89212fae0dfadf
4,2.959,space,1.848,0,102,102,365,1,,,5a9262251eda410001360b2c,6437731f00d735c94b9cf4ee,2023-04-12_22h16.31.965,PRaM,2021.2.3,Win32,20.00080003,61b8f3437b89212fae0dfadf
5,2.349,space,0.863,0,103,103,45,1,,,5a9262251eda410001360b2c,6437731f00d735c94b9cf4ee,2023-04-12_22h16.31.965,PRaM,2021.2.3,Win32,20.00080003,61b8f3437b89212fae0dfadf
1,9.848,space,8.65,0,104,104,266,1,,,5a9262251eda410001360b2c,6437731f00d735c94b9cf4ee,2023-04-12_22h16.31.965,PRaM,2021.2.3,Win32,20.00080003,61b8f3437b89212fae0dfadf
4,7.138,space,5.854,0,105,105,307,1,,,5a9262251eda410001360b2c,6437731f00d735c94b9cf4ee,2023-04-12_22h16.31.965,PRaM,2021.2.3,Win32,20.00080003,61b8f3437b89212fae0dfadf
9,5.592,space,4.379,0,106,106,42,1,,,5a9262251eda410001360b2c,6437731f00d735c94b9cf4ee,2023-04-12_22h16.31.965,PRaM,2021.2.3,Win32,20.00080003,61b8f3437b89212fae0dfadf
1,2.717,space,1.252,0,107,107,35,1,,,5a9262251eda410001360b2c,6437731f00d735c94b9cf4ee,2023-04-12_22h16.31.965,PRaM,2021.2.3,Win32,20.00080003,61b8f3437b89212fae0dfadf
3,2.874,space,2.401,0,108,108,51,1,,,5a9262251eda410001360b2c,6437731f00d735c94b9cf4ee,2023-04-12_22h16.31.965,PRaM,2021.2.3,Win32,20.00080003,61b8f3437b89212fae0dfadf
7,6.748,space,6.074,0,109,109,135,1,,,5a9262251eda410001360b2c,6437731f00d735c94b9cf4ee,2023-04-12_22h16.31.965,PRaM,2021.2.3,Win32,20.00080003,61b8f3437b89212fae0dfadf
4,4.383,space,3.285,0,110,110,315,1,,,5a9262251eda410001360b2c,6437731f00d735c94b9cf4ee,2023-04-12_22h16.31.965,PRaM,2021.2.3,Win32,20.00080003,61b8f3437b89212fae0dfadf
1,2.147,space,0.957,0,111,111,329,1,,,5a9262251eda410001360b2c,6437731f00d735c94b9cf4ee,2023-04-12_22h16.31.965,PRaM,2021.2.3,Win32,20.00080003,61b8f3437b89212fae0dfadf
3,5.525,space,4.554,0,112,112,288,1,,,5a9262251eda410001360b2c,6437731f00d735c94b9cf4ee,2023-04-12_22h16.31.965,PRaM,2021.2.3,Win32,20.00080003,61b8f3437b89212fae0dfadf
9,4.431,space,3.272,0,113,113,207,1,,,5a9262251eda410001360b2c,6437731f00d735c94b9cf4ee,2023-04-12_22h16.31.965,PRaM,2021.2.3,Win32,20.00080003,61b8f3437b89212fae0dfadf
1,2.43,space,1.298,0,114,114,251,1,,,5a9262251eda410001360b2c,6437731f00d735c94b9cf4ee,2023-04-12_22h16.31.965,PRaM,2021.2.3,Win32,20.00080003,61b8f3437b89212fae0dfadf
1,4.934,space,3.407,0,115,115,198,1,,,5a9262251eda410001360b2c,6437731f00d735c94b9cf4ee,2023-04-12_22h16.31.965,PRaM,2021.2.3,Win32,20.00080003,61b8f3437b89212fae0dfadf
1,3.431,space,5.012,0,116,116,26,1,,,5a9262251eda410001360b2c,6437731f00d735c94b9cf4ee,2023-04-12_22h16.31.965,PRaM,2021.2.3,Win32,20.00080003,61b8f3437b89212fae0dfadf
3,6.029,space,4.78,0,117,117,58,1,,,5a9262251eda410001360b2c,6437731f00d735c94b9cf4ee,2023-04-12_22h16.31.965,PRaM,2021.2.3,Win32,20.00080003,61b8f3437b89212fae0dfadf
1,3.016,space,9.965,0,118,118,107,1,,,5a9262251eda410001360b2c,6437731f00d735c94b9cf4ee,2023-04-12_22h16.31.965,PRaM,2021.2.3,Win32,20.00080003,61b8f3437b89212fae0dfadf
5,12.481,space,11.152,0,119,119,334,1,,,5a9262251eda410001360b2c,6437731f00d735c94b9cf4ee,2023-04-12_22h16.31.965,PRaM,2021.2.3,Win32,20.00080003,61b8f3437b89212fae0dfadf
9,7.565,space,6.947,0,120,120,225,1,,,5a9262251eda410001360b2c,6437731f00d735c94b9cf4ee,2023-04-12_22h16.31.965,PRaM,2021.2.3,Win32,20.00080003,61b8f3437b89212fae0dfadf
1,2.596,space,1.564,0,121,121,63,1,,,5a9262251eda410001360b2c,6437731f00d735c94b9cf4ee,2023-04-12_22h16.31.965,PRaM,2021.2.3,Win32,20.00080003,61b8f3437b89212fae0dfadf
6,2.445,space,1.149,0,122,122,350,1,,,5a9262251eda410001360b2c,6437731f00d735c94b9cf4ee,2023-04-12_22h16.31.965,PRaM,2021.2.3,Win32,20.00080003,61b8f3437b89212fae0dfadf
6,2.301,space,1.083,0,123,123,244,1,,,5a9262251eda410001360b2c,6437731f00d735c94b9cf4ee,2023-04-12_22h16.31.965,PRaM,2021.2.3,Win32,20.00080003,61b8f3437b89212fae0dfadf
1,2.854,space,17.103,0,124,124,190,1,,,5a9262251eda410001360b2c,6437731f00d735c94b9cf4ee,2023-04-12_22h16.31.965,PRaM,2021.2.3,Win32,20.00080003,61b8f3437b89212fae0dfadf
2,4.019,space,2.736,0,125,125,34,1,,,5a9262251eda410001360b2c,6437731f00d735c94b9cf4ee,2023-04-12_22h16.31.965,PRaM,2021.2.3,Win32,20.00080003,61b8f3437b89212fae0dfadf
6,4.709,space,3.297,0,126,126,117,1,,,5a9262251eda410001360b2c,6437731f00d735c94b9cf4ee,2023-04-12_22h16.31.965,PRaM,2021.2.3,Win32,20.00080003,61b8f3437b89212fae0dfadf
5,3.602,space,1.963,0,127,127,317,1,,,5a9262251eda410001360b2c,6437731f00d735c94b9cf4ee,2023-04-12_22h16.31.965,PRaM,2021.2.3,Win32,20.00080003,61b8f3437b89212fae0dfadf
2,2.71,space,1.068,0,128,128,25,1,,,5a9262251eda410001360b2c,6437731f00d735c94b9cf4ee,2023-04-12_22h16.31.965,PRaM,2021.2.3,Win32,20.00080003,61b8f3437b89212fae0dfadf
1,2.878,space,1.709,0,129,129,245,1,,,5a9262251eda410001360b2c,6437731f00d735c94b9cf4ee,2023-04-12_22h16.31.965,PRaM,2021.2.3,Win32,20.00080003,61b8f3437b89212fae0dfadf
3,4.001,space,4.297,0,130,130,152,1,,,5a9262251eda410001360b2c,6437731f00d735c94b9cf4ee,2023-04-12_22h16.31.965,PRaM,2021.2.3,Win32,20.00080003,61b8f3437b89212fae0dfadf
5,3.436,space,1.971,0,131,131,233,1,,,5a9262251eda410001360b2c,6437731f00d735c94b9cf4ee,2023-04-12_22h16.31.965,PRaM,2021.2.3,Win32,20.00080003,61b8f3437b89212fae0dfadf
3,2.725,space,0.961,0,132,132,281,1,,,5a9262251eda410001360b2c,6437731f00d735c94b9cf4ee,2023-04-12_22h16.31.965,PRaM,2021.2.3,Win32,20.00080003,61b8f3437b89212fae0dfadf
1,2.275,space,0.448,0,133,133,70,1,,,5a9262251eda410001360b2c,6437731f00d735c94b9cf4ee,2023-04-12_22h16.31.965,PRaM,2021.2.3,Win32,20.00080003,61b8f3437b89212fae0dfadf
1,2.935,space,1.369,0,134,134,116,1,,,5a9262251eda410001360b2c,6437731f00d735c94b9cf4ee,2023-04-12_22h16.31.965,PRaM,2021.2.3,Win32,20.00080003,61b8f3437b89212fae0dfadf
2,3.297,space,1.6,0,135,135,270,1,,,5a9262251eda410001360b2c,6437731f00d735c94b9cf4ee,2023-04-12_22h16.31.965,PRaM,2021.2.3,Win32,20.00080003,61b8f3437b89212fae0dfadf
1,6.269,space,4.671,0,136,136,71,1,,,5a9262251eda410001360b2c,6437731f00d735c94b9cf4ee,2023-04-12_22h16.31.965,PRaM,2021.2.3,Win32,20.00080003,61b8f3437b89212fae0dfadf
2,9.176,space,8.383,0,137,137,300,1,,,5a9262251eda410001360b2c,6437731f00d735c94b9cf4ee,2023-04-12_22h16.31.965,PRaM,2021.2.3,Win32,20.00080003,61b8f3437b89212fae0dfadf
2,33.077,space,31.189,0,138,138,29,1,,,5a9262251eda410001360b2c,6437731f00d735c94b9cf4ee,2023-04-12_22h16.31.965,PRaM,2021.2.3,Win32,20.00080003,61b8f3437b89212fae0dfadf
3,2.545,space,0.935,0,139,139,328,1,,,5a9262251eda410001360b2c,6437731f00d735c94b9cf4ee,2023-04-12_22h16.31.965,PRaM,2021.2.3,Win32,20.00080003,61b8f3437b89212fae0dfadf
1,4.524,space,3.282,0,140,140,218,1,,,5a9262251eda410001360b2c,6437731f00d735c94b9cf4ee,2023-04-12_22h16.31.965,PRaM,2021.2.3,Win32,20.00080003,61b8f3437b89212fae0dfadf
6,2.457,space,0.922,0,141,141,83,1,,,5a9262251eda410001360b2c,6437731f00d735c94b9cf4ee,2023-04-12_22h16.31.965,PRaM,2021.2.3,Win32,20.00080003,61b8f3437b89212fae0dfadf
1,2.759,space,1.169,0,142,142,94,1,,,5a9262251eda410001360b2c,6437731f00d735c94b9cf4ee,2023-04-12_22h16.31.965,PRaM,2021.2.3,Win32,20.00080003,61b8f3437b89212fae0dfadf
1,2.764,space,1.168,0,143,143,47,1,,,5a9262251eda410001360b2c,6437731f00d735c94b9cf4ee,2023-04-12_22h16.31.965,PRaM,2021.2.3,Win32,20.00080003,61b8f3437b89212fae0dfadf
4,2.58,space,0.932,0,144,144,279,1,,,5a9262251eda410001360b2c,6437731f00d735c94b9cf4ee,2023-04-12_22h16.31.965,PRaM,2021.2.3,Win32,20.00080003,61b8f3437b89212fae0dfadf
1,2.378,space,0.8,0,145,145,214,1,,,5a9262251eda410001360b2c,6437731f00d735c94b9cf4ee,2023-04-12_22h16.31.965,PRaM,2021.2.3,Win32,20.00080003,61b8f3437b89212fae0dfadf
1,3.099,space,1.498,0,146,146,87,1,,,5a9262251eda410001360b2c,6437731f00d735c94b9cf4ee,2023-04-12_22h16.31.965,PRaM,2021.2.3,Win32,20.00080003,61b8f3437b89212fae0dfadf
4,2.814,space,1.246,0,147,147,180,1,,,5a9262251eda410001360b2c,6437731f00d735c94b9cf4ee,2023-04-12_22h16.31.965,PRaM,2021.2.3,Win32,20.00080003,61b8f3437b89212fae0dfadf
5,3.26,space,1.643,0,148,148,32,1,,,5a9262251eda410001360b2c,6437731f00d735c94b9cf4ee,2023-04-12_22h16.31.965,PRaM,2021.2.3,Win32,20.00080003,61b8f3437b89212fae0dfadf
1,2.888,space,1.302,0,149,149,295,1,,,5a9262251eda410001360b2c,6437731f00d735c94b9cf4ee,2023-04-12_22h16.31.965,PRaM,2021.2.3,Win32,20.00080003,61b8f3437b89212fae0dfadf
1,5.032,space,3.118,0,150,150,309,1,,,5a9262251eda410001360b2c,6437731f00d735c94b9cf4ee,2023-04-12_22h16.31.965,PRaM,2021.2.3,Win32,20.00080003,61b8f3437b89212fae0dfadf
1,4.034,space,2.289,0,151,151,31,1,,,5a9262251eda410001360b2c,6437731f00d735c94b9cf4ee,2023-04-12_22h16.31.965,PRaM,2021.2.3,Win32,20.00080003,61b8f3437b89212fae0dfadf
1,2.202,space,0.712,0,152,152,215,1,,,5a9262251eda410001360b2c,6437731f00d735c94b9cf4ee,2023-04-12_22h16.31.965,PRaM,2021.2.3,Win32,20.00080003,61b8f3437b89212fae0dfadf
2,3.334,space,1.675,0,153,153,153,1,,,5a9262251eda410001360b2c,6437731f00d735c94b9cf4ee,2023-04-12_22h16.31.965,PRaM,2021.2.3,Win32,20.00080003,61b8f3437b89212fae0dfadf
1,10.391,space,8.764,0,154,154,65,1,,,5a9262251eda410001360b2c,6437731f00d735c94b9cf4ee,2023-04-12_22h16.31.965,PRaM,2021.2.3,Win32,20.00080003,61b8f3437b89212fae0dfadf
3,5.369,space,3.555,0,155,155,194,1,,,5a9262251eda410001360b2c,6437731f00d735c94b9cf4ee,2023-04-12_22h16.31.965,PRaM,2021.2.3,Win32,20.00080003,61b8f3437b89212fae0dfadf
3,3.528,space,1.832,0,156,156,239,1,,,5a9262251eda410001360b2c,6437731f00d735c94b9cf4ee,2023-04-12_22h16.31.965,PRaM,2021.2.3,Win32,20.00080003,61b8f3437b89212fae0dfadf
3,3.798,space,2.134,0,157,157,166,1,,,5a9262251eda410001360b2c,6437731f00d735c94b9cf4ee,2023-04-12_22h16.31.965,PRaM,2021.2.3,Win32,20.00080003,61b8f3437b89212fae0dfadf
2,4.23,space,2.629,0,158,158,267,1,,,5a9262251eda410001360b2c,6437731f00d735c94b9cf4ee,2023-04-12_22h16.31.965,PRaM,2021.2.3,Win32,20.00080003,61b8f3437b89212fae0dfadf
5,2.577,space,0.952,0,159,159,114,1,,,5a9262251eda410001360b2c,6437731f00d735c94b9cf4ee,2023-04-12_22h16.31.965,PRaM,2021.2.3,Win32,20.00080003,61b8f3437b89212fae0dfadf
1,2.727,space,1.147,0,160,160,376,1,,,5a9262251eda410001360b2c,6437731f00d735c94b9cf4ee,2023-04-12_22h16.31.965,PRaM,2021.2.3,Win32,20.00080003,61b8f3437b89212fae0dfadf
1,2.664,space,1.066,0,161,161,69,1,,,5a9262251eda410001360b2c,6437731f00d735c94b9cf4ee,2023-04-12_22h16.31.965,PRaM,2021.2.3,Win32,20.00080003,61b8f3437b89212fae0dfadf
8,2.869,space,1.2,0,162,162,222,1,,,5a9262251eda410001360b2c,6437731f00d735c94b9cf4ee,2023-04-12_22h16.31.965,PRaM,2021.2.3,Win32,20.00080003,61b8f3437b89212fae0dfadf
2,3.223,space,1.596,0,163,163,348,1,,,5a9262251eda410001360b2c,6437731f00d735c94b9cf4ee,2023-04-12_22h16.31.965,PRaM,2021.2.3,Win32,20.00080003,61b8f3437b89212fae0dfadf
8,2.754,space,1.172,0,164,164,323,1,,,5a9262251eda410001360b2c,6437731f00d735c94b9cf4ee,2023-04-12_22h16.31.965,PRaM,2021.2.3,Win32,20.00080003,61b8f3437b89212fae0dfadf
5,2.815,space,1.213,0,165,165,192,1,,,5a9262251eda410001360b2c,6437731f00d735c94b9cf4ee,2023-04-12_22h16.31.965,PRaM,2021.2.3,Win32,20.00080003,61b8f3437b89212fae0dfadf
6,3.115,space,1.447,0,166,166,142,1,,,5a9262251eda410001360b2c,6437731f00d735c94b9cf4ee,2023-04-12_22h16.31.965,PRaM,2021.2.3,Win32,20.00080003,61b8f3437b89212fae0dfadf
3,9.827,space,8.169,0,167,167,181,1,,,5a9262251eda410001360b2c,6437731f00d735c94b9cf4ee,2023-04-12_22h16.31.965,PRaM,2021.2.3,Win32,20.00080003,61b8f3437b89212fae0dfadf
1,2.035,space,0.45,0,168,168,263,1,,,5a9262251eda410001360b2c,6437731f00d735c94b9cf4ee,2023-04-12_22h16.31.965,PRaM,2021.2.3,Win32,20.00080003,61b8f3437b89212fae0dfadf
2,2.296,space,0.647,0,169,169,62,1,,,5a9262251eda410001360b2c,6437731f00d735c94b9cf4ee,2023-04-12_22h16.31.965,PRaM,2021.2.3,Win32,20.00080003,61b8f3437b89212fae0dfadf
1,3.217,space,1.619,0,170,170,39,1,,,5a9262251eda410001360b2c,6437731f00d735c94b9cf4ee,2023-04-12_22h16.31.965,PRaM,2021.2.3,Win32,20.00080003,61b8f3437b89212fae0dfadf
7,2.52,space,0.867,0,171,171,159,1,,,5a9262251eda410001360b2c,6437731f00d735c94b9cf4ee,2023-04-12_22h16.31.965,PRaM,2021.2.3,Win32,20.00080003,61b8f3437b89212fae0dfadf
2,2.163,space,0.664,0,172,172,99,1,,,5a9262251eda410001360b2c,6437731f00d735c94b9cf4ee,2023-04-12_22h16.31.965,PRaM,2021.2.3,Win32,20.00080003,61b8f3437b89212fae0dfadf
1,2.315,space,0.907,0,173,173,15,1,,,5a9262251eda410001360b2c,6437731f00d735c94b9cf4ee,2023-04-12_22h16.31.965,PRaM,2021.2.3,Win32,20.00080003,61b8f3437b89212fae0dfadf
6,2.91,space,1.282,0,174,174,219,1,,,5a9262251eda410001360b2c,6437731f00d735c94b9cf4ee,2023-04-12_22h16.31.965,PRaM,2021.2.3,Win32,20.00080003,61b8f3437b89212fae0dfadf
9,2.18,space,0.601,0,175,175,276,1,,,5a9262251eda410001360b2c,6437731f00d735c94b9cf4ee,2023-04-12_22h16.31.965,PRaM,2021.2.3,Win32,20.00080003,61b8f3437b89212fae0dfadf
6,2.701,space,1.017,0,176,176,209,1,,,5a9262251eda410001360b2c,6437731f00d735c94b9cf4ee,2023-04-12_22h16.31.965,PRaM,2021.2.3,Win32,20.00080003,61b8f3437b89212fae0dfadf
1,2.328,space,0.7,0,177,177,189,1,,,5a9262251eda410001360b2c,6437731f00d735c94b9cf4ee,2023-04-12_22h16.31.965,PRaM,2021.2.3,Win32,20.00080003,61b8f3437b89212fae0dfadf
1,2.066,space,0.401,0,178,178,284,1,,,5a9262251eda410001360b2c,6437731f00d735c94b9cf4ee,2023-04-12_22h16.31.965,PRaM,2021.2.3,Win32,20.00080003,61b8f3437b89212fae0dfadf
1,2.634,space,0.952,0,179,179,126,1,,,5a9262251eda410001360b2c,6437731f00d735c94b9cf4ee,2023-04-12_22h16.31.965,PRaM,2021.2.3,Win32,20.00080003,61b8f3437b89212fae0dfadf
1,2.779,space,1.023,0,180,180,1,1,,,5a9262251eda410001360b2c,6437731f00d735c94b9cf4ee,2023-04-12_22h16.31.965,PRaM,2021.2.3,Win32,20.00080003,61b8f3437b89212fae0dfadf
1,2.774,space,0.999,0,181,181,89,1,,,5a9262251eda410001360b2c,6437731f00d735c94b9cf4ee,2023-04-12_22h16.31.965,PRaM,2021.2.3,Win32,20.00080003,61b8f3437b89212fae0dfadf
1,2.951,space,1.134,0,182,182,231,1,,,5a9262251eda410001360b2c,6437731f00d735c94b9cf4ee,2023-04-12_22h16.31.965,PRaM,2021.2.3,Win32,20.00080003,61b8f3437b89212fae0dfadf
2,2.195,space,0.646,0,183,183,141,1,,,5a9262251eda410001360b2c,6437731f00d735c94b9cf4ee,2023-04-12_22h16.31.965,PRaM,2021.2.3,Win32,20.00080003,61b8f3437b89212fae0dfadf
1,3.15,space,1.454,0,184,184,360,1,,,5a9262251eda410001360b2c,6437731f00d735c94b9cf4ee,2023-04-12_22h16.31.965,PRaM,2021.2.3,Win32,20.00080003,61b8f3437b89212fae0dfadf
2,3.557,space,1.882,0,185,185,370,1,,,5a9262251eda410001360b2c,6437731f00d735c94b9cf4ee,2023-04-12_22h16.31.965,PRaM,2021.2.3,Win32,20.00080003,61b8f3437b89212fae0dfadf
8,2.941,space,1.798,0,186,186,85,1,,,5a9262251eda410001360b2c,6437731f00d735c94b9cf4ee,2023-04-12_22h16.31.965,PRaM,2021.2.3,Win32,20.00080003,61b8f3437b89212fae0dfadf
7,3.07,space,1.413,0,187,187,200,1,,,5a9262251eda410001360b2c,6437731f00d735c94b9cf4ee,2023-04-12_22h16.31.965,PRaM,2021.2.3,Win32,20.00080003,61b8f3437b89212fae0dfadf
1,1.913,space,0.302,0,188,188,95,1,,,5a9262251eda410001360b2c,6437731f00d735c94b9cf4ee,2023-04-12_22h16.31.965,PRaM,2021.2.3,Win32,20.00080003,61b8f3437b89212fae0dfadf
1,2.344,space,0.51,0,189,189,54,1,,,5a9262251eda410001360b2c,6437731f00d735c94b9cf4ee,2023-04-12_22h16.31.965,PRaM,2021.2.3,Win32,20.00080003,61b8f3437b89212fae0dfadf
1,2.564,space,1.114,0,190,190,229,1,,,5a9262251eda410001360b2c,6437731f00d735c94b9cf4ee,2023-04-12_22h16.31.965,PRaM,2021.2.3,Win32,20.00080003,61b8f3437b89212fae0dfadf
9,2.641,space,1.152,0,191,191,325,1,,,5a9262251eda410001360b2c,6437731f00d735c94b9cf4ee,2023-04-12_22h16.31.965,PRaM,2021.2.3,Win32,20.00080003,61b8f3437b89212fae0dfadf
1,3.144,space,1.25,0,192,192,237,1,,,5a9262251eda410001360b2c,6437731f00d735c94b9cf4ee,2023-04-12_22h16.31.965,PRaM,2021.2.3,Win32,20.00080003,61b8f3437b89212fae0dfadf
4,2.714,space,0.995,0,193,193,211,1,,,5a9262251eda410001360b2c,6437731f00d735c94b9cf4ee,2023-04-12_22h16.31.965,PRaM,2021.2.3,Win32,20.00080003,61b8f3437b89212fae0dfadf
9,2.481,space,0.813,0,194,194,3,1,,,5a9262251eda410001360b2c,6437731f00d735c94b9cf4ee,2023-04-12_22h16.31.965,PRaM,2021.2.3,Win32,20.00080003,61b8f3437b89212fae0dfadf
1,2.366,space,0.923,0,195,195,101,1,,,5a9262251eda410001360b2c,6437731f00d735c94b9cf4ee,2023-04-12_22h16.31.965,PRaM,2021.2.3,Win32,20.00080003,61b8f3437b89212fae0dfadf
1,1.846,space,0.196,0,196,196,371,1,,,5a9262251eda410001360b2c,6437731f00d735c94b9cf4ee,2023-04-12_22h16.31.965,PRaM,2021.2.3,Win32,20.00080003,61b8f3437b89212fae0dfadf
3,2.83,space,1.131,0,197,197,86,1,,,5a9262251eda410001360b2c,6437731f00d735c94b9cf4ee,2023-04-12_22h16.31.965,PRaM,2021.2.3,Win32,20.00080003,61b8f3437b89212fae0dfadf
1,2.486,space,0.967,0,198,198,121,1,,,5a9262251eda410001360b2c,6437731f00d735c94b9cf4ee,2023-04-12_22h16.31.965,PRaM,2021.2.3,Win32,20.00080003,61b8f3437b89212fae0dfadf
1,2.146,space,0.75,0,199,199,50,1,,,5a9262251eda410001360b2c,6437731f00d735c94b9cf4ee,2023-04-12_22h16.31.965,PRaM,2021.2.3,Win32,20.00080003,61b8f3437b89212fae0dfadf
1,2.165,space,0.263,0,200,200,292,1,,,5a9262251eda410001360b2c,6437731f00d735c94b9cf4ee,2023-04-12_22h16.31.965,PRaM,2021.2.3,Win32,20.00080003,61b8f3437b89212fae0dfadf
3,3.167,space,1.619,0,201,201,88,1,,,5a9262251eda410001360b2c,6437731f00d735c94b9cf4ee,2023-04-12_22h16.31.965,PRaM,2021.2.3,Win32,20.00080003,61b8f3437b89212fae0dfadf
2,2.832,space,1.256,0,202,202,249,1,,,5a9262251eda410001360b2c,6437731f00d735c94b9cf4ee,2023-04-12_22h16.31.965,PRaM,2021.2.3,Win32,20.00080003,61b8f3437b89212fae0dfadf
3,2.878,space,1.204,0,203,203,346,1,,,5a9262251eda410001360b2c,6437731f00d735c94b9cf4ee,2023-04-12_22h16.31.965,PRaM,2021.2.3,Win32,20.00080003,61b8f3437b89212fae0dfadf
2,2.828,space,1.244,0,204,204,204,1,,,5a9262251eda410001360b2c,6437731f00d735c94b9cf4ee,2023-04-12_22h16.31.965,PRaM,2021.2.3,Win32,20.00080003,61b8f3437b89212fae0dfadf
1,3.979,space,2.117,0,205,205,0,1,,,5a9262251eda410001360b2c,6437731f00d735c94b9cf4ee,2023-04-12_22h16.31.965,PRaM,2021.2.3,Win32,20.00080003,61b8f3437b89212fae0dfadf
1,2.127,space,0.335,0,206,206,48,1,,,5a9262251eda410001360b2c,6437731f00d735c94b9cf4ee,2023-04-12_22h16.31.965,PRaM,2021.2.3,Win32,20.00080003,61b8f3437b89212fae0dfadf
3,7.644,space,5.988,0,207,207,110,1,,,5a9262251eda410001360b2c,6437731f00d735c94b9cf4ee,2023-04-12_22h16.31.965,PRaM,2021.2.3,Win32,20.00080003,61b8f3437b89212fae0dfadf
7,10.478,space,9.413,0,208,208,302,1,,,5a9262251eda410001360b2c,6437731f00d735c94b9cf4ee,2023-04-12_22h16.31.965,PRaM,2021.2.3,Win32,20.00080003,61b8f3437b89212fae0dfadf
5,2.649,space,1.099,0,209,209,337,1,,,5a9262251eda410001360b2c,6437731f00d735c94b9cf4ee,2023-04-12_22h16.31.965,PRaM,2021.2.3,Win32,20.00080003,61b8f3437b89212fae0dfadf
1,2.055,space,1.147,0,210,210,90,1,,,5a9262251eda410001360b2c,6437731f00d735c94b9cf4ee,2023-04-12_22h16.31.965,PRaM,2021.2.3,Win32,20.00080003,61b8f3437b89212fae0dfadf
8,3.12,space,1.899,0,211,211,14,1,,,5a9262251eda410001360b2c,6437731f00d735c94b9cf4ee,2023-04-12_22h16.31.965,PRaM,2021.2.3,Win32,20.00080003,61b8f3437b89212fae0dfadf
2,2.287,space,0.975,0,212,212,369,1,,,5a9262251eda410001360b2c,6437731f00d735c94b9cf4ee,2023-04-12_22h16.31.965,PRaM,2021.2.3,Win32,20.00080003,61b8f3437b89212fae0dfadf
1,2.116,space,0.515,0,213,213,342,1,,,5a9262251eda410001360b2c,6437731f00d735c94b9cf4ee,2023-04-12_22h16.31.965,PRaM,2021.2.3,Win32,20.00080003,61b8f3437b89212fae0dfadf
3,3.031,space,1.98,0,214,214,201,1,,,5a9262251eda410001360b2c,6437731f00d735c94b9cf4ee,2023-04-12_22h16.31.965,PRaM,2021.2.3,Win32,20.00080003,61b8f3437b89212fae0dfadf
1,5.846,space,4.345,0,215,215,260,1,,,5a9262251eda410001360b2c,6437731f00d735c94b9cf4ee,2023-04-12_22h16.31.965,PRaM,2021.2.3,Win32,20.00080003,61b8f3437b89212fae0dfadf
1,2.014,space,0.533,0,216,216,362,1,,,5a9262251eda410001360b2c,6437731f00d735c94b9cf4ee,2023-04-12_22h16.31.965,PRaM,2021.2.3,Win32,20.00080003,61b8f3437b89212fae0dfadf
1,2.513,space,0.997,0,217,217,163,1,,,5a9262251eda410001360b2c,6437731f00d735c94b9cf4ee,2023-04-12_22h16.31.965,PRaM,2021.2.3,Win32,20.00080003,61b8f3437b89212fae0dfadf
1,7.385,space,6.152,0,218,218,234,1,,,5a9262251eda410001360b2c,6437731f00d735c94b9cf4ee,2023-04-12_22h16.31.965,PRaM,2021.2.3,Win32,20.00080003,61b8f3437b89212fae0dfadf
1,2.814,space,1.552,0,219,219,241,1,,,5a9262251eda410001360b2c,6437731f00d735c94b9cf4ee,2023-04-12_22h16.31.965,PRaM,2021.2.3,Win32,20.00080003,61b8f3437b89212fae0dfadf
1,2.301,space,0.887,0,220,220,299,1,,,5a9262251eda410001360b2c,6437731f00d735c94b9cf4ee,2023-04-12_22h16.31.965,PRaM,2021.2.3,Win32,20.00080003,61b8f3437b89212fae0dfadf
9,2.149,space,0.952,0,221,221,285,1,,,5a9262251eda410001360b2c,6437731f00d735c94b9cf4ee,2023-04-12_22h16.31.965,PRaM,2021.2.3,Win32,20.00080003,61b8f3437b89212fae0dfadf
3,5.4,space,4.151,0,222,222,120,1,,,5a9262251eda410001360b2c,6437731f00d735c94b9cf4ee,2023-04-12_22h16.31.965,PRaM,2021.2.3,Win32,20.00080003,61b8f3437b89212fae0dfadf
1,2.195,space,0.894,0,223,223,353,1,,,5a9262251eda410001360b2c,6437731f00d735c94b9cf4ee,2023-04-12_22h16.31.965,PRaM,2021.2.3,Win32,20.00080003,61b8f3437b89212fae0dfadf
1,2.196,space,1.045,0,224,224,13,1,,,5a9262251eda410001360b2c,6437731f00d735c94b9cf4ee,2023-04-12_22h16.31.965,PRaM,2021.2.3,Win32,20.00080003,61b8f3437b89212fae0dfadf
5,2.201,space,0.711,0,225,225,104,1,,,5a9262251eda410001360b2c,6437731f00d735c94b9cf4ee,2023-04-12_22h16.31.965,PRaM,2021.2.3,Win32,20.00080003,61b8f3437b89212fae0dfadf
6,3.172,space,1.955,0,226,226,156,1,,,5a9262251eda410001360b2c,6437731f00d735c94b9cf4ee,2023-04-12_22h16.31.965,PRaM,2021.2.3,Win32,20.00080003,61b8f3437b89212fae0dfadf
1,2.297,space,0.684,0,227,227,82,1,,,5a9262251eda410001360b2c,6437731f00d735c94b9cf4ee,2023-04-12_22h16.31.965,PRaM,2021.2.3,Win32,20.00080003,61b8f3437b89212fae0dfadf
1,3.859,space,2.379,0,228,228,76,1,,,5a9262251eda410001360b2c,6437731f00d735c94b9cf4ee,2023-04-12_22h16.31.965,PRaM,2021.2.3,Win32,20.00080003,61b8f3437b89212fae0dfadf
1,4.068,space,2.792,0,229,229,138,1,,,5a9262251eda410001360b2c,6437731f00d735c94b9cf4ee,2023-04-12_22h16.31.965,PRaM,2021.2.3,Win32,20.00080003,61b8f3437b89212fae0dfadf
2,4.136,space,2.946,0,230,230,132,1,,,5a9262251eda410001360b2c,6437731f00d735c94b9cf4ee,2023-04-12_22h16.31.965,PRaM,2021.2.3,Win32,20.00080003,61b8f3437b89212fae0dfadf
1,5.116,space,3.95,0,231,231,36,1,,,5a9262251eda410001360b2c,6437731f00d735c94b9cf4ee,2023-04-12_22h16.31.965,PRaM,2021.2.3,Win32,20.00080003,61b8f3437b89212fae0dfadf
3,2.648,space,1.118,0,232,232,246,1,,,5a9262251eda410001360b2c,6437731f00d735c94b9cf4ee,2023-04-12_22h16.31.965,PRaM,2021.2.3,Win32,20.00080003,61b8f3437b89212fae0dfadf
1,2.538,space,1.015,0,233,233,23,1,,,5a9262251eda410001360b2c,6437731f00d735c94b9cf4ee,2023-04-12_22h16.31.965,PRaM,2021.2.3,Win32,20.00080003,61b8f3437b89212fae0dfadf
1,2.501,space,1.445,0,234,234,243,1,,,5a9262251eda410001360b2c,6437731f00d735c94b9cf4ee,2023-04-12_22h16.31.965,PRaM,2021.2.3,Win32,20.00080003,61b8f3437b89212fae0dfadf
1,6.43,space,5.155,0,235,235,18,1,,,5a9262251eda410001360b2c,6437731f00d735c94b9cf4ee,2023-04-12_22h16.31.965,PRaM,2021.2.3,Win32,20.00080003,61b8f3437b89212fae0dfadf
5,2.325,space,0.851,0,236,236,327,1,,,5a9262251eda410001360b2c,6437731f00d735c94b9cf4ee,2023-04-12_22h16.31.965,PRaM,2021.2.3,Win32,20.00080003,61b8f3437b89212fae0dfadf
4,3.286,space,1.838,0,237,237,43,1,,,5a9262251eda410001360b2c,6437731f00d735c94b9cf4ee,2023-04-12_22h16.31.965,PRaM,2021.2.3,Win32,20.00080003,61b8f3437b89212fae0dfadf
9,2.756,space,1.568,0,238,238,301,1,,,5a9262251eda410001360b2c,6437731f00d735c94b9cf4ee,2023-04-12_22h16.31.965,PRaM,2021.2.3,Win32,20.00080003,61b8f3437b89212fae0dfadf
8,3.284,space,1.737,0,239,239,38,1,,,5a9262251eda410001360b2c,6437731f00d735c94b9cf4ee,2023-04-12_22h16.31.965,PRaM,2021.2.3,Win32,20.00080003,61b8f3437b89212fae0dfadf
9,3.923,space,2.617,0,240,240,372,1,,,5a9262251eda410001360b2c,6437731f00d735c94b9cf4ee,2023-04-12_22h16.31.965,PRaM,2021.2.3,Win32,20.00080003,61b8f3437b89212fae0dfadf
2,3.152,space,2.292,0,241,241,344,1,,,5a9262251eda410001360b2c,6437731f00d735c94b9cf4ee,2023-04-12_22h16.31.965,PRaM,2021.2.3,Win32,20.00080003,61b8f3437b89212fae0dfadf
2,5.566,space,4.228,0,242,242,172,1,,,5a9262251eda410001360b2c,6437731f00d735c94b9cf4ee,2023-04-12_22h16.31.965,PRaM,2021.2.3,Win32,20.00080003,61b8f3437b89212fae0dfadf
8,2.284,space,0.846,0,243,243,238,1,,,5a9262251eda410001360b2c,6437731f00d735c94b9cf4ee,2023-04-12_22h16.31.965,PRaM,2021.2.3,Win32,20.00080003,61b8f3437b89212fae0dfadf
1,2.911,space,1.979,0,244,244,28,1,,,5a9262251eda410001360b2c,6437731f00d735c94b9cf4ee,2023-04-12_22h16.31.965,PRaM,2021.2.3,Win32,20.00080003,61b8f3437b89212fae0dfadf
1,2.585,space,1.147,0,245,245,341,1,,,5a9262251eda410001360b2c,6437731f00d735c94b9cf4ee,2023-04-12_22h16.31.965,PRaM,2021.2.3,Win32,20.00080003,61b8f3437b89212fae0dfadf
1,1.981,space,0.349,0,246,246,324,1,,,5a9262251eda410001360b2c,6437731f00d735c94b9cf4ee,2023-04-12_22h16.31.965,PRaM,2021.2.3,Win32,20.00080003,61b8f3437b89212fae0dfadf
1,3.352,space,1.402,0,247,247,75,1,,,5a9262251eda410001360b2c,6437731f00d735c94b9cf4ee,2023-04-12_22h16.31.965,PRaM,2021.2.3,Win32,20.00080003,61b8f3437b89212fae0dfadf
3,2.852,space,1.214,0,248,248,340,1,,,5a9262251eda410001360b2c,6437731f00d735c94b9cf4ee,2023-04-12_22h16.31.965,PRaM,2021.2.3,Win32,20.00080003,61b8f3437b89212fae0dfadf
1,3.531,space,1.9,0,249,249,155,1,,,5a9262251eda410001360b2c,6437731f00d735c94b9cf4ee,2023-04-12_22h16.31.965,PRaM,2021.2.3,Win32,20.00080003,61b8f3437b89212fae0dfadf
5,4.568,space,3.109,0,250,250,74,1,,,5a9262251eda410001360b2c,6437731f00d735c94b9cf4ee,2023-04-12_22h16.31.965,PRaM,2021.2.3,Win32,20.00080003,61b8f3437b89212fae0dfadf
1,2.073,space,0.45,0,251,251,332,1,,,5a9262251eda410001360b2c,6437731f00d735c94b9cf4ee,2023-04-12_22h16.31.965,PRaM,2021.2.3,Win32,20.00080003,61b8f3437b89212fae0dfadf
2,2.721,space,1.288,0,252,252,258,1,,,5a9262251eda410001360b2c,6437731f00d735c94b9cf4ee,2023-04-12_22h16.31.965,PRaM,2021.2.3,Win32,20.00080003,61b8f3437b89212fae0dfadf
1,2.845,space,1.031,0,253,253,311,1,,,5a9262251eda410001360b2c,6437731f00d735c94b9cf4ee,2023-04-12_22h16.31.965,PRaM,2021.2.3,Win32,20.00080003,61b8f3437b89212fae0dfadf
6,3.94,space,2.255,0,254,254,173,1,,,5a9262251eda410001360b2c,6437731f00d735c94b9cf4ee,2023-04-12_22h16.31.965,PRaM,2021.2.3,Win32,20.00080003,61b8f3437b89212fae0dfadf
4,2.758,space,1.045,0,255,255,352,1,,,5a9262251eda410001360b2c,6437731f00d735c94b9cf4ee,2023-04-12_22h16.31.965,PRaM,2021.2.3,Win32,20.00080003,61b8f3437b89212fae0dfadf
1,3.031,space,1.343,0,256,256,170,1,,,5a9262251eda410001360b2c,6437731f00d735c94b9cf4ee,2023-04-12_22h16.31.965,PRaM,2021.2.3,Win32,20.00080003,61b8f3437b89212fae0dfadf
1,2.637,space,0.837,0,257,257,161,1,,,5a9262251eda410001360b2c,6437731f00d735c94b9cf4ee,2023-04-12_22h16.31.965,PRaM,2021.2.3,Win32,20.00080003,61b8f3437b89212fae0dfadf
4,3.06,space,1.428,0,258,258,6,1,,,5a9262251eda410001360b2c,6437731f00d735c94b9cf4ee,2023-04-12_22h16.31.965,PRaM,2021.2.3,Win32,20.00080003,61b8f3437b89212fae0dfadf
2,2.185,space,0.399,0,259,259,377,1,,,5a9262251eda410001360b2c,6437731f00d735c94b9cf4ee,2023-04-12_22h16.31.965,PRaM,2021.2.3,Win32,20.00080003,61b8f3437b89212fae0dfadf
3,3.332,space,1.863,0,260,260,136,1,,,5a9262251eda410001360b2c,6437731f00d735c94b9cf4ee,2023-04-12_22h16.31.965,PRaM,2021.2.3,Win32,20.00080003,61b8f3437b89212fae0dfadf
4,1.913,space,0.354,0,261,261,357,1,,,5a9262251eda410001360b2c,6437731f00d735c94b9cf4ee,2023-04-12_22h16.31.965,PRaM,2021.2.3,Win32,20.00080003,61b8f3437b89212fae0dfadf
3,2.446,space,0.828,0,262,262,178,1,,,5a9262251eda410001360b2c,6437731f00d735c94b9cf4ee,2023-04-12_22h16.31.965,PRaM,2021.2.3,Win32,20.00080003,61b8f3437b89212fae0dfadf
1,2.164,space,0.505,0,263,263,79,1,,,5a9262251eda410001360b2c,6437731f00d735c94b9cf4ee,2023-04-12_22h16.31.965,PRaM,2021.2.3,Win32,20.00080003,61b8f3437b89212fae0dfadf
1,2.245,space,0.499,0,264,264,217,1,,,5a9262251eda410001360b2c,6437731f00d735c94b9cf4ee,2023-04-12_22h16.31.965,PRaM,2021.2.3,Win32,20.00080003,61b8f3437b89212fae0dfadf
6,3.852,space,2.207,0,265,265,280,1,,,5a9262251eda410001360b2c,6437731f00d735c94b9cf4ee,2023-04-12_22h16.31.965,PRaM,2021.2.3,Win32,20.00080003,61b8f3437b89212fae0dfadf
1,2.08,space,0.216,0,266,266,91,1,,,5a9262251eda410001360b2c,6437731f00d735c94b9cf4ee,2023-04-12_22h16.31.965,PRaM,2021.2.3,Win32,20.00080003,61b8f3437b89212fae0dfadf
4,2.963,space,1.415,0,267,267,205,1,,,5a9262251eda410001360b2c,6437731f00d735c94b9cf4ee,2023-04-12_22h16.31.965,PRaM,2021.2.3,Win32,20.00080003,61b8f3437b89212fae0dfadf
1,2.871,space,1.349,0,268,268,272,1,,,5a9262251eda410001360b2c,6437731f00d735c94b9cf4ee,2023-04-12_22h16.31.965,PRaM,2021.2.3,Win32,20.00080003,61b8f3437b89212fae0dfadf
2,18.009,space,16.847,0,269,269,57,1,,,5a9262251eda410001360b2c,6437731f00d735c94b9cf4ee,2023-04-12_22h16.31.965,PRaM,2021.2.3,Win32,20.00080003,61b8f3437b89212fae0dfadf
5,6.402,space,4.871,0,270,270,304,1,,,5a9262251eda410001360b2c,6437731f00d735c94b9cf4ee,2023-04-12_22h16.31.965,PRaM,2021.2.3,Win32,20.00080003,61b8f3437b89212fae0dfadf
7,3.012,space,1.465,0,271,271,134,1,,,5a9262251eda410001360b2c,6437731f00d735c94b9cf4ee,2023-04-12_22h16.31.965,PRaM,2021.2.3,Win32,20.00080003,61b8f3437b89212fae0dfadf
1,2.247,space,1.082,0,272,272,148,1,,,5a9262251eda410001360b2c,6437731f00d735c94b9cf4ee,2023-04-12_22h16.31.965,PRaM,2021.2.3,Win32,20.00080003,61b8f3437b89212fae0dfadf
3,3.085,space,2.101,0,273,273,208,1,,,5a9262251eda410001360b2c,6437731f00d735c94b9cf4ee,2023-04-12_22h16.31.965,PRaM,2021.2.3,Win32,20.00080003,61b8f3437b89212fae0dfadf
1,3.263,space,2.016,0,274,274,11,1,,,5a9262251eda410001360b2c,6437731f00d735c94b9cf4ee,2023-04-12_22h16.31.965,PRaM,2021.2.3,Win32,20.00080003,61b8f3437b89212fae0dfadf
5,3.168,space,1.559,0,275,275,16,1,,,5a9262251eda410001360b2c,6437731f00d735c94b9cf4ee,2023-04-12_22h16.31.965,PRaM,2021.2.3,Win32,20.00080003,61b8f3437b89212fae0dfadf
2,2.247,space,0.651,0,276,276,124,1,,,5a9262251eda410001360b2c,6437731f00d735c94b9cf4ee,2023-04-12_22h16.31.965,PRaM,2021.2.3,Win32,20.00080003,61b8f3437b89212fae0dfadf
1,2.801,space,1.137,0,277,277,8,1,,,5a9262251eda410001360b2c,6437731f00d735c94b9cf4ee,2023-04-12_22h16.31.965,PRaM,2021.2.3,Win32,20.00080003,61b8f3437b89212fae0dfadf
1,2.276,space,0.472,0,278,278,373,1,,,5a9262251eda410001360b2c,6437731f00d735c94b9cf4ee,2023-04-12_22h16.31.965,PRaM,2021.2.3,Win32,20.00080003,61b8f3437b89212fae0dfadf
4,4.611,space,3.045,0,279,279,226,1,,,5a9262251eda410001360b2c,6437731f00d735c94b9cf4ee,2023-04-12_22h16.31.965,PRaM,2021.2.3,Win32,20.00080003,61b8f3437b89212fae0dfadf
1,2.893,space,1.28,0,280,280,293,1,,,5a9262251eda410001360b2c,6437731f00d735c94b9cf4ee,2023-04-12_22h16.31.965,PRaM,2021.2.3,Win32,20.00080003,61b8f3437b89212fae0dfadf
1,2.015,space,0.397,0,281,281,203,1,,,5a9262251eda410001360b2c,6437731f00d735c94b9cf4ee,2023-04-12_22h16.31.965,PRaM,2021.2.3,Win32,20.00080003,61b8f3437b89212fae0dfadf
3,2.655,space,0.973,0,282,282,84,1,,,5a9262251eda410001360b2c,6437731f00d735c94b9cf4ee,2023-04-12_22h16.31.965,PRaM,2021.2.3,Win32,20.00080003,61b8f3437b89212fae0dfadf
1,2.18,space,0.598,0,283,283,330,1,,,5a9262251eda410001360b2c,6437731f00d735c94b9cf4ee,2023-04-12_22h16.31.965,PRaM,2021.2.3,Win32,20.00080003,61b8f3437b89212fae0dfadf
2,2.382,space,0.711,0,284,284,188,1,,,5a9262251eda410001360b2c,6437731f00d735c94b9cf4ee,2023-04-12_22h16.31.965,PRaM,2021.2.3,Win32,20.00080003,61b8f3437b89212fae0dfadf
4,2.322,space,0.673,0,285,285,277,1,,,5a9262251eda410001360b2c,6437731f00d735c94b9cf4ee,2023-04-12_22h16.31.965,PRaM,2021.2.3,Win32,20.00080003,61b8f3437b89212fae0dfadf
1,2.065,space,0.301,0,286,286,78,1,,,5a9262251eda410001360b2c,6437731f00d735c94b9cf4ee,2023-04-12_22h16.31.965,PRaM,2021.2.3,Win32,20.00080003,61b8f3437b89212fae0dfadf
2,2.528,space,0.899,0,287,287,355,1,,,5a9262251eda410001360b2c,6437731f00d735c94b9cf4ee,2023-04-12_22h16.31.965,PRaM,2021.2.3,Win32,20.00080003,61b8f3437b89212fae0dfadf
1,1.984,space,0.305,0,288,288,333,1,,,5a9262251eda410001360b2c,6437731f00d735c94b9cf4ee,2023-04-12_22h16.31.965,PRaM,2021.2.3,Win32,20.00080003,61b8f3437b89212fae0dfadf
1,2.595,space,0.995,0,289,289,318,1,,,5a9262251eda410001360b2c,6437731f00d735c94b9cf4ee,2023-04-12_22h16.31.965,PRaM,2021.2.3,Win32,20.00080003,61b8f3437b89212fae0dfadf
4,4.577,space,3.877,0,290,290,59,1,,,5a9262251eda410001360b2c,6437731f00d735c94b9cf4ee,2023-04-12_22h16.31.965,PRaM,2021.2.3,Win32,20.00080003,61b8f3437b89212fae0dfadf
8,3.268,space,1.795,0,291,291,326,1,,,5a9262251eda410001360b2c,6437731f00d735c94b9cf4ee,2023-04-12_22h16.31.965,PRaM,2021.2.3,Win32,20.00080003,61b8f3437b89212fae0dfadf
5,4.415,space,3.982,0,292,292,278,1,,,5a9262251eda410001360b2c,6437731f00d735c94b9cf4ee,2023-04-12_22h16.31.965,PRaM,2021.2.3,Win32,20.00080003,61b8f3437b89212fae0dfadf
3,3.524,space,1.862,0,293,293,140,1,,,5a9262251eda410001360b2c,6437731f00d735c94b9cf4ee,2023-04-12_22h16.31.965,PRaM,2021.2.3,Win32,20.00080003,61b8f3437b89212fae0dfadf
4,2.993,space,1.334,0,294,294,56,1,,,5a9262251eda410001360b2c,6437731f00d735c94b9cf4ee,2023-04-12_22h16.31.965,PRaM,2021.2.3,Win32,20.00080003,61b8f3437b89212fae0dfadf
1,4.388,space,2.733,0,295,295,298,1,,,5a9262251eda410001360b2c,6437731f00d735c94b9cf4ee,2023-04-12_22h16.31.965,PRaM,2021.2.3,Win32,20.00080003,61b8f3437b89212fae0dfadf
1,2.112,space,0.504,0,296,296,374,1,,,5a9262251eda410001360b2c,6437731f00d735c94b9cf4ee,2023-04-12_22h16.31.965,PRaM,2021.2.3,Win32,20.00080003,61b8f3437b89212fae0dfadf
1,1.983,space,0.312,0,297,297,289,1,,,5a9262251eda410001360b2c,6437731f00d735c94b9cf4ee,2023-04-12_22h16.31.965,PRaM,2021.2.3,Win32,20.00080003,61b8f3437b89212fae0dfadf
3,2.458,space,0.752,0,298,298,12,1,,,5a9262251eda410001360b2c,6437731f00d735c94b9cf4ee,2023-04-12_22h16.31.965,PRaM,2021.2.3,Win32,20.00080003,61b8f3437b89212fae0dfadf
2,2.25,space,0.601,0,299,299,30,1,,,5a9262251eda410001360b2c,6437731f00d735c94b9cf4ee,2023-04-12_22h16.31.965,PRaM,2021.2.3,Win32,20.00080003,61b8f3437b89212fae0dfadf
2,3.549,space,1.71,0,300,300,358,1,,,5a9262251eda410001360b2c,6437731f00d735c94b9cf4ee,2023-04-12_22h16.31.965,PRaM,2021.2.3,Win32,20.00080003,61b8f3437b89212fae0dfadf
1,3.294,space,2.228,0,301,301,345,1,,,5a9262251eda410001360b2c,6437731f00d735c94b9cf4ee,2023-04-12_22h16.31.965,PRaM,2021.2.3,Win32,20.00080003,61b8f3437b89212fae0dfadf
1,2.503,space,2.328,0,302,302,158,1,,,5a9262251eda410001360b2c,6437731f00d735c94b9cf4ee,2023-04-12_22h16.31.965,PRaM,2021.2.3,Win32,20.00080003,61b8f3437b89212fae0dfadf
5,2.364,space,0.851,0,303,303,164,1,,,5a9262251eda410001360b2c,6437731f00d735c94b9cf4ee,2023-04-12_22h16.31.965,PRaM,2021.2.3,Win32,20.00080003,61b8f3437b89212fae0dfadf
2,2.808,space,1.254,0,304,304,339,1,,,5a9262251eda410001360b2c,6437731f00d735c94b9cf4ee,2023-04-12_22h16.31.965,PRaM,2021.2.3,Win32,20.00080003,61b8f3437b89212fae0dfadf
6,3.144,space,1.363,0,305,305,336,1,,,5a9262251eda410001360b2c,6437731f00d735c94b9cf4ee,2023-04-12_22h16.31.965,PRaM,2021.2.3,Win32,20.00080003,61b8f3437b89212fae0dfadf
7,2.863,space,2.04,0,306,306,61,1,,,5a9262251eda410001360b2c,6437731f00d735c94b9cf4ee,2023-04-12_22h16.31.965,PRaM,2021.2.3,Win32,20.00080003,61b8f3437b89212fae0dfadf
2,4.121,space,2.462,0,307,307,235,1,,,5a9262251eda410001360b2c,6437731f00d735c94b9cf4ee,2023-04-12_22h16.31.965,PRaM,2021.2.3,Win32,20.00080003,61b8f3437b89212fae0dfadf
9,2.464,space,8.016,0,308,308,319,1,,,5a9262251eda410001360b2c,6437731f00d735c94b9cf4ee,2023-04-12_22h16.31.965,PRaM,2021.2.3,Win32,20.00080003,61b8f3437b89212fae0dfadf
1,3.27,space,1.62,0,309,309,349,1,,,5a9262251eda410001360b2c,6437731f00d735c94b9cf4ee,2023-04-12_22h16.31.965,PRaM,2021.2.3,Win32,20.00080003,61b8f3437b89212fae0dfadf
1,5.257,space,3.594,0,310,310,174,1,,,5a9262251eda410001360b2c,6437731f00d735c94b9cf4ee,2023-04-12_22h16.31.965,PRaM,2021.2.3,Win32,20.00080003,61b8f3437b89212fae0dfadf
1,19.003,space,17.653,0,311,311,262,1,,,5a9262251eda410001360b2c,6437731f00d735c94b9cf4ee,2023-04-12_22h16.31.965,PRaM,2021.2.3,Win32,20.00080003,61b8f3437b89212fae0dfadf
1,1.948,space,0.052,0,312,312,129,1,,,5a9262251eda410001360b2c,6437731f00d735c94b9cf4ee,2023-04-12_22h16.31.965,PRaM,2021.2.3,Win32,20.00080003,61b8f3437b89212fae0dfadf
1,2.098,space,0.499,0,313,313,150,1,,,5a9262251eda410001360b2c,6437731f00d735c94b9cf4ee,2023-04-12_22h16.31.965,PRaM,2021.2.3,Win32,20.00080003,61b8f3437b89212fae0dfadf
1,7.429,space,5.812,0,314,314,195,1,,,5a9262251eda410001360b2c,6437731f00d735c94b9cf4ee,2023-04-12_22h16.31.965,PRaM,2021.2.3,Win32,20.00080003,61b8f3437b89212fae0dfadf
3,4.148,space,2.491,0,315,315,310,1,,,5a9262251eda410001360b2c,6437731f00d735c94b9cf4ee,2023-04-12_22h16.31.965,PRaM,2021.2.3,Win32,20.00080003,61b8f3437b89212fae0dfadf
2,2.627,space,0.966,0,316,316,359,1,,,5a9262251eda410001360b2c,6437731f00d735c94b9cf4ee,2023-04-12_22h16.31.965,PRaM,2021.2.3,Win32,20.00080003,61b8f3437b89212fae0dfadf
2,10.291,space,10.567,0,317,317,186,1,,,5a9262251eda410001360b2c,6437731f00d735c94b9cf4ee,2023-04-12_22h16.31.965,PRaM,2021.2.3,Win32,20.00080003,61b8f3437b89212fae0dfadf
3,2.614,space,0.965,0,318,318,242,1,,,5a9262251eda410001360b2c,6437731f00d735c94b9cf4ee,2023-04-12_22h16.31.965,PRaM,2021.2.3,Win32,20.00080003,61b8f3437b89212fae0dfadf
1,2.447,space,0.898,0,319,319,106,1,,,5a9262251eda410001360b2c,6437731f00d735c94b9cf4ee,2023-04-12_22h16.31.965,PRaM,2021.2.3,Win32,20.00080003,61b8f3437b89212fae0dfadf
1,2.587,space,1.029,0,320,320,212,1,,,5a9262251eda410001360b2c,6437731f00d735c94b9cf4ee,2023-04-12_22h16.31.965,PRaM,2021.2.3,Win32,20.00080003,61b8f3437b89212fae0dfadf
4,2.729,space,1.177,0,321,321,296,1,,,5a9262251eda410001360b2c,6437731f00d735c94b9cf4ee,2023-04-12_22h16.31.965,PRaM,2021.2.3,Win32,20.00080003,61b8f3437b89212fae0dfadf
7,2.281,space,0.701,0,322,322,105,1,,,5a9262251eda410001360b2c,6437731f00d735c94b9cf4ee,2023-04-12_22h16.31.965,PRaM,2021.2.3,Win32,20.00080003,61b8f3437b89212fae0dfadf
1,2.686,space,0.927,0,323,323,193,1,,,5a9262251eda410001360b2c,6437731f00d735c94b9cf4ee,2023-04-12_22h16.31.965,PRaM,2021.2.3,Win32,20.00080003,61b8f3437b89212fae0dfadf
4,2.245,space,0.549,0,324,324,216,1,,,5a9262251eda410001360b2c,6437731f00d735c94b9cf4ee,2023-04-12_22h16.31.965,PRaM,2021.2.3,Win32,20.00080003,61b8f3437b89212fae0dfadf
5,5.55,space,3.855,0,325,325,102,1,,,5a9262251eda410001360b2c,6437731f00d735c94b9cf4ee,2023-04-12_22h16.31.965,PRaM,2021.2.3,Win32,20.00080003,61b8f3437b89212fae0dfadf
1,2.095,space,0.302,0,326,326,354,1,,,5a9262251eda410001360b2c,6437731f00d735c94b9cf4ee,2023-04-12_22h16.31.965,PRaM,2021.2.3,Win32,20.00080003,61b8f3437b89212fae0dfadf
9,1.999,space,6,0,327,327,320,1,,,5a9262251eda410001360b2c,6437731f00d735c94b9cf4ee,2023-04-12_22h16.31.965,PRaM,2021.2.3,Win32,20.00080003,61b8f3437b89212fae0dfadf
2,3.737,space,2.049,0,328,328,146,1,,,5a9262251eda410001360b2c,6437731f00d735c94b9cf4ee,2023-04-12_22h16.31.965,PRaM,2021.2.3,Win32,20.00080003,61b8f3437b89212fae0dfadf
1,1.902,space,0.152,0,329,329,27,1,,,5a9262251eda410001360b2c,6437731f00d735c94b9cf4ee,2023-04-12_22h16.31.965,PRaM,2021.2.3,Win32,20.00080003,61b8f3437b89212fae0dfadf
1,2.333,space,0.555,0,330,330,111,1,,,5a9262251eda410001360b2c,6437731f00d735c94b9cf4ee,2023-04-12_22h16.31.965,PRaM,2021.2.3,Win32,20.00080003,61b8f3437b89212fae0dfadf
3,5.177,space,3.573,0,331,331,179,1,,,5a9262251eda410001360b2c,6437731f00d735c94b9cf4ee,2023-04-12_22h16.31.965,PRaM,2021.2.3,Win32,20.00080003,61b8f3437b89212fae0dfadf
1,2.381,space,0.702,0,332,332,224,1,,,5a9262251eda410001360b2c,6437731f00d735c94b9cf4ee,2023-04-12_22h16.31.965,PRaM,2021.2.3,Win32,20.00080003,61b8f3437b89212fae0dfadf
2,2.795,space,1.051,0,333,333,123,1,,,5a9262251eda410001360b2c,6437731f00d735c94b9cf4ee,2023-04-12_22h16.31.965,PRaM,2021.2.3,Win32,20.00080003,61b8f3437b89212fae0dfadf
6,2.981,space,1.329,0,334,334,20,1,,,5a9262251eda410001360b2c,6437731f00d735c94b9cf4ee,2023-04-12_22h16.31.965,PRaM,2021.2.3,Win32,20.00080003,61b8f3437b89212fae0dfadf
1,1.848,space,0.159,0,335,335,122,1,,,5a9262251eda410001360b2c,6437731f00d735c94b9cf4ee,2023-04-12_22h16.31.965,PRaM,2021.2.3,Win32,20.00080003,61b8f3437b89212fae0dfadf
1,3.212,space,2.165,0,336,336,343,1,,,5a9262251eda410001360b2c,6437731f00d735c94b9cf4ee,2023-04-12_22h16.31.965,PRaM,2021.2.3,Win32,20.00080003,61b8f3437b89212fae0dfadf
6,8.613,space,7.067,0,337,337,228,1,,,5a9262251eda410001360b2c,6437731f00d735c94b9cf4ee,2023-04-12_22h16.31.965,PRaM,2021.2.3,Win32,20.00080003,61b8f3437b89212fae0dfadf
1,2.645,space,0.963,0,338,338,303,1,,,5a9262251eda410001360b2c,6437731f00d735c94b9cf4ee,2023-04-12_22h16.31.965,PRaM,2021.2.3,Win32,20.00080003,61b8f3437b89212fae0dfadf
2,3.243,space,1.766,0,339,339,202,1,,,5a9262251eda410001360b2c,6437731f00d735c94b9cf4ee,2023-04-12_22h16.31.965,PRaM,2021.2.3,Win32,20.00080003,61b8f3437b89212fae0dfadf
4,2.536,space,0.849,0,340,340,364,1,,,5a9262251eda410001360b2c,6437731f00d735c94b9cf4ee,2023-04-12_22h16.31.965,PRaM,2021.2.3,Win32,20.00080003,61b8f3437b89212fae0dfadf
2,2.391,space,1.014,0,341,341,143,1,,,5a9262251eda410001360b2c,6437731f00d735c94b9cf4ee,2023-04-12_22h16.31.965,PRaM,2021.2.3,Win32,20.00080003,61b8f3437b89212fae0dfadf
1,2.268,space,0.642,0,342,342,316,1,,,5a9262251eda410001360b2c,6437731f00d735c94b9cf4ee,2023-04-12_22h16.31.965,PRaM,2021.2.3,Win32,20.00080003,61b8f3437b89212fae0dfadf
5,10.712,space,9.098,0,343,343,64,1,,,5a9262251eda410001360b2c,6437731f00d735c94b9cf4ee,2023-04-12_22h16.31.965,PRaM,2021.2.3,Win32,20.00080003,61b8f3437b89212fae0dfadf
2,4.671,space,2.991,0,344,344,80,1,,,5a9262251eda410001360b2c,6437731f00d735c94b9cf4ee,2023-04-12_22h16.31.965,PRaM,2021.2.3,Win32,20.00080003,61b8f3437b89212fae0dfadf
1,3.017,space,1.298,0,345,345,160,1,,,5a9262251eda410001360b2c,6437731f00d735c94b9cf4ee,2023-04-12_22h16.31.965,PRaM,2021.2.3,Win32,20.00080003,61b8f3437b89212fae0dfadf
2,2.269,space,0.677,0,346,346,256,1,,,5a9262251eda410001360b2c,6437731f00d735c94b9cf4ee,2023-04-12_22h16.31.965,PRaM,2021.2.3,Win32,20.00080003,61b8f3437b89212fae0dfadf
4,2.497,space,0.905,0,347,347,196,1,,,5a9262251eda410001360b2c,6437731f00d735c94b9cf4ee,2023-04-12_22h16.31.965,PRaM,2021.2.3,Win32,20.00080003,61b8f3437b89212fae0dfadf
,,space,0.748,0,348,348,9,1,,,5a9262251eda410001360b2c,6437731f00d735c94b9cf4ee,2023-04-12_22h16.31.965,PRaM,2021.2.3,Win32,20.00080003,61b8f3437b89212fae0dfadf
1,39.568,space,37.872,0,349,349,347,1,,,5a9262251eda410001360b2c,6437731f00d735c94b9cf4ee,2023-04-12_22h16.31.965,PRaM,2021.2.3,Win32,20.00080003,61b8f3437b89212fae0dfadf
4,3.615,space,2.045,0,350,350,273,1,,,5a9262251eda410001360b2c,6437731f00d735c94b9cf4ee,2023-04-12_22h16.31.965,PRaM,2021.2.3,Win32,20.00080003,61b8f3437b89212fae0dfadf
1,2.188,space,0.787,0,351,351,73,1,,,5a9262251eda410001360b2c,6437731f00d735c94b9cf4ee,2023-04-12_22h16.31.965,PRaM,2021.2.3,Win32,20.00080003,61b8f3437b89212fae0dfadf
1,1.995,space,0.3,0,352,352,275,1,,,5a9262251eda410001360b2c,6437731f00d735c94b9cf4ee,2023-04-12_22h16.31.965,PRaM,2021.2.3,Win32,20.00080003,61b8f3437b89212fae0dfadf
1,2.413,space,0.552,0,353,353,286,1,,,5a9262251eda410001360b2c,6437731f00d735c94b9cf4ee,2023-04-12_22h16.31.965,PRaM,2021.2.3,Win32,20.00080003,61b8f3437b89212fae0dfadf
1,7.131,space,5.533,0,354,354,113,1,,,5a9262251eda410001360b2c,6437731f00d735c94b9cf4ee,2023-04-12_22h16.31.965,PRaM,2021.2.3,Win32,20.00080003,61b8f3437b89212fae0dfadf
2,2.497,space,0.85,0,355,355,268,1,,,5a9262251eda410001360b2c,6437731f00d735c94b9cf4ee,2023-04-12_22h16.31.965,PRaM,2021.2.3,Win32,20.00080003,61b8f3437b89212fae0dfadf
6,2.603,space,0.952,0,356,356,306,1,,,5a9262251eda410001360b2c,6437731f00d735c94b9cf4ee,2023-04-12_22h16.31.965,PRaM,2021.2.3,Win32,20.00080003,61b8f3437b89212fae0dfadf
1,2.629,space,1.062,0,357,357,131,1,,,5a9262251eda410001360b2c,6437731f00d735c94b9cf4ee,2023-04-12_22h16.31.965,PRaM,2021.2.3,Win32,20.00080003,61b8f3437b89212fae0dfadf
1,2.837,space,1.246,0,358,358,191,1,,,5a9262251eda410001360b2c,6437731f00d735c94b9cf4ee,2023-04-12_22h16.31.965,PRaM,2021.2.3,Win32,20.00080003,61b8f3437b89212fae0dfadf
2,2.701,space,1.067,0,359,359,252,1,,,5a9262251eda410001360b2c,6437731f00d735c94b9cf4ee,2023-04-12_22h16.31.965,PRaM,2021.2.3,Win32,20.00080003,61b8f3437b89212fae0dfadf
5,2.646,space,0.977,0,360,360,7,1,,,5a9262251eda410001360b2c,6437731f00d735c94b9cf4ee,2023-04-12_22h16.31.965,PRaM,2021.2.3,Win32,20.00080003,61b8f3437b89212fae0dfadf
1,2.446,space,0.846,0,361,361,108,1,,,5a9262251eda410001360b2c,6437731f00d735c94b9cf4ee,2023-04-12_22h16.31.965,PRaM,2021.2.3,Win32,20.00080003,61b8f3437b89212fae0dfadf
9,2.33,space,6.397,0,362,362,137,1,,,5a9262251eda410001360b2c,6437731f00d735c94b9cf4ee,2023-04-12_22h16.31.965,PRaM,2021.2.3,Win32,20.00080003,61b8f3437b89212fae0dfadf
6,2.322,space,0.746,0,363,363,21,1,,,5a9262251eda410001360b2c,6437731f00d735c94b9cf4ee,2023-04-12_22h16.31.965,PRaM,2021.2.3,Win32,20.00080003,61b8f3437b89212fae0dfadf
1,2.13,space,0.502,0,364,364,253,1,,,5a9262251eda410001360b2c,6437731f00d735c94b9cf4ee,2023-04-12_22h16.31.965,PRaM,2021.2.3,Win32,20.00080003,61b8f3437b89212fae0dfadf
2,2.797,space,1.105,0,365,365,223,1,,,5a9262251eda410001360b2c,6437731f00d735c94b9cf4ee,2023-04-12_22h16.31.965,PRaM,2021.2.3,Win32,20.00080003,61b8f3437b89212fae0dfadf
6,2.811,space,1.248,0,366,366,366,1,,,5a9262251eda410001360b2c,6437731f00d735c94b9cf4ee,2023-04-12_22h16.31.965,PRaM,2021.2.3,Win32,20.00080003,61b8f3437b89212fae0dfadf
4,2.18,space,0.724,0,367,367,297,1,,,5a9262251eda410001360b2c,6437731f00d735c94b9cf4ee,2023-04-12_22h16.31.965,PRaM,2021.2.3,Win32,20.00080003,61b8f3437b89212fae0dfadf
3,3.082,space,1.502,0,368,368,184,1,,,5a9262251eda410001360b2c,6437731f00d735c94b9cf4ee,2023-04-12_22h16.31.965,PRaM,2021.2.3,Win32,20.00080003,61b8f3437b89212fae0dfadf
8,3.248,space,1.869,0,369,369,154,1,,,5a9262251eda410001360b2c,6437731f00d735c94b9cf4ee,2023-04-12_22h16.31.965,PRaM,2021.2.3,Win32,20.00080003,61b8f3437b89212fae0dfadf
6,3.757,space,2.112,0,370,370,112,1,,,5a9262251eda410001360b2c,6437731f00d735c94b9cf4ee,2023-04-12_22h16.31.965,PRaM,2021.2.3,Win32,20.00080003,61b8f3437b89212fae0dfadf
5,2.233,space,1.064,0,371,371,213,1,,,5a9262251eda410001360b2c,6437731f00d735c94b9cf4ee,2023-04-12_22h16.31.965,PRaM,2021.2.3,Win32,20.00080003,61b8f3437b89212fae0dfadf
2,5.647,space,3.95,0,372,372,314,1,,,5a9262251eda410001360b2c,6437731f00d735c94b9cf4ee,2023-04-12_22h16.31.965,PRaM,2021.2.3,Win32,20.00080003,61b8f3437b89212fae0dfadf
1,2.242,space,0.654,0,373,373,49,1,,,5a9262251eda410001360b2c,6437731f00d735c94b9cf4ee,2023-04-12_22h16.31.965,PRaM,2021.2.3,Win32,20.00080003,61b8f3437b89212fae0dfadf
1,2.305,space,0.68,0,374,374,257,1,,,5a9262251eda410001360b2c,6437731f00d735c94b9cf4ee,2023-04-12_22h16.31.965,PRaM,2021.2.3,Win32,20.00080003,61b8f3437b89212fae0dfadf
1,1.998,space,0.353,0,375,375,290,1,,,5a9262251eda410001360b2c,6437731f00d735c94b9cf4ee,2023-04-12_22h16.31.965,PRaM,2021.2.3,Win32,20.00080003,61b8f3437b89212fae0dfadf
6,1.874,space,0.153,0,376,376,331,1,,,5a9262251eda410001360b2c,6437731f00d735c94b9cf4ee,2023-04-12_22h16.31.965,PRaM,2021.2.3,Win32,20.00080003,61b8f3437b89212fae0dfadf
2,4.224,space,2.29,0,377,377,230,1,,,5a9262251eda410001360b2c,6437731f00d735c94b9cf4ee,2023-04-12_22h16.31.965,PRaM,2021.2.3,Win32,20.00080003,61b8f3437b89212fae0dfadf
