Rating.response,Rating.rt,EndTrial.keys,EndTrial.rt,trials.thisRepN,trials.thisTrialN,trials.thisN,trials.thisIndex,trials.ran,Pos1,Pos2,participant,session,date,expName,psychopyVersion,OS,frameRate,study_id
1,6.2437,space,9.6167,0,0,0,289,1,,,5a99a3154eecca0001dd7998,6439161b532c4e05e7b6414f,2023-04-14_10h00.27.140,PRaM,2021.2.3,Win32,59.97720866,61b8f3437b89212fae0dfadf
4,5.2429,space,4.3176,0,1,1,75,1,,,5a99a3154eecca0001dd7998,6439161b532c4e05e7b6414f,2023-04-14_10h00.27.140,PRaM,2021.2.3,Win32,59.97720866,61b8f3437b89212fae0dfadf
1,3.2798,space,2.1163,0,2,2,373,1,,,5a99a3154eecca0001dd7998,6439161b532c4e05e7b6414f,2023-04-14_10h00.27.140,PRaM,2021.2.3,Win32,59.97720866,61b8f3437b89212fae0dfadf
3,4.0082,space,3.672,0,3,3,90,1,,,5a99a3154eecca0001dd7998,6439161b532c4e05e7b6414f,2023-04-14_10h00.27.140,PRaM,2021.2.3,Win32,59.97720866,61b8f3437b89212fae0dfadf
2,4.6542,space,3.5035,0,4,4,237,1,,,5a99a3154eecca0001dd7998,6439161b532c4e05e7b6414f,2023-04-14_10h00.27.140,PRaM,2021.2.3,Win32,59.97720866,61b8f3437b89212fae0dfadf
6,4.1744,space,3.2207,0,5,5,222,1,,,5a99a3154eecca0001dd7998,6439161b532c4e05e7b6414f,2023-04-14_10h00.27.140,PRaM,2021.2.3,Win32,59.97720866,61b8f3437b89212fae0dfadf
5,5.5414,space,5.1346,0,6,6,347,1,,,5a99a3154eecca0001dd7998,6439161b532c4e05e7b6414f,2023-04-14_10h00.27.140,PRaM,2021.2.3,Win32,59.97720866,61b8f3437b89212fae0dfadf
3,3.2957,space,1.9673,0,7,7,257,1,,,5a99a3154eecca0001dd7998,6439161b532c4e05e7b6414f,2023-04-14_10h00.27.140,PRaM,2021.2.3,Win32,59.97720866,61b8f3437b89212fae0dfadf
7,5.7487,space,4.7506,0,8,8,348,1,,,5a99a3154eecca0001dd7998,6439161b532c4e05e7b6414f,2023-04-14_10h00.27.140,PRaM,2021.2.3,Win32,59.97720866,61b8f3437b89212fae0dfadf
6,3.2244,space,2.039,0,9,9,22,1,,,5a99a3154eecca0001dd7998,6439161b532c4e05e7b6414f,2023-04-14_10h00.27.140,PRaM,2021.2.3,Win32,59.97720866,61b8f3437b89212fae0dfadf
7,3.5569,space,2.7376,0,10,10,110,1,,,5a99a3154eecca0001dd7998,6439161b532c4e05e7b6414f,2023-04-14_10h00.27.140,PRaM,2021.2.3,Win32,59.97720866,61b8f3437b89212fae0dfadf
9,2.5623,space,1.7283,0,11,11,285,1,,,5a99a3154eecca0001dd7998,6439161b532c4e05e7b6414f,2023-04-14_10h00.27.140,PRaM,2021.2.3,Win32,59.97720866,61b8f3437b89212fae0dfadf
6,6.7039,space,5.7149,0,12,12,99,1,,,5a99a3154eecca0001dd7998,6439161b532c4e05e7b6414f,2023-04-14_10h00.27.140,PRaM,2021.2.3,Win32,59.97720866,61b8f3437b89212fae0dfadf
8,3.1097,space,2.333,0,13,13,271,1,,,5a99a3154eecca0001dd7998,6439161b532c4e05e7b6414f,2023-04-14_10h00.27.140,PRaM,2021.2.3,Win32,59.97720866,61b8f3437b89212fae0dfadf
6,2.8973,space,1.684,0,14,14,187,1,,,5a99a3154eecca0001dd7998,6439161b532c4e05e7b6414f,2023-04-14_10h00.27.140,PRaM,2021.2.3,Win32,59.97720866,61b8f3437b89212fae0dfadf
3,5.7371,space,4.6489,0,15,15,324,1,,,5a99a3154eecca0001dd7998,6439161b532c4e05e7b6414f,2023-04-14_10h00.27.140,PRaM,2021.2.3,Win32,59.97720866,61b8f3437b89212fae0dfadf
1,7.8249,space,6.9502,0,16,16,215,1,,,5a99a3154eecca0001dd7998,6439161b532c4e05e7b6414f,2023-04-14_10h00.27.140,PRaM,2021.2.3,Win32,59.97720866,61b8f3437b89212fae0dfadf
1,2.4563,space,1.1751,0,17,17,8,1,,,5a99a3154eecca0001dd7998,6439161b532c4e05e7b6414f,2023-04-14_10h00.27.140,PRaM,2021.2.3,Win32,59.97720866,61b8f3437b89212fae0dfadf
8,3.5369,space,2.5147,0,18,18,302,1,,,5a99a3154eecca0001dd7998,6439161b532c4e05e7b6414f,2023-04-14_10h00.27.140,PRaM,2021.2.3,Win32,59.97720866,61b8f3437b89212fae0dfadf
9,1.9188,space,0.7373,0,19,19,14,1,,,5a99a3154eecca0001dd7998,6439161b532c4e05e7b6414f,2023-04-14_10h00.27.140,PRaM,2021.2.3,Win32,59.97720866,61b8f3437b89212fae0dfadf
4,2.9816,space,3.6505,0,20,20,202,1,,,5a99a3154eecca0001dd7998,6439161b532c4e05e7b6414f,2023-04-14_10h00.27.140,PRaM,2021.2.3,Win32,59.97720866,61b8f3437b89212fae0dfadf
8,2.62,space,2.0007,0,21,21,140,1,,,5a99a3154eecca0001dd7998,6439161b532c4e05e7b6414f,2023-04-14_10h00.27.140,PRaM,2021.2.3,Win32,59.97720866,61b8f3437b89212fae0dfadf
3,3.1127,space,2.024,0,22,22,81,1,,,5a99a3154eecca0001dd7998,6439161b532c4e05e7b6414f,2023-04-14_10h00.27.140,PRaM,2021.2.3,Win32,59.97720866,61b8f3437b89212fae0dfadf
1,2.3323,space,0.939,0,23,23,195,1,,,5a99a3154eecca0001dd7998,6439161b532c4e05e7b6414f,2023-04-14_10h00.27.140,PRaM,2021.2.3,Win32,59.97720866,61b8f3437b89212fae0dfadf
4,5.2102,space,3.8011,0,24,24,150,1,,,5a99a3154eecca0001dd7998,6439161b532c4e05e7b6414f,2023-04-14_10h00.27.140,PRaM,2021.2.3,Win32,59.97720866,61b8f3437b89212fae0dfadf
3,2.8167,space,1.8184,0,25,25,295,1,,,5a99a3154eecca0001dd7998,6439161b532c4e05e7b6414f,2023-04-14_10h00.27.140,PRaM,2021.2.3,Win32,59.97720866,61b8f3437b89212fae0dfadf
8,2.3075,space,1.1004,0,26,26,325,1,,,5a99a3154eecca0001dd7998,6439161b532c4e05e7b6414f,2023-04-14_10h00.27.140,PRaM,2021.2.3,Win32,59.97720866,61b8f3437b89212fae0dfadf
5,2.3835,space,1.0523,0,27,27,72,1,,,5a99a3154eecca0001dd7998,6439161b532c4e05e7b6414f,2023-04-14_10h00.27.140,PRaM,2021.2.3,Win32,59.97720866,61b8f3437b89212fae0dfadf
5,2.7109,space,1.5338,0,28,28,47,1,,,5a99a3154eecca0001dd7998,6439161b532c4e05e7b6414f,2023-04-14_10h00.27.140,PRaM,2021.2.3,Win32,59.97720866,61b8f3437b89212fae0dfadf
3,6.7129,space,5.6673,0,29,29,273,1,,,5a99a3154eecca0001dd7998,6439161b532c4e05e7b6414f,2023-04-14_10h00.27.140,PRaM,2021.2.3,Win32,59.97720866,61b8f3437b89212fae0dfadf
1,2.472,space,1.1171,0,30,30,284,1,,,5a99a3154eecca0001dd7998,6439161b532c4e05e7b6414f,2023-04-14_10h00.27.140,PRaM,2021.2.3,Win32,59.97720866,61b8f3437b89212fae0dfadf
2,2.3989,space,1.0838,0,31,31,49,1,,,5a99a3154eecca0001dd7998,6439161b532c4e05e7b6414f,2023-04-14_10h00.27.140,PRaM,2021.2.3,Win32,59.97720866,61b8f3437b89212fae0dfadf
2,2.8417,space,1.4783,0,32,32,5,1,,,5a99a3154eecca0001dd7998,6439161b532c4e05e7b6414f,2023-04-14_10h00.27.140,PRaM,2021.2.3,Win32,59.97720866,61b8f3437b89212fae0dfadf
7,4.4097,space,3.2528,0,33,33,355,1,,,5a99a3154eecca0001dd7998,6439161b532c4e05e7b6414f,2023-04-14_10h00.27.140,PRaM,2021.2.3,Win32,59.97720866,61b8f3437b89212fae0dfadf
6,2.4097,space,1.0447,0,34,34,104,1,,,5a99a3154eecca0001dd7998,6439161b532c4e05e7b6414f,2023-04-14_10h00.27.140,PRaM,2021.2.3,Win32,59.97720866,61b8f3437b89212fae0dfadf
5,2.2012,space,0.9036,0,35,35,116,1,,,5a99a3154eecca0001dd7998,6439161b532c4e05e7b6414f,2023-04-14_10h00.27.140,PRaM,2021.2.3,Win32,59.97720866,61b8f3437b89212fae0dfadf
3,4.2455,space,3.2156,0,36,36,153,1,,,5a99a3154eecca0001dd7998,6439161b532c4e05e7b6414f,2023-04-14_10h00.27.140,PRaM,2021.2.3,Win32,59.97720866,61b8f3437b89212fae0dfadf
5,2.8759,space,2.1277,0,37,37,146,1,,,5a99a3154eecca0001dd7998,6439161b532c4e05e7b6414f,2023-04-14_10h00.27.140,PRaM,2021.2.3,Win32,59.97720866,61b8f3437b89212fae0dfadf
5,6.4904,space,5.4007,0,38,38,315,1,,,5a99a3154eecca0001dd7998,6439161b532c4e05e7b6414f,2023-04-14_10h00.27.140,PRaM,2021.2.3,Win32,59.97720866,61b8f3437b89212fae0dfadf
8,2.4739,space,1.2531,0,39,39,112,1,,,5a99a3154eecca0001dd7998,6439161b532c4e05e7b6414f,2023-04-14_10h00.27.140,PRaM,2021.2.3,Win32,59.97720866,61b8f3437b89212fae0dfadf
2,3.7899,space,2.4297,0,40,40,309,1,,,5a99a3154eecca0001dd7998,6439161b532c4e05e7b6414f,2023-04-14_10h00.27.140,PRaM,2021.2.3,Win32,59.97720866,61b8f3437b89212fae0dfadf
8,3.0567,space,2.9262,0,41,41,270,1,,,5a99a3154eecca0001dd7998,6439161b532c4e05e7b6414f,2023-04-14_10h00.27.140,PRaM,2021.2.3,Win32,59.97720866,61b8f3437b89212fae0dfadf
8,3.0043,space,2.2207,0,42,42,166,1,,,5a99a3154eecca0001dd7998,6439161b532c4e05e7b6414f,2023-04-14_10h00.27.140,PRaM,2021.2.3,Win32,59.97720866,61b8f3437b89212fae0dfadf
2,4.1595,space,2.9659,0,43,43,97,1,,,5a99a3154eecca0001dd7998,6439161b532c4e05e7b6414f,2023-04-14_10h00.27.140,PRaM,2021.2.3,Win32,59.97720866,61b8f3437b89212fae0dfadf
1,2.5611,space,1.2405,0,44,44,1,1,,,5a99a3154eecca0001dd7998,6439161b532c4e05e7b6414f,2023-04-14_10h00.27.140,PRaM,2021.2.3,Win32,59.97720866,61b8f3437b89212fae0dfadf
5,4.5907,space,3.3883,0,45,45,96,1,,,5a99a3154eecca0001dd7998,6439161b532c4e05e7b6414f,2023-04-14_10h00.27.140,PRaM,2021.2.3,Win32,59.97720866,61b8f3437b89212fae0dfadf
2,2.2329,space,1.0547,0,46,46,39,1,,,5a99a3154eecca0001dd7998,6439161b532c4e05e7b6414f,2023-04-14_10h00.27.140,PRaM,2021.2.3,Win32,59.97720866,61b8f3437b89212fae0dfadf
2,2.6727,space,1.3968,0,47,47,204,1,,,5a99a3154eecca0001dd7998,6439161b532c4e05e7b6414f,2023-04-14_10h00.27.140,PRaM,2021.2.3,Win32,59.97720866,61b8f3437b89212fae0dfadf
3,2.1692,space,0.8888,0,48,48,357,1,,,5a99a3154eecca0001dd7998,6439161b532c4e05e7b6414f,2023-04-14_10h00.27.140,PRaM,2021.2.3,Win32,59.97720866,61b8f3437b89212fae0dfadf
6,4.4189,space,3.3144,0,49,49,298,1,,,5a99a3154eecca0001dd7998,6439161b532c4e05e7b6414f,2023-04-14_10h00.27.140,PRaM,2021.2.3,Win32,59.97720866,61b8f3437b89212fae0dfadf
1,2.268,space,1.2108,0,50,50,41,1,,,5a99a3154eecca0001dd7998,6439161b532c4e05e7b6414f,2023-04-14_10h00.27.140,PRaM,2021.2.3,Win32,59.97720866,61b8f3437b89212fae0dfadf
3,2.1491,space,0.818,0,51,51,138,1,,,5a99a3154eecca0001dd7998,6439161b532c4e05e7b6414f,2023-04-14_10h00.27.140,PRaM,2021.2.3,Win32,59.97720866,61b8f3437b89212fae0dfadf
9,8.7423,space,7.5991,0,52,52,310,1,,,5a99a3154eecca0001dd7998,6439161b532c4e05e7b6414f,2023-04-14_10h00.27.140,PRaM,2021.2.3,Win32,59.97720866,61b8f3437b89212fae0dfadf
9,7.3597,space,6.4965,0,53,53,197,1,,,5a99a3154eecca0001dd7998,6439161b532c4e05e7b6414f,2023-04-14_10h00.27.140,PRaM,2021.2.3,Win32,59.97720866,61b8f3437b89212fae0dfadf
8,1.977,space,0.7015,0,54,54,115,1,,,5a99a3154eecca0001dd7998,6439161b532c4e05e7b6414f,2023-04-14_10h00.27.140,PRaM,2021.2.3,Win32,59.97720866,61b8f3437b89212fae0dfadf
8,2.0395,space,0.8007,0,55,55,244,1,,,5a99a3154eecca0001dd7998,6439161b532c4e05e7b6414f,2023-04-14_10h00.27.140,PRaM,2021.2.3,Win32,59.97720866,61b8f3437b89212fae0dfadf
5,1.9055,space,0.6715,0,56,56,241,1,,,5a99a3154eecca0001dd7998,6439161b532c4e05e7b6414f,2023-04-14_10h00.27.140,PRaM,2021.2.3,Win32,59.97720866,61b8f3437b89212fae0dfadf
3,2.7401,space,1.5714,0,57,57,73,1,,,5a99a3154eecca0001dd7998,6439161b532c4e05e7b6414f,2023-04-14_10h00.27.140,PRaM,2021.2.3,Win32,59.97720866,61b8f3437b89212fae0dfadf
9,2.1443,space,0.8346,0,58,58,305,1,,,5a99a3154eecca0001dd7998,6439161b532c4e05e7b6414f,2023-04-14_10h00.27.140,PRaM,2021.2.3,Win32,59.97720866,61b8f3437b89212fae0dfadf
9,2.9609,space,1.9345,0,59,59,297,1,,,5a99a3154eecca0001dd7998,6439161b532c4e05e7b6414f,2023-04-14_10h00.27.140,PRaM,2021.2.3,Win32,59.97720866,61b8f3437b89212fae0dfadf
3,2.4303,space,1.1809,0,60,60,122,1,,,5a99a3154eecca0001dd7998,6439161b532c4e05e7b6414f,2023-04-14_10h00.27.140,PRaM,2021.2.3,Win32,59.97720866,61b8f3437b89212fae0dfadf
9,2.2955,space,1.0934,0,61,61,366,1,,,5a99a3154eecca0001dd7998,6439161b532c4e05e7b6414f,2023-04-14_10h00.27.140,PRaM,2021.2.3,Win32,59.97720866,61b8f3437b89212fae0dfadf
7,4.4702,space,3.4252,0,62,62,364,1,,,5a99a3154eecca0001dd7998,6439161b532c4e05e7b6414f,2023-04-14_10h00.27.140,PRaM,2021.2.3,Win32,59.97720866,61b8f3437b89212fae0dfadf
3,2.2175,space,1.0652,0,63,63,71,1,,,5a99a3154eecca0001dd7998,6439161b532c4e05e7b6414f,2023-04-14_10h00.27.140,PRaM,2021.2.3,Win32,59.97720866,61b8f3437b89212fae0dfadf
3,2.5305,space,1.2355,0,64,64,338,1,,,5a99a3154eecca0001dd7998,6439161b532c4e05e7b6414f,2023-04-14_10h00.27.140,PRaM,2021.2.3,Win32,59.97720866,61b8f3437b89212fae0dfadf
6,2.8271,space,1.6237,0,65,65,191,1,,,5a99a3154eecca0001dd7998,6439161b532c4e05e7b6414f,2023-04-14_10h00.27.140,PRaM,2021.2.3,Win32,59.97720866,61b8f3437b89212fae0dfadf
6,1.9091,space,0.5679,0,66,66,377,1,,,5a99a3154eecca0001dd7998,6439161b532c4e05e7b6414f,2023-04-14_10h00.27.140,PRaM,2021.2.3,Win32,59.97720866,61b8f3437b89212fae0dfadf
7,2.2913,space,2.4725,0,67,67,132,1,,,5a99a3154eecca0001dd7998,6439161b532c4e05e7b6414f,2023-04-14_10h00.27.140,PRaM,2021.2.3,Win32,59.97720866,61b8f3437b89212fae0dfadf
9,3.1046,space,1.9641,0,68,68,207,1,,,5a99a3154eecca0001dd7998,6439161b532c4e05e7b6414f,2023-04-14_10h00.27.140,PRaM,2021.2.3,Win32,59.97720866,61b8f3437b89212fae0dfadf
3,2.8757,space,1.7171,0,69,69,58,1,,,5a99a3154eecca0001dd7998,6439161b532c4e05e7b6414f,2023-04-14_10h00.27.140,PRaM,2021.2.3,Win32,59.97720866,61b8f3437b89212fae0dfadf
2,3.2814,space,2.0174,0,70,70,316,1,,,5a99a3154eecca0001dd7998,6439161b532c4e05e7b6414f,2023-04-14_10h00.27.140,PRaM,2021.2.3,Win32,59.97720866,61b8f3437b89212fae0dfadf
3,2.6298,space,1.2927,0,71,71,142,1,,,5a99a3154eecca0001dd7998,6439161b532c4e05e7b6414f,2023-04-14_10h00.27.140,PRaM,2021.2.3,Win32,59.97720866,61b8f3437b89212fae0dfadf
4,2.0777,space,0.9513,0,72,72,314,1,,,5a99a3154eecca0001dd7998,6439161b532c4e05e7b6414f,2023-04-14_10h00.27.140,PRaM,2021.2.3,Win32,59.97720866,61b8f3437b89212fae0dfadf
9,2.2655,space,1.1022,0,73,73,3,1,,,5a99a3154eecca0001dd7998,6439161b532c4e05e7b6414f,2023-04-14_10h00.27.140,PRaM,2021.2.3,Win32,59.97720866,61b8f3437b89212fae0dfadf
3,2.7883,space,1.5185,0,74,74,13,1,,,5a99a3154eecca0001dd7998,6439161b532c4e05e7b6414f,2023-04-14_10h00.27.140,PRaM,2021.2.3,Win32,59.97720866,61b8f3437b89212fae0dfadf
4,2.0838,space,0.7699,0,75,75,0,1,,,5a99a3154eecca0001dd7998,6439161b532c4e05e7b6414f,2023-04-14_10h00.27.140,PRaM,2021.2.3,Win32,59.97720866,61b8f3437b89212fae0dfadf
3,4.8238,space,4.0684,0,76,76,369,1,,,5a99a3154eecca0001dd7998,6439161b532c4e05e7b6414f,2023-04-14_10h00.27.140,PRaM,2021.2.3,Win32,59.97720866,61b8f3437b89212fae0dfadf
6,2.9094,space,2.0824,0,77,77,127,1,,,5a99a3154eecca0001dd7998,6439161b532c4e05e7b6414f,2023-04-14_10h00.27.140,PRaM,2021.2.3,Win32,59.97720866,61b8f3437b89212fae0dfadf
7,2.3642,space,1.0548,0,78,78,43,1,,,5a99a3154eecca0001dd7998,6439161b532c4e05e7b6414f,2023-04-14_10h00.27.140,PRaM,2021.2.3,Win32,59.97720866,61b8f3437b89212fae0dfadf
7,2.2899,space,0.9097,0,79,79,40,1,,,5a99a3154eecca0001dd7998,6439161b532c4e05e7b6414f,2023-04-14_10h00.27.140,PRaM,2021.2.3,Win32,59.97720866,61b8f3437b89212fae0dfadf
7,2.7178,space,1.4897,0,80,80,88,1,,,5a99a3154eecca0001dd7998,6439161b532c4e05e7b6414f,2023-04-14_10h00.27.140,PRaM,2021.2.3,Win32,59.97720866,61b8f3437b89212fae0dfadf
5,2.0611,space,0.6149,0,81,81,167,1,,,5a99a3154eecca0001dd7998,6439161b532c4e05e7b6414f,2023-04-14_10h00.27.140,PRaM,2021.2.3,Win32,59.97720866,61b8f3437b89212fae0dfadf
2,2.7533,space,1.4119,0,82,82,2,1,,,5a99a3154eecca0001dd7998,6439161b532c4e05e7b6414f,2023-04-14_10h00.27.140,PRaM,2021.2.3,Win32,59.97720866,61b8f3437b89212fae0dfadf
1,4.7911,space,3.6674,0,83,83,287,1,,,5a99a3154eecca0001dd7998,6439161b532c4e05e7b6414f,2023-04-14_10h00.27.140,PRaM,2021.2.3,Win32,59.97720866,61b8f3437b89212fae0dfadf
3,4.7073,space,3.4193,0,84,84,193,1,,,5a99a3154eecca0001dd7998,6439161b532c4e05e7b6414f,2023-04-14_10h00.27.140,PRaM,2021.2.3,Win32,59.97720866,61b8f3437b89212fae0dfadf
8,3.4852,space,2.6753,0,85,85,84,1,,,5a99a3154eecca0001dd7998,6439161b532c4e05e7b6414f,2023-04-14_10h00.27.140,PRaM,2021.2.3,Win32,59.97720866,61b8f3437b89212fae0dfadf
4,2.7054,space,1.387,0,86,86,282,1,,,5a99a3154eecca0001dd7998,6439161b532c4e05e7b6414f,2023-04-14_10h00.27.140,PRaM,2021.2.3,Win32,59.97720866,61b8f3437b89212fae0dfadf
6,2.4971,space,1.1627,0,87,87,165,1,,,5a99a3154eecca0001dd7998,6439161b532c4e05e7b6414f,2023-04-14_10h00.27.140,PRaM,2021.2.3,Win32,59.97720866,61b8f3437b89212fae0dfadf
9,2.431,space,1.107,0,88,88,264,1,,,5a99a3154eecca0001dd7998,6439161b532c4e05e7b6414f,2023-04-14_10h00.27.140,PRaM,2021.2.3,Win32,59.97720866,61b8f3437b89212fae0dfadf
7,2.7269,space,1.4093,0,89,89,268,1,,,5a99a3154eecca0001dd7998,6439161b532c4e05e7b6414f,2023-04-14_10h00.27.140,PRaM,2021.2.3,Win32,59.97720866,61b8f3437b89212fae0dfadf
4,1.9956,space,0.5964,0,90,90,157,1,,,5a99a3154eecca0001dd7998,6439161b532c4e05e7b6414f,2023-04-14_10h00.27.140,PRaM,2021.2.3,Win32,59.97720866,61b8f3437b89212fae0dfadf
6,2.2535,space,1.072,0,91,91,281,1,,,5a99a3154eecca0001dd7998,6439161b532c4e05e7b6414f,2023-04-14_10h00.27.140,PRaM,2021.2.3,Win32,59.97720866,61b8f3437b89212fae0dfadf
2,2.1228,space,1.4347,0,92,92,70,1,,,5a99a3154eecca0001dd7998,6439161b532c4e05e7b6414f,2023-04-14_10h00.27.140,PRaM,2021.2.3,Win32,59.97720866,61b8f3437b89212fae0dfadf
2,2.1871,space,0.7921,0,93,93,78,1,,,5a99a3154eecca0001dd7998,6439161b532c4e05e7b6414f,2023-04-14_10h00.27.140,PRaM,2021.2.3,Win32,59.97720866,61b8f3437b89212fae0dfadf
6,3.551,space,2.3328,0,94,94,162,1,,,5a99a3154eecca0001dd7998,6439161b532c4e05e7b6414f,2023-04-14_10h00.27.140,PRaM,2021.2.3,Win32,59.97720866,61b8f3437b89212fae0dfadf
7,3.6756,space,2.4211,0,95,95,11,1,,,5a99a3154eecca0001dd7998,6439161b532c4e05e7b6414f,2023-04-14_10h00.27.140,PRaM,2021.2.3,Win32,59.97720866,61b8f3437b89212fae0dfadf
7,2.74,space,1.4255,0,96,96,178,1,,,5a99a3154eecca0001dd7998,6439161b532c4e05e7b6414f,2023-04-14_10h00.27.140,PRaM,2021.2.3,Win32,59.97720866,61b8f3437b89212fae0dfadf
8,2.2119,space,0.8997,0,97,97,342,1,,,5a99a3154eecca0001dd7998,6439161b532c4e05e7b6414f,2023-04-14_10h00.27.140,PRaM,2021.2.3,Win32,59.97720866,61b8f3437b89212fae0dfadf
9,9.9556,space,9.7072,0,98,98,154,1,,,5a99a3154eecca0001dd7998,6439161b532c4e05e7b6414f,2023-04-14_10h00.27.140,PRaM,2021.2.3,Win32,59.97720866,61b8f3437b89212fae0dfadf
4,3.6194,space,2.3559,0,99,99,100,1,,,5a99a3154eecca0001dd7998,6439161b532c4e05e7b6414f,2023-04-14_10h00.27.140,PRaM,2021.2.3,Win32,59.97720866,61b8f3437b89212fae0dfadf
3,2.4241,space,1.1042,0,100,100,203,1,,,5a99a3154eecca0001dd7998,6439161b532c4e05e7b6414f,2023-04-14_10h00.27.140,PRaM,2021.2.3,Win32,59.97720866,61b8f3437b89212fae0dfadf
1,2.8619,space,1.8127,0,101,101,67,1,,,5a99a3154eecca0001dd7998,6439161b532c4e05e7b6414f,2023-04-14_10h00.27.140,PRaM,2021.2.3,Win32,59.97720866,61b8f3437b89212fae0dfadf
4,5.3242,space,4.2116,0,102,102,230,1,,,5a99a3154eecca0001dd7998,6439161b532c4e05e7b6414f,2023-04-14_10h00.27.140,PRaM,2021.2.3,Win32,59.97720866,61b8f3437b89212fae0dfadf
6,5.1365,space,3.8925,0,103,103,223,1,,,5a99a3154eecca0001dd7998,6439161b532c4e05e7b6414f,2023-04-14_10h00.27.140,PRaM,2021.2.3,Win32,59.97720866,61b8f3437b89212fae0dfadf
6,1.8254,space,0.5696,0,104,104,345,1,,,5a99a3154eecca0001dd7998,6439161b532c4e05e7b6414f,2023-04-14_10h00.27.140,PRaM,2021.2.3,Win32,59.97720866,61b8f3437b89212fae0dfadf
4,2.3534,space,1.2179,0,105,105,349,1,,,5a99a3154eecca0001dd7998,6439161b532c4e05e7b6414f,2023-04-14_10h00.27.140,PRaM,2021.2.3,Win32,59.97720866,61b8f3437b89212fae0dfadf
3,7.4254,space,6.2678,0,106,106,234,1,,,5a99a3154eecca0001dd7998,6439161b532c4e05e7b6414f,2023-04-14_10h00.27.140,PRaM,2021.2.3,Win32,59.97720866,61b8f3437b89212fae0dfadf
2,6.5733,space,5.4718,0,107,107,265,1,,,5a99a3154eecca0001dd7998,6439161b532c4e05e7b6414f,2023-04-14_10h00.27.140,PRaM,2021.2.3,Win32,59.97720866,61b8f3437b89212fae0dfadf
5,3.7259,space,3.1784,0,108,108,341,1,,,5a99a3154eecca0001dd7998,6439161b532c4e05e7b6414f,2023-04-14_10h00.27.140,PRaM,2021.2.3,Win32,59.97720866,61b8f3437b89212fae0dfadf
8,5.7395,space,4.6155,0,109,109,344,1,,,5a99a3154eecca0001dd7998,6439161b532c4e05e7b6414f,2023-04-14_10h00.27.140,PRaM,2021.2.3,Win32,59.97720866,61b8f3437b89212fae0dfadf
4,2.6309,space,1.444,0,110,110,300,1,,,5a99a3154eecca0001dd7998,6439161b532c4e05e7b6414f,2023-04-14_10h00.27.140,PRaM,2021.2.3,Win32,59.97720866,61b8f3437b89212fae0dfadf
1,4.5704,space,3.864,0,111,111,330,1,,,5a99a3154eecca0001dd7998,6439161b532c4e05e7b6414f,2023-04-14_10h00.27.140,PRaM,2021.2.3,Win32,59.97720866,61b8f3437b89212fae0dfadf
4,3.9329,space,2.8386,0,112,112,327,1,,,5a99a3154eecca0001dd7998,6439161b532c4e05e7b6414f,2023-04-14_10h00.27.140,PRaM,2021.2.3,Win32,59.97720866,61b8f3437b89212fae0dfadf
7,5.1587,space,3.8596,0,113,113,117,1,,,5a99a3154eecca0001dd7998,6439161b532c4e05e7b6414f,2023-04-14_10h00.27.140,PRaM,2021.2.3,Win32,59.97720866,61b8f3437b89212fae0dfadf
1,3.4037,space,2.1717,0,114,114,251,1,,,5a99a3154eecca0001dd7998,6439161b532c4e05e7b6414f,2023-04-14_10h00.27.140,PRaM,2021.2.3,Win32,59.97720866,61b8f3437b89212fae0dfadf
3,2.177,space,0.888,0,115,115,170,1,,,5a99a3154eecca0001dd7998,6439161b532c4e05e7b6414f,2023-04-14_10h00.27.140,PRaM,2021.2.3,Win32,59.97720866,61b8f3437b89212fae0dfadf
6,3.0778,space,1.8102,0,116,116,336,1,,,5a99a3154eecca0001dd7998,6439161b532c4e05e7b6414f,2023-04-14_10h00.27.140,PRaM,2021.2.3,Win32,59.97720866,61b8f3437b89212fae0dfadf
6,2.1055,space,0.918,0,117,117,33,1,,,5a99a3154eecca0001dd7998,6439161b532c4e05e7b6414f,2023-04-14_10h00.27.140,PRaM,2021.2.3,Win32,59.97720866,61b8f3437b89212fae0dfadf
7,12.3386,space,11.1243,0,118,118,80,1,,,5a99a3154eecca0001dd7998,6439161b532c4e05e7b6414f,2023-04-14_10h00.27.140,PRaM,2021.2.3,Win32,59.97720866,61b8f3437b89212fae0dfadf
7,11.0911,space,9.9597,0,119,119,318,1,,,5a99a3154eecca0001dd7998,6439161b532c4e05e7b6414f,2023-04-14_10h00.27.140,PRaM,2021.2.3,Win32,59.97720866,61b8f3437b89212fae0dfadf
7,2.7614,space,1.3075,0,120,120,313,1,,,5a99a3154eecca0001dd7998,6439161b532c4e05e7b6414f,2023-04-14_10h00.27.140,PRaM,2021.2.3,Win32,59.97720866,61b8f3437b89212fae0dfadf
5,2.108,space,0.6946,0,121,121,185,1,,,5a99a3154eecca0001dd7998,6439161b532c4e05e7b6414f,2023-04-14_10h00.27.140,PRaM,2021.2.3,Win32,59.97720866,61b8f3437b89212fae0dfadf
4,2.6393,space,1.3588,0,122,122,220,1,,,5a99a3154eecca0001dd7998,6439161b532c4e05e7b6414f,2023-04-14_10h00.27.140,PRaM,2021.2.3,Win32,59.97720866,61b8f3437b89212fae0dfadf
7,6.249,space,4.9218,0,123,123,156,1,,,5a99a3154eecca0001dd7998,6439161b532c4e05e7b6414f,2023-04-14_10h00.27.140,PRaM,2021.2.3,Win32,59.97720866,61b8f3437b89212fae0dfadf
5,3.1757,space,1.9973,0,124,124,189,1,,,5a99a3154eecca0001dd7998,6439161b532c4e05e7b6414f,2023-04-14_10h00.27.140,PRaM,2021.2.3,Win32,59.97720866,61b8f3437b89212fae0dfadf
9,2.9628,space,1.6811,0,125,125,192,1,,,5a99a3154eecca0001dd7998,6439161b532c4e05e7b6414f,2023-04-14_10h00.27.140,PRaM,2021.2.3,Win32,59.97720866,61b8f3437b89212fae0dfadf
4,2.1606,space,0.9382,0,126,126,144,1,,,5a99a3154eecca0001dd7998,6439161b532c4e05e7b6414f,2023-04-14_10h00.27.140,PRaM,2021.2.3,Win32,59.97720866,61b8f3437b89212fae0dfadf
9,7.2789,space,6.2382,0,127,127,114,1,,,5a99a3154eecca0001dd7998,6439161b532c4e05e7b6414f,2023-04-14_10h00.27.140,PRaM,2021.2.3,Win32,59.97720866,61b8f3437b89212fae0dfadf
8,4.0537,space,2.7171,0,128,128,12,1,,,5a99a3154eecca0001dd7998,6439161b532c4e05e7b6414f,2023-04-14_10h00.27.140,PRaM,2021.2.3,Win32,59.97720866,61b8f3437b89212fae0dfadf
8,1.6898,space,0.2657,0,129,129,145,1,,,5a99a3154eecca0001dd7998,6439161b532c4e05e7b6414f,2023-04-14_10h00.27.140,PRaM,2021.2.3,Win32,59.97720866,61b8f3437b89212fae0dfadf
9,2.0543,space,0.818,0,130,130,64,1,,,5a99a3154eecca0001dd7998,6439161b532c4e05e7b6414f,2023-04-14_10h00.27.140,PRaM,2021.2.3,Win32,59.97720866,61b8f3437b89212fae0dfadf
8,3.2216,space,1.9759,0,131,131,334,1,,,5a99a3154eecca0001dd7998,6439161b532c4e05e7b6414f,2023-04-14_10h00.27.140,PRaM,2021.2.3,Win32,59.97720866,61b8f3437b89212fae0dfadf
2,4.7046,space,3.4099,0,132,132,248,1,,,5a99a3154eecca0001dd7998,6439161b532c4e05e7b6414f,2023-04-14_10h00.27.140,PRaM,2021.2.3,Win32,59.97720866,61b8f3437b89212fae0dfadf
9,1.9202,space,0.6511,0,133,133,276,1,,,5a99a3154eecca0001dd7998,6439161b532c4e05e7b6414f,2023-04-14_10h00.27.140,PRaM,2021.2.3,Win32,59.97720866,61b8f3437b89212fae0dfadf
9,2.5788,space,1.3345,0,134,134,320,1,,,5a99a3154eecca0001dd7998,6439161b532c4e05e7b6414f,2023-04-14_10h00.27.140,PRaM,2021.2.3,Win32,59.97720866,61b8f3437b89212fae0dfadf
5,4.3535,space,2.9871,0,135,135,362,1,,,5a99a3154eecca0001dd7998,6439161b532c4e05e7b6414f,2023-04-14_10h00.27.140,PRaM,2021.2.3,Win32,59.97720866,61b8f3437b89212fae0dfadf
6,3.4048,space,2.0379,0,136,136,18,1,,,5a99a3154eecca0001dd7998,6439161b532c4e05e7b6414f,2023-04-14_10h00.27.140,PRaM,2021.2.3,Win32,59.97720866,61b8f3437b89212fae0dfadf
7,2.0218,space,0.6012,0,137,137,337,1,,,5a99a3154eecca0001dd7998,6439161b532c4e05e7b6414f,2023-04-14_10h00.27.140,PRaM,2021.2.3,Win32,59.97720866,61b8f3437b89212fae0dfadf
6,3.1879,space,1.92,0,138,138,358,1,,,5a99a3154eecca0001dd7998,6439161b532c4e05e7b6414f,2023-04-14_10h00.27.140,PRaM,2021.2.3,Win32,59.97720866,61b8f3437b89212fae0dfadf
5,3.2088,space,1.934,0,139,139,37,1,,,5a99a3154eecca0001dd7998,6439161b532c4e05e7b6414f,2023-04-14_10h00.27.140,PRaM,2021.2.3,Win32,59.97720866,61b8f3437b89212fae0dfadf
7,3.6447,space,2.7676,0,140,140,209,1,,,5a99a3154eecca0001dd7998,6439161b532c4e05e7b6414f,2023-04-14_10h00.27.140,PRaM,2021.2.3,Win32,59.97720866,61b8f3437b89212fae0dfadf
8,1.9833,space,0.5852,0,141,141,328,1,,,5a99a3154eecca0001dd7998,6439161b532c4e05e7b6414f,2023-04-14_10h00.27.140,PRaM,2021.2.3,Win32,59.97720866,61b8f3437b89212fae0dfadf
9,1.6829,space,0.4331,0,142,142,16,1,,,5a99a3154eecca0001dd7998,6439161b532c4e05e7b6414f,2023-04-14_10h00.27.140,PRaM,2021.2.3,Win32,59.97720866,61b8f3437b89212fae0dfadf
9,1.5826,space,1.0328,0,143,143,255,1,,,5a99a3154eecca0001dd7998,6439161b532c4e05e7b6414f,2023-04-14_10h00.27.140,PRaM,2021.2.3,Win32,59.97720866,61b8f3437b89212fae0dfadf
4,4.0113,space,2.6737,0,144,144,190,1,,,5a99a3154eecca0001dd7998,6439161b532c4e05e7b6414f,2023-04-14_10h00.27.140,PRaM,2021.2.3,Win32,59.97720866,61b8f3437b89212fae0dfadf
9,3.0562,space,2.1252,0,145,145,363,1,,,5a99a3154eecca0001dd7998,6439161b532c4e05e7b6414f,2023-04-14_10h00.27.140,PRaM,2021.2.3,Win32,59.97720866,61b8f3437b89212fae0dfadf
2,3.6205,space,2.2453,0,146,146,27,1,,,5a99a3154eecca0001dd7998,6439161b532c4e05e7b6414f,2023-04-14_10h00.27.140,PRaM,2021.2.3,Win32,59.97720866,61b8f3437b89212fae0dfadf
9,3.5463,space,2.1087,0,147,147,301,1,,,5a99a3154eecca0001dd7998,6439161b532c4e05e7b6414f,2023-04-14_10h00.27.140,PRaM,2021.2.3,Win32,59.97720866,61b8f3437b89212fae0dfadf
9,2.5555,space,1.1009,0,148,148,280,1,,,5a99a3154eecca0001dd7998,6439161b532c4e05e7b6414f,2023-04-14_10h00.27.140,PRaM,2021.2.3,Win32,59.97720866,61b8f3437b89212fae0dfadf
5,1.8894,space,0.5001,0,149,149,52,1,,,5a99a3154eecca0001dd7998,6439161b532c4e05e7b6414f,2023-04-14_10h00.27.140,PRaM,2021.2.3,Win32,59.97720866,61b8f3437b89212fae0dfadf
9,2.4558,space,2.1322,0,150,150,372,1,,,5a99a3154eecca0001dd7998,6439161b532c4e05e7b6414f,2023-04-14_10h00.27.140,PRaM,2021.2.3,Win32,59.97720866,61b8f3437b89212fae0dfadf
1,2.6322,space,1.8379,0,151,151,9,1,,,5a99a3154eecca0001dd7998,6439161b532c4e05e7b6414f,2023-04-14_10h00.27.140,PRaM,2021.2.3,Win32,59.97720866,61b8f3437b89212fae0dfadf
2,3.6642,space,2.3679,0,152,152,256,1,,,5a99a3154eecca0001dd7998,6439161b532c4e05e7b6414f,2023-04-14_10h00.27.140,PRaM,2021.2.3,Win32,59.97720866,61b8f3437b89212fae0dfadf
7,2.1388,space,0.7412,0,153,153,7,1,,,5a99a3154eecca0001dd7998,6439161b532c4e05e7b6414f,2023-04-14_10h00.27.140,PRaM,2021.2.3,Win32,59.97720866,61b8f3437b89212fae0dfadf
6,1.6723,space,0.1262,0,154,154,332,1,,,5a99a3154eecca0001dd7998,6439161b532c4e05e7b6414f,2023-04-14_10h00.27.140,PRaM,2021.2.3,Win32,59.97720866,61b8f3437b89212fae0dfadf
6,1.7563,space,0.4334,0,155,155,299,1,,,5a99a3154eecca0001dd7998,6439161b532c4e05e7b6414f,2023-04-14_10h00.27.140,PRaM,2021.2.3,Win32,59.97720866,61b8f3437b89212fae0dfadf
8,2.0569,space,0.6678,0,156,156,259,1,,,5a99a3154eecca0001dd7998,6439161b532c4e05e7b6414f,2023-04-14_10h00.27.140,PRaM,2021.2.3,Win32,59.97720866,61b8f3437b89212fae0dfadf
4,2.4733,space,1.1175,0,157,157,92,1,,,5a99a3154eecca0001dd7998,6439161b532c4e05e7b6414f,2023-04-14_10h00.27.140,PRaM,2021.2.3,Win32,59.97720866,61b8f3437b89212fae0dfadf
5,2.1823,space,0.7077,0,158,158,169,1,,,5a99a3154eecca0001dd7998,6439161b532c4e05e7b6414f,2023-04-14_10h00.27.140,PRaM,2021.2.3,Win32,59.97720866,61b8f3437b89212fae0dfadf
9,2.1548,space,0.7244,0,159,159,225,1,,,5a99a3154eecca0001dd7998,6439161b532c4e05e7b6414f,2023-04-14_10h00.27.140,PRaM,2021.2.3,Win32,59.97720866,61b8f3437b89212fae0dfadf
2,1.9554,space,0.4745,0,160,160,35,1,,,5a99a3154eecca0001dd7998,6439161b532c4e05e7b6414f,2023-04-14_10h00.27.140,PRaM,2021.2.3,Win32,59.97720866,61b8f3437b89212fae0dfadf
2,2.3573,space,0.8089,0,161,161,129,1,,,5a99a3154eecca0001dd7998,6439161b532c4e05e7b6414f,2023-04-14_10h00.27.140,PRaM,2021.2.3,Win32,59.97720866,61b8f3437b89212fae0dfadf
7,2.3795,space,1.1004,0,162,162,149,1,,,5a99a3154eecca0001dd7998,6439161b532c4e05e7b6414f,2023-04-14_10h00.27.140,PRaM,2021.2.3,Win32,59.97720866,61b8f3437b89212fae0dfadf
2,2.5884,space,1.199,0,163,163,217,1,,,5a99a3154eecca0001dd7998,6439161b532c4e05e7b6414f,2023-04-14_10h00.27.140,PRaM,2021.2.3,Win32,59.97720866,61b8f3437b89212fae0dfadf
5,2.4922,space,0.9673,0,164,164,351,1,,,5a99a3154eecca0001dd7998,6439161b532c4e05e7b6414f,2023-04-14_10h00.27.140,PRaM,2021.2.3,Win32,59.97720866,61b8f3437b89212fae0dfadf
5,1.6903,space,0.2741,0,165,165,272,1,,,5a99a3154eecca0001dd7998,6439161b532c4e05e7b6414f,2023-04-14_10h00.27.140,PRaM,2021.2.3,Win32,59.97720866,61b8f3437b89212fae0dfadf
6,2.0795,space,0.7173,0,166,166,177,1,,,5a99a3154eecca0001dd7998,6439161b532c4e05e7b6414f,2023-04-14_10h00.27.140,PRaM,2021.2.3,Win32,59.97720866,61b8f3437b89212fae0dfadf
7,1.889,space,0.4101,0,167,167,173,1,,,5a99a3154eecca0001dd7998,6439161b532c4e05e7b6414f,2023-04-14_10h00.27.140,PRaM,2021.2.3,Win32,59.97720866,61b8f3437b89212fae0dfadf
8,4.1226,space,2.7498,0,168,168,196,1,,,5a99a3154eecca0001dd7998,6439161b532c4e05e7b6414f,2023-04-14_10h00.27.140,PRaM,2021.2.3,Win32,59.97720866,61b8f3437b89212fae0dfadf
5,3.267,space,1.8178,0,169,169,133,1,,,5a99a3154eecca0001dd7998,6439161b532c4e05e7b6414f,2023-04-14_10h00.27.140,PRaM,2021.2.3,Win32,59.97720866,61b8f3437b89212fae0dfadf
9,1.8876,space,0.4078,0,170,170,20,1,,,5a99a3154eecca0001dd7998,6439161b532c4e05e7b6414f,2023-04-14_10h00.27.140,PRaM,2021.2.3,Win32,59.97720866,61b8f3437b89212fae0dfadf
5,2.4877,space,0.8509,0,171,171,346,1,,,5a99a3154eecca0001dd7998,6439161b532c4e05e7b6414f,2023-04-14_10h00.27.140,PRaM,2021.2.3,Win32,59.97720866,61b8f3437b89212fae0dfadf
3,1.8749,space,0.4721,0,172,172,95,1,,,5a99a3154eecca0001dd7998,6439161b532c4e05e7b6414f,2023-04-14_10h00.27.140,PRaM,2021.2.3,Win32,59.97720866,61b8f3437b89212fae0dfadf
2,1.8382,space,0.226,0,173,173,68,1,,,5a99a3154eecca0001dd7998,6439161b532c4e05e7b6414f,2023-04-14_10h00.27.140,PRaM,2021.2.3,Win32,59.97720866,61b8f3437b89212fae0dfadf
4,3.1199,space,1.7366,0,174,174,109,1,,,5a99a3154eecca0001dd7998,6439161b532c4e05e7b6414f,2023-04-14_10h00.27.140,PRaM,2021.2.3,Win32,59.97720866,61b8f3437b89212fae0dfadf
2,2.6129,space,1.2214,0,175,175,312,1,,,5a99a3154eecca0001dd7998,6439161b532c4e05e7b6414f,2023-04-14_10h00.27.140,PRaM,2021.2.3,Win32,59.97720866,61b8f3437b89212fae0dfadf
6,2.4733,space,0.8133,0,176,176,62,1,,,5a99a3154eecca0001dd7998,6439161b532c4e05e7b6414f,2023-04-14_10h00.27.140,PRaM,2021.2.3,Win32,59.97720866,61b8f3437b89212fae0dfadf
5,2.3611,space,0.8826,0,177,177,261,1,,,5a99a3154eecca0001dd7998,6439161b532c4e05e7b6414f,2023-04-14_10h00.27.140,PRaM,2021.2.3,Win32,59.97720866,61b8f3437b89212fae0dfadf
3,2.223,space,0.6844,0,178,178,24,1,,,5a99a3154eecca0001dd7998,6439161b532c4e05e7b6414f,2023-04-14_10h00.27.140,PRaM,2021.2.3,Win32,59.97720866,61b8f3437b89212fae0dfadf
8,2.3965,space,0.8163,0,179,179,83,1,,,5a99a3154eecca0001dd7998,6439161b532c4e05e7b6414f,2023-04-14_10h00.27.140,PRaM,2021.2.3,Win32,59.97720866,61b8f3437b89212fae0dfadf
2,2.6352,space,1.0584,0,180,180,50,1,,,5a99a3154eecca0001dd7998,6439161b532c4e05e7b6414f,2023-04-14_10h00.27.140,PRaM,2021.2.3,Win32,59.97720866,61b8f3437b89212fae0dfadf
4,2.1087,space,0.5062,0,181,181,213,1,,,5a99a3154eecca0001dd7998,6439161b532c4e05e7b6414f,2023-04-14_10h00.27.140,PRaM,2021.2.3,Win32,59.97720866,61b8f3437b89212fae0dfadf
2,2.004,space,0.5213,0,182,182,210,1,,,5a99a3154eecca0001dd7998,6439161b532c4e05e7b6414f,2023-04-14_10h00.27.140,PRaM,2021.2.3,Win32,59.97720866,61b8f3437b89212fae0dfadf
8,1.9239,space,0.2919,0,183,183,93,1,,,5a99a3154eecca0001dd7998,6439161b532c4e05e7b6414f,2023-04-14_10h00.27.140,PRaM,2021.2.3,Win32,59.97720866,61b8f3437b89212fae0dfadf
8,1.5313,space,1.5512,0,184,184,340,1,,,5a99a3154eecca0001dd7998,6439161b532c4e05e7b6414f,2023-04-14_10h00.27.140,PRaM,2021.2.3,Win32,59.97720866,61b8f3437b89212fae0dfadf
8,4.9718,space,3.3106,0,185,185,239,1,,,5a99a3154eecca0001dd7998,6439161b532c4e05e7b6414f,2023-04-14_10h00.27.140,PRaM,2021.2.3,Win32,59.97720866,61b8f3437b89212fae0dfadf
2,2.0395,space,0.2933,0,186,186,293,1,,,5a99a3154eecca0001dd7998,6439161b532c4e05e7b6414f,2023-04-14_10h00.27.140,PRaM,2021.2.3,Win32,59.97720866,61b8f3437b89212fae0dfadf
4,3.6063,space,2.1344,0,187,187,236,1,,,5a99a3154eecca0001dd7998,6439161b532c4e05e7b6414f,2023-04-14_10h00.27.140,PRaM,2021.2.3,Win32,59.97720866,61b8f3437b89212fae0dfadf
6,1.9322,space,0.5179,0,188,188,19,1,,,5a99a3154eecca0001dd7998,6439161b532c4e05e7b6414f,2023-04-14_10h00.27.140,PRaM,2021.2.3,Win32,59.97720866,61b8f3437b89212fae0dfadf
3,4.3606,space,2.9032,0,189,189,308,1,,,5a99a3154eecca0001dd7998,6439161b532c4e05e7b6414f,2023-04-14_10h00.27.140,PRaM,2021.2.3,Win32,59.97720866,61b8f3437b89212fae0dfadf
8,3.5114,space,2.7356,0,190,190,56,1,,,5a99a3154eecca0001dd7998,6439161b532c4e05e7b6414f,2023-04-14_10h00.27.140,PRaM,2021.2.3,Win32,59.97720866,61b8f3437b89212fae0dfadf
5,6.1181,space,4.5725,0,191,191,201,1,,,5a99a3154eecca0001dd7998,6439161b532c4e05e7b6414f,2023-04-14_10h00.27.140,PRaM,2021.2.3,Win32,59.97720866,61b8f3437b89212fae0dfadf
9,3.9622,space,2.6163,0,192,192,53,1,,,5a99a3154eecca0001dd7998,6439161b532c4e05e7b6414f,2023-04-14_10h00.27.140,PRaM,2021.2.3,Win32,59.97720866,61b8f3437b89212fae0dfadf
3,2.6942,space,1.2539,0,193,193,130,1,,,5a99a3154eecca0001dd7998,6439161b532c4e05e7b6414f,2023-04-14_10h00.27.140,PRaM,2021.2.3,Win32,59.97720866,61b8f3437b89212fae0dfadf
8,2.7592,space,1.3808,0,194,194,86,1,,,5a99a3154eecca0001dd7998,6439161b532c4e05e7b6414f,2023-04-14_10h00.27.140,PRaM,2021.2.3,Win32,59.97720866,61b8f3437b89212fae0dfadf
7,3.6778,space,2.3179,0,195,195,148,1,,,5a99a3154eecca0001dd7998,6439161b532c4e05e7b6414f,2023-04-14_10h00.27.140,PRaM,2021.2.3,Win32,59.97720866,61b8f3437b89212fae0dfadf
9,2.0221,space,0.9669,0,196,196,69,1,,,5a99a3154eecca0001dd7998,6439161b532c4e05e7b6414f,2023-04-14_10h00.27.140,PRaM,2021.2.3,Win32,59.97720866,61b8f3437b89212fae0dfadf
2,1.9379,space,0.6206,0,197,197,243,1,,,5a99a3154eecca0001dd7998,6439161b532c4e05e7b6414f,2023-04-14_10h00.27.140,PRaM,2021.2.3,Win32,59.97720866,61b8f3437b89212fae0dfadf
3,2.2275,space,0.8385,0,198,198,161,1,,,5a99a3154eecca0001dd7998,6439161b532c4e05e7b6414f,2023-04-14_10h00.27.140,PRaM,2021.2.3,Win32,59.97720866,61b8f3437b89212fae0dfadf
8,2.3899,space,0.9178,0,199,199,304,1,,,5a99a3154eecca0001dd7998,6439161b532c4e05e7b6414f,2023-04-14_10h00.27.140,PRaM,2021.2.3,Win32,59.97720866,61b8f3437b89212fae0dfadf
5,2.3994,space,1.0198,0,200,200,23,1,,,5a99a3154eecca0001dd7998,6439161b532c4e05e7b6414f,2023-04-14_10h00.27.140,PRaM,2021.2.3,Win32,59.97720866,61b8f3437b89212fae0dfadf
2,2.8277,space,1.7677,0,201,201,91,1,,,5a99a3154eecca0001dd7998,6439161b532c4e05e7b6414f,2023-04-14_10h00.27.140,PRaM,2021.2.3,Win32,59.97720866,61b8f3437b89212fae0dfadf
9,5.7946,space,4.8222,0,202,202,42,1,,,5a99a3154eecca0001dd7998,6439161b532c4e05e7b6414f,2023-04-14_10h00.27.140,PRaM,2021.2.3,Win32,59.97720866,61b8f3437b89212fae0dfadf
1,3.4131,space,2.3239,0,203,203,218,1,,,5a99a3154eecca0001dd7998,6439161b532c4e05e7b6414f,2023-04-14_10h00.27.140,PRaM,2021.2.3,Win32,59.97720866,61b8f3437b89212fae0dfadf
1,3.6218,space,2.551,0,204,204,247,1,,,5a99a3154eecca0001dd7998,6439161b532c4e05e7b6414f,2023-04-14_10h00.27.140,PRaM,2021.2.3,Win32,59.97720866,61b8f3437b89212fae0dfadf
2,2.4572,space,1.218,0,205,205,250,1,,,5a99a3154eecca0001dd7998,6439161b532c4e05e7b6414f,2023-04-14_10h00.27.140,PRaM,2021.2.3,Win32,59.97720866,61b8f3437b89212fae0dfadf
3,3.0377,space,1.6931,0,206,206,252,1,,,5a99a3154eecca0001dd7998,6439161b532c4e05e7b6414f,2023-04-14_10h00.27.140,PRaM,2021.2.3,Win32,59.97720866,61b8f3437b89212fae0dfadf
9,2.4953,space,1.2355,0,207,207,274,1,,,5a99a3154eecca0001dd7998,6439161b532c4e05e7b6414f,2023-04-14_10h00.27.140,PRaM,2021.2.3,Win32,59.97720866,61b8f3437b89212fae0dfadf
5,1.7555,space,0.4169,0,208,208,286,1,,,5a99a3154eecca0001dd7998,6439161b532c4e05e7b6414f,2023-04-14_10h00.27.140,PRaM,2021.2.3,Win32,59.97720866,61b8f3437b89212fae0dfadf
8,4.4653,space,3.1837,0,209,209,74,1,,,5a99a3154eecca0001dd7998,6439161b532c4e05e7b6414f,2023-04-14_10h00.27.140,PRaM,2021.2.3,Win32,59.97720866,61b8f3437b89212fae0dfadf
9,4.0117,space,2.9921,0,210,210,208,1,,,5a99a3154eecca0001dd7998,6439161b532c4e05e7b6414f,2023-04-14_10h00.27.140,PRaM,2021.2.3,Win32,59.97720866,61b8f3437b89212fae0dfadf
6,2.4783,space,1.1501,0,211,211,29,1,,,5a99a3154eecca0001dd7998,6439161b532c4e05e7b6414f,2023-04-14_10h00.27.140,PRaM,2021.2.3,Win32,59.97720866,61b8f3437b89212fae0dfadf
7,3.0484,space,1.893,0,212,212,105,1,,,5a99a3154eecca0001dd7998,6439161b532c4e05e7b6414f,2023-04-14_10h00.27.140,PRaM,2021.2.3,Win32,59.97720866,61b8f3437b89212fae0dfadf
9,2.0937,space,0.9103,0,213,213,323,1,,,5a99a3154eecca0001dd7998,6439161b532c4e05e7b6414f,2023-04-14_10h00.27.140,PRaM,2021.2.3,Win32,59.97720866,61b8f3437b89212fae0dfadf
9,2.9986,space,1.7549,0,214,214,254,1,,,5a99a3154eecca0001dd7998,6439161b532c4e05e7b6414f,2023-04-14_10h00.27.140,PRaM,2021.2.3,Win32,59.97720866,61b8f3437b89212fae0dfadf
2,2.3952,space,1.1407,0,215,215,15,1,,,5a99a3154eecca0001dd7998,6439161b532c4e05e7b6414f,2023-04-14_10h00.27.140,PRaM,2021.2.3,Win32,59.97720866,61b8f3437b89212fae0dfadf
3,2.8817,space,1.6757,0,216,216,82,1,,,5a99a3154eecca0001dd7998,6439161b532c4e05e7b6414f,2023-04-14_10h00.27.140,PRaM,2021.2.3,Win32,59.97720866,61b8f3437b89212fae0dfadf
2,2.0219,space,0.6255,0,217,217,103,1,,,5a99a3154eecca0001dd7998,6439161b532c4e05e7b6414f,2023-04-14_10h00.27.140,PRaM,2021.2.3,Win32,59.97720866,61b8f3437b89212fae0dfadf
1,2.0077,space,0.7152,0,218,218,107,1,,,5a99a3154eecca0001dd7998,6439161b532c4e05e7b6414f,2023-04-14_10h00.27.140,PRaM,2021.2.3,Win32,59.97720866,61b8f3437b89212fae0dfadf
1,5.2596,space,3.9849,0,219,219,65,1,,,5a99a3154eecca0001dd7998,6439161b532c4e05e7b6414f,2023-04-14_10h00.27.140,PRaM,2021.2.3,Win32,59.97720866,61b8f3437b89212fae0dfadf
9,2.4448,space,1.134,0,220,220,335,1,,,5a99a3154eecca0001dd7998,6439161b532c4e05e7b6414f,2023-04-14_10h00.27.140,PRaM,2021.2.3,Win32,59.97720866,61b8f3437b89212fae0dfadf
6,2.3879,space,1.0497,0,221,221,249,1,,,5a99a3154eecca0001dd7998,6439161b532c4e05e7b6414f,2023-04-14_10h00.27.140,PRaM,2021.2.3,Win32,59.97720866,61b8f3437b89212fae0dfadf
8,4.9777,space,3.8698,0,222,222,288,1,,,5a99a3154eecca0001dd7998,6439161b532c4e05e7b6414f,2023-04-14_10h00.27.140,PRaM,2021.2.3,Win32,59.97720866,61b8f3437b89212fae0dfadf
6,2.5777,space,2.467,0,223,223,163,1,,,5a99a3154eecca0001dd7998,6439161b532c4e05e7b6414f,2023-04-14_10h00.27.140,PRaM,2021.2.3,Win32,59.97720866,61b8f3437b89212fae0dfadf
6,5.7094,space,4.3187,0,224,224,139,1,,,5a99a3154eecca0001dd7998,6439161b532c4e05e7b6414f,2023-04-14_10h00.27.140,PRaM,2021.2.3,Win32,59.97720866,61b8f3437b89212fae0dfadf
8,3.3654,space,2.1828,0,225,225,205,1,,,5a99a3154eecca0001dd7998,6439161b532c4e05e7b6414f,2023-04-14_10h00.27.140,PRaM,2021.2.3,Win32,59.97720866,61b8f3437b89212fae0dfadf
2,2.5192,space,1.1732,0,226,226,231,1,,,5a99a3154eecca0001dd7998,6439161b532c4e05e7b6414f,2023-04-14_10h00.27.140,PRaM,2021.2.3,Win32,59.97720866,61b8f3437b89212fae0dfadf
6,2.3285,space,0.8609,0,227,227,45,1,,,5a99a3154eecca0001dd7998,6439161b532c4e05e7b6414f,2023-04-14_10h00.27.140,PRaM,2021.2.3,Win32,59.97720866,61b8f3437b89212fae0dfadf
5,7.8198,space,8.0331,0,228,228,6,1,,,5a99a3154eecca0001dd7998,6439161b532c4e05e7b6414f,2023-04-14_10h00.27.140,PRaM,2021.2.3,Win32,59.97720866,61b8f3437b89212fae0dfadf
3,2.7861,space,1.3883,0,229,229,141,1,,,5a99a3154eecca0001dd7998,6439161b532c4e05e7b6414f,2023-04-14_10h00.27.140,PRaM,2021.2.3,Win32,59.97720866,61b8f3437b89212fae0dfadf
7,2.3961,space,0.9677,0,230,230,294,1,,,5a99a3154eecca0001dd7998,6439161b532c4e05e7b6414f,2023-04-14_10h00.27.140,PRaM,2021.2.3,Win32,59.97720866,61b8f3437b89212fae0dfadf
6,4.7094,space,3.2498,0,231,231,175,1,,,5a99a3154eecca0001dd7998,6439161b532c4e05e7b6414f,2023-04-14_10h00.27.140,PRaM,2021.2.3,Win32,59.97720866,61b8f3437b89212fae0dfadf
9,6.244,space,4.9514,0,232,232,61,1,,,5a99a3154eecca0001dd7998,6439161b532c4e05e7b6414f,2023-04-14_10h00.27.140,PRaM,2021.2.3,Win32,59.97720866,61b8f3437b89212fae0dfadf
5,2.9391,space,1.4849,0,233,233,206,1,,,5a99a3154eecca0001dd7998,6439161b532c4e05e7b6414f,2023-04-14_10h00.27.140,PRaM,2021.2.3,Win32,59.97720866,61b8f3437b89212fae0dfadf
9,2.4099,space,1.0529,0,234,234,60,1,,,5a99a3154eecca0001dd7998,6439161b532c4e05e7b6414f,2023-04-14_10h00.27.140,PRaM,2021.2.3,Win32,59.97720866,61b8f3437b89212fae0dfadf
6,2.3214,space,0.902,0,235,235,199,1,,,5a99a3154eecca0001dd7998,6439161b532c4e05e7b6414f,2023-04-14_10h00.27.140,PRaM,2021.2.3,Win32,59.97720866,61b8f3437b89212fae0dfadf
8,2.5824,space,1.1671,0,236,236,333,1,,,5a99a3154eecca0001dd7998,6439161b532c4e05e7b6414f,2023-04-14_10h00.27.140,PRaM,2021.2.3,Win32,59.97720866,61b8f3437b89212fae0dfadf
7,2.9028,space,1.5748,0,237,237,168,1,,,5a99a3154eecca0001dd7998,6439161b532c4e05e7b6414f,2023-04-14_10h00.27.140,PRaM,2021.2.3,Win32,59.97720866,61b8f3437b89212fae0dfadf
1,2.4788,space,1.0979,0,238,238,275,1,,,5a99a3154eecca0001dd7998,6439161b532c4e05e7b6414f,2023-04-14_10h00.27.140,PRaM,2021.2.3,Win32,59.97720866,61b8f3437b89212fae0dfadf
2,2.2627,space,0.9211,0,239,239,188,1,,,5a99a3154eecca0001dd7998,6439161b532c4e05e7b6414f,2023-04-14_10h00.27.140,PRaM,2021.2.3,Win32,59.97720866,61b8f3437b89212fae0dfadf
3,2.827,space,1.4348,0,240,240,48,1,,,5a99a3154eecca0001dd7998,6439161b532c4e05e7b6414f,2023-04-14_10h00.27.140,PRaM,2021.2.3,Win32,59.97720866,61b8f3437b89212fae0dfadf
2,2.5543,space,1.1021,0,241,241,184,1,,,5a99a3154eecca0001dd7998,6439161b532c4e05e7b6414f,2023-04-14_10h00.27.140,PRaM,2021.2.3,Win32,59.97720866,61b8f3437b89212fae0dfadf
6,2.9231,space,1.5099,0,242,242,226,1,,,5a99a3154eecca0001dd7998,6439161b532c4e05e7b6414f,2023-04-14_10h00.27.140,PRaM,2021.2.3,Win32,59.97720866,61b8f3437b89212fae0dfadf
3,3.4777,space,2.038,0,243,243,125,1,,,5a99a3154eecca0001dd7998,6439161b532c4e05e7b6414f,2023-04-14_10h00.27.140,PRaM,2021.2.3,Win32,59.97720866,61b8f3437b89212fae0dfadf
2,3.1365,space,1.7021,0,244,244,28,1,,,5a99a3154eecca0001dd7998,6439161b532c4e05e7b6414f,2023-04-14_10h00.27.140,PRaM,2021.2.3,Win32,59.97720866,61b8f3437b89212fae0dfadf
9,6.3665,space,5.0821,0,245,245,118,1,,,5a99a3154eecca0001dd7998,6439161b532c4e05e7b6414f,2023-04-14_10h00.27.140,PRaM,2021.2.3,Win32,59.97720866,61b8f3437b89212fae0dfadf
3,2.3064,space,0.9183,0,246,246,269,1,,,5a99a3154eecca0001dd7998,6439161b532c4e05e7b6414f,2023-04-14_10h00.27.140,PRaM,2021.2.3,Win32,59.97720866,61b8f3437b89212fae0dfadf
1,3.1471,space,1.7647,0,247,247,108,1,,,5a99a3154eecca0001dd7998,6439161b532c4e05e7b6414f,2023-04-14_10h00.27.140,PRaM,2021.2.3,Win32,59.97720866,61b8f3437b89212fae0dfadf
7,3.7075,space,2.2267,0,248,248,307,1,,,5a99a3154eecca0001dd7998,6439161b532c4e05e7b6414f,2023-04-14_10h00.27.140,PRaM,2021.2.3,Win32,59.97720866,61b8f3437b89212fae0dfadf
1,3.2891,space,1.8719,0,249,249,235,1,,,5a99a3154eecca0001dd7998,6439161b532c4e05e7b6414f,2023-04-14_10h00.27.140,PRaM,2021.2.3,Win32,59.97720866,61b8f3437b89212fae0dfadf
2,1.842,space,0.3886,0,250,250,292,1,,,5a99a3154eecca0001dd7998,6439161b532c4e05e7b6414f,2023-04-14_10h00.27.140,PRaM,2021.2.3,Win32,59.97720866,61b8f3437b89212fae0dfadf
8,3.9976,space,2.6506,0,251,251,211,1,,,5a99a3154eecca0001dd7998,6439161b532c4e05e7b6414f,2023-04-14_10h00.27.140,PRaM,2021.2.3,Win32,59.97720866,61b8f3437b89212fae0dfadf
9,3.1827,space,1.7905,0,252,252,186,1,,,5a99a3154eecca0001dd7998,6439161b532c4e05e7b6414f,2023-04-14_10h00.27.140,PRaM,2021.2.3,Win32,59.97720866,61b8f3437b89212fae0dfadf
6,6.2783,space,4.8172,0,253,253,182,1,,,5a99a3154eecca0001dd7998,6439161b532c4e05e7b6414f,2023-04-14_10h00.27.140,PRaM,2021.2.3,Win32,59.97720866,61b8f3437b89212fae0dfadf
4,6.1438,space,6.6258,0,254,254,266,1,,,5a99a3154eecca0001dd7998,6439161b532c4e05e7b6414f,2023-04-14_10h00.27.140,PRaM,2021.2.3,Win32,59.97720866,61b8f3437b89212fae0dfadf
2,4.854,space,3.4893,0,255,255,240,1,,,5a99a3154eecca0001dd7998,6439161b532c4e05e7b6414f,2023-04-14_10h00.27.140,PRaM,2021.2.3,Win32,59.97720866,61b8f3437b89212fae0dfadf
7,2.0716,space,0.6498,0,256,256,279,1,,,5a99a3154eecca0001dd7998,6439161b532c4e05e7b6414f,2023-04-14_10h00.27.140,PRaM,2021.2.3,Win32,59.97720866,61b8f3437b89212fae0dfadf
1,2.1716,space,1.8342,0,257,257,36,1,,,5a99a3154eecca0001dd7998,6439161b532c4e05e7b6414f,2023-04-14_10h00.27.140,PRaM,2021.2.3,Win32,59.97720866,61b8f3437b89212fae0dfadf
5,10.0513,space,8.633,0,258,258,371,1,,,5a99a3154eecca0001dd7998,6439161b532c4e05e7b6414f,2023-04-14_10h00.27.140,PRaM,2021.2.3,Win32,59.97720866,61b8f3437b89212fae0dfadf
6,4.6609,space,3.4042,0,259,259,258,1,,,5a99a3154eecca0001dd7998,6439161b532c4e05e7b6414f,2023-04-14_10h00.27.140,PRaM,2021.2.3,Win32,59.97720866,61b8f3437b89212fae0dfadf
2,4.1283,space,3.2181,0,260,260,54,1,,,5a99a3154eecca0001dd7998,6439161b532c4e05e7b6414f,2023-04-14_10h00.27.140,PRaM,2021.2.3,Win32,59.97720866,61b8f3437b89212fae0dfadf
3,5.6047,space,4.2504,0,261,261,111,1,,,5a99a3154eecca0001dd7998,6439161b532c4e05e7b6414f,2023-04-14_10h00.27.140,PRaM,2021.2.3,Win32,59.97720866,61b8f3437b89212fae0dfadf
8,6.5989,space,5.2513,0,262,262,4,1,,,5a99a3154eecca0001dd7998,6439161b532c4e05e7b6414f,2023-04-14_10h00.27.140,PRaM,2021.2.3,Win32,59.97720866,61b8f3437b89212fae0dfadf
9,3.0721,space,1.7013,0,263,263,326,1,,,5a99a3154eecca0001dd7998,6439161b532c4e05e7b6414f,2023-04-14_10h00.27.140,PRaM,2021.2.3,Win32,59.97720866,61b8f3437b89212fae0dfadf
8,3.0319,space,1.6395,0,264,264,228,1,,,5a99a3154eecca0001dd7998,6439161b532c4e05e7b6414f,2023-04-14_10h00.27.140,PRaM,2021.2.3,Win32,59.97720866,61b8f3437b89212fae0dfadf
8,2.2311,space,0.7885,0,265,265,221,1,,,5a99a3154eecca0001dd7998,6439161b532c4e05e7b6414f,2023-04-14_10h00.27.140,PRaM,2021.2.3,Win32,59.97720866,61b8f3437b89212fae0dfadf
5,3.4286,space,1.9363,0,266,266,352,1,,,5a99a3154eecca0001dd7998,6439161b532c4e05e7b6414f,2023-04-14_10h00.27.140,PRaM,2021.2.3,Win32,59.97720866,61b8f3437b89212fae0dfadf
3,1.8677,space,0.3673,0,267,267,359,1,,,5a99a3154eecca0001dd7998,6439161b532c4e05e7b6414f,2023-04-14_10h00.27.140,PRaM,2021.2.3,Win32,59.97720866,61b8f3437b89212fae0dfadf
2,1.9562,space,0.4517,0,268,268,55,1,,,5a99a3154eecca0001dd7998,6439161b532c4e05e7b6414f,2023-04-14_10h00.27.140,PRaM,2021.2.3,Win32,59.97720866,61b8f3437b89212fae0dfadf
9,4.8792,space,3.4834,0,269,269,317,1,,,5a99a3154eecca0001dd7998,6439161b532c4e05e7b6414f,2023-04-14_10h00.27.140,PRaM,2021.2.3,Win32,59.97720866,61b8f3437b89212fae0dfadf
5,4.1731,space,2.758,0,270,270,322,1,,,5a99a3154eecca0001dd7998,6439161b532c4e05e7b6414f,2023-04-14_10h00.27.140,PRaM,2021.2.3,Win32,59.97720866,61b8f3437b89212fae0dfadf
4,2.0789,space,0.6492,0,271,271,94,1,,,5a99a3154eecca0001dd7998,6439161b532c4e05e7b6414f,2023-04-14_10h00.27.140,PRaM,2021.2.3,Win32,59.97720866,61b8f3437b89212fae0dfadf
5,2.5583,space,1.0666,0,272,272,160,1,,,5a99a3154eecca0001dd7998,6439161b532c4e05e7b6414f,2023-04-14_10h00.27.140,PRaM,2021.2.3,Win32,59.97720866,61b8f3437b89212fae0dfadf
9,2.3421,space,0.8671,0,273,273,59,1,,,5a99a3154eecca0001dd7998,6439161b532c4e05e7b6414f,2023-04-14_10h00.27.140,PRaM,2021.2.3,Win32,59.97720866,61b8f3437b89212fae0dfadf
7,2.1626,space,0.69,0,274,274,32,1,,,5a99a3154eecca0001dd7998,6439161b532c4e05e7b6414f,2023-04-14_10h00.27.140,PRaM,2021.2.3,Win32,59.97720866,61b8f3437b89212fae0dfadf
5,2.0869,space,0.5839,0,275,275,367,1,,,5a99a3154eecca0001dd7998,6439161b532c4e05e7b6414f,2023-04-14_10h00.27.140,PRaM,2021.2.3,Win32,59.97720866,61b8f3437b89212fae0dfadf
1,2.9125,space,1.6679,0,276,276,106,1,,,5a99a3154eecca0001dd7998,6439161b532c4e05e7b6414f,2023-04-14_10h00.27.140,PRaM,2021.2.3,Win32,59.97720866,61b8f3437b89212fae0dfadf
7,2.5112,space,1.0219,0,277,277,238,1,,,5a99a3154eecca0001dd7998,6439161b532c4e05e7b6414f,2023-04-14_10h00.27.140,PRaM,2021.2.3,Win32,59.97720866,61b8f3437b89212fae0dfadf
7,5.7525,space,4.6715,0,278,278,219,1,,,5a99a3154eecca0001dd7998,6439161b532c4e05e7b6414f,2023-04-14_10h00.27.140,PRaM,2021.2.3,Win32,59.97720866,61b8f3437b89212fae0dfadf
8,4.8189,space,3.6339,0,279,279,143,1,,,5a99a3154eecca0001dd7998,6439161b532c4e05e7b6414f,2023-04-14_10h00.27.140,PRaM,2021.2.3,Win32,59.97720866,61b8f3437b89212fae0dfadf
5,2.5835,space,1.0906,0,280,280,253,1,,,5a99a3154eecca0001dd7998,6439161b532c4e05e7b6414f,2023-04-14_10h00.27.140,PRaM,2021.2.3,Win32,59.97720866,61b8f3437b89212fae0dfadf
5,2.3638,space,0.8204,0,281,281,224,1,,,5a99a3154eecca0001dd7998,6439161b532c4e05e7b6414f,2023-04-14_10h00.27.140,PRaM,2021.2.3,Win32,59.97720866,61b8f3437b89212fae0dfadf
6,5.5409,space,4.2425,0,282,282,356,1,,,5a99a3154eecca0001dd7998,6439161b532c4e05e7b6414f,2023-04-14_10h00.27.140,PRaM,2021.2.3,Win32,59.97720866,61b8f3437b89212fae0dfadf
1,3.3643,space,1.9502,0,283,283,10,1,,,5a99a3154eecca0001dd7998,6439161b532c4e05e7b6414f,2023-04-14_10h00.27.140,PRaM,2021.2.3,Win32,59.97720866,61b8f3437b89212fae0dfadf
2,2.2386,space,0.7745,0,284,284,34,1,,,5a99a3154eecca0001dd7998,6439161b532c4e05e7b6414f,2023-04-14_10h00.27.140,PRaM,2021.2.3,Win32,59.97720866,61b8f3437b89212fae0dfadf
6,2.478,space,0.9697,0,285,285,57,1,,,5a99a3154eecca0001dd7998,6439161b532c4e05e7b6414f,2023-04-14_10h00.27.140,PRaM,2021.2.3,Win32,59.97720866,61b8f3437b89212fae0dfadf
9,2.4775,space,1.2017,0,286,286,135,1,,,5a99a3154eecca0001dd7998,6439161b532c4e05e7b6414f,2023-04-14_10h00.27.140,PRaM,2021.2.3,Win32,59.97720866,61b8f3437b89212fae0dfadf
7,2.7876,space,1.2889,0,287,287,46,1,,,5a99a3154eecca0001dd7998,6439161b532c4e05e7b6414f,2023-04-14_10h00.27.140,PRaM,2021.2.3,Win32,59.97720866,61b8f3437b89212fae0dfadf
6,2.7432,space,1.228,0,288,288,174,1,,,5a99a3154eecca0001dd7998,6439161b532c4e05e7b6414f,2023-04-14_10h00.27.140,PRaM,2021.2.3,Win32,59.97720866,61b8f3437b89212fae0dfadf
8,2.5051,space,1.0795,0,289,289,370,1,,,5a99a3154eecca0001dd7998,6439161b532c4e05e7b6414f,2023-04-14_10h00.27.140,PRaM,2021.2.3,Win32,59.97720866,61b8f3437b89212fae0dfadf
2,1.8696,space,0.4214,0,290,290,232,1,,,5a99a3154eecca0001dd7998,6439161b532c4e05e7b6414f,2023-04-14_10h00.27.140,PRaM,2021.2.3,Win32,59.97720866,61b8f3437b89212fae0dfadf
9,3.819,space,2.4444,0,291,291,51,1,,,5a99a3154eecca0001dd7998,6439161b532c4e05e7b6414f,2023-04-14_10h00.27.140,PRaM,2021.2.3,Win32,59.97720866,61b8f3437b89212fae0dfadf
5,1.8396,space,0.3237,0,292,292,376,1,,,5a99a3154eecca0001dd7998,6439161b532c4e05e7b6414f,2023-04-14_10h00.27.140,PRaM,2021.2.3,Win32,59.97720866,61b8f3437b89212fae0dfadf
8,1.8092,space,0.2906,0,293,293,277,1,,,5a99a3154eecca0001dd7998,6439161b532c4e05e7b6414f,2023-04-14_10h00.27.140,PRaM,2021.2.3,Win32,59.97720866,61b8f3437b89212fae0dfadf
8,3.9781,space,2.6417,0,294,294,319,1,,,5a99a3154eecca0001dd7998,6439161b532c4e05e7b6414f,2023-04-14_10h00.27.140,PRaM,2021.2.3,Win32,59.97720866,61b8f3437b89212fae0dfadf
6,2.0228,space,0.5566,0,295,295,181,1,,,5a99a3154eecca0001dd7998,6439161b532c4e05e7b6414f,2023-04-14_10h00.27.140,PRaM,2021.2.3,Win32,59.97720866,61b8f3437b89212fae0dfadf
5,2.9222,space,1.5186,0,296,296,216,1,,,5a99a3154eecca0001dd7998,6439161b532c4e05e7b6414f,2023-04-14_10h00.27.140,PRaM,2021.2.3,Win32,59.97720866,61b8f3437b89212fae0dfadf
8,2.055,space,0.5717,0,297,297,136,1,,,5a99a3154eecca0001dd7998,6439161b532c4e05e7b6414f,2023-04-14_10h00.27.140,PRaM,2021.2.3,Win32,59.97720866,61b8f3437b89212fae0dfadf
9,1.8579,space,0.7353,0,298,298,38,1,,,5a99a3154eecca0001dd7998,6439161b532c4e05e7b6414f,2023-04-14_10h00.27.140,PRaM,2021.2.3,Win32,59.97720866,61b8f3437b89212fae0dfadf
3,2.5981,space,1.1562,0,299,299,283,1,,,5a99a3154eecca0001dd7998,6439161b532c4e05e7b6414f,2023-04-14_10h00.27.140,PRaM,2021.2.3,Win32,59.97720866,61b8f3437b89212fae0dfadf
3,2.6218,space,1.4325,0,300,300,329,1,,,5a99a3154eecca0001dd7998,6439161b532c4e05e7b6414f,2023-04-14_10h00.27.140,PRaM,2021.2.3,Win32,59.97720866,61b8f3437b89212fae0dfadf
5,4.0187,space,2.618,0,301,301,44,1,,,5a99a3154eecca0001dd7998,6439161b532c4e05e7b6414f,2023-04-14_10h00.27.140,PRaM,2021.2.3,Win32,59.97720866,61b8f3437b89212fae0dfadf
8,2.4053,space,1.0974,0,302,302,267,1,,,5a99a3154eecca0001dd7998,6439161b532c4e05e7b6414f,2023-04-14_10h00.27.140,PRaM,2021.2.3,Win32,59.97720866,61b8f3437b89212fae0dfadf
7,3.5122,space,2.834,0,303,303,102,1,,,5a99a3154eecca0001dd7998,6439161b532c4e05e7b6414f,2023-04-14_10h00.27.140,PRaM,2021.2.3,Win32,59.97720866,61b8f3437b89212fae0dfadf
7,1.6219,space,0.1683,0,304,304,25,1,,,5a99a3154eecca0001dd7998,6439161b532c4e05e7b6414f,2023-04-14_10h00.27.140,PRaM,2021.2.3,Win32,59.97720866,61b8f3437b89212fae0dfadf
2,3.3511,space,1.8264,0,305,305,263,1,,,5a99a3154eecca0001dd7998,6439161b532c4e05e7b6414f,2023-04-14_10h00.27.140,PRaM,2021.2.3,Win32,59.97720866,61b8f3437b89212fae0dfadf
1,1.8743,space,0.4525,0,306,306,214,1,,,5a99a3154eecca0001dd7998,6439161b532c4e05e7b6414f,2023-04-14_10h00.27.140,PRaM,2021.2.3,Win32,59.97720866,61b8f3437b89212fae0dfadf
7,2.4549,space,0.9878,0,307,307,134,1,,,5a99a3154eecca0001dd7998,6439161b532c4e05e7b6414f,2023-04-14_10h00.27.140,PRaM,2021.2.3,Win32,59.97720866,61b8f3437b89212fae0dfadf
6,2.6609,space,1.1677,0,308,308,119,1,,,5a99a3154eecca0001dd7998,6439161b532c4e05e7b6414f,2023-04-14_10h00.27.140,PRaM,2021.2.3,Win32,59.97720866,61b8f3437b89212fae0dfadf
2,2.1487,space,0.6176,0,309,309,87,1,,,5a99a3154eecca0001dd7998,6439161b532c4e05e7b6414f,2023-04-14_10h00.27.140,PRaM,2021.2.3,Win32,59.97720866,61b8f3437b89212fae0dfadf
2,3.0426,space,1.8409,0,310,310,176,1,,,5a99a3154eecca0001dd7998,6439161b532c4e05e7b6414f,2023-04-14_10h00.27.140,PRaM,2021.2.3,Win32,59.97720866,61b8f3437b89212fae0dfadf
5,3.155,space,1.6499,0,311,311,311,1,,,5a99a3154eecca0001dd7998,6439161b532c4e05e7b6414f,2023-04-14_10h00.27.140,PRaM,2021.2.3,Win32,59.97720866,61b8f3437b89212fae0dfadf
6,1.9565,space,0.4486,0,312,312,246,1,,,5a99a3154eecca0001dd7998,6439161b532c4e05e7b6414f,2023-04-14_10h00.27.140,PRaM,2021.2.3,Win32,59.97720866,61b8f3437b89212fae0dfadf
5,3.6719,space,2.2042,0,313,313,354,1,,,5a99a3154eecca0001dd7998,6439161b532c4e05e7b6414f,2023-04-14_10h00.27.140,PRaM,2021.2.3,Win32,59.97720866,61b8f3437b89212fae0dfadf
5,3.4942,space,2.1217,0,314,314,121,1,,,5a99a3154eecca0001dd7998,6439161b532c4e05e7b6414f,2023-04-14_10h00.27.140,PRaM,2021.2.3,Win32,59.97720866,61b8f3437b89212fae0dfadf
7,3.743,space,2.3685,0,315,315,368,1,,,5a99a3154eecca0001dd7998,6439161b532c4e05e7b6414f,2023-04-14_10h00.27.140,PRaM,2021.2.3,Win32,59.97720866,61b8f3437b89212fae0dfadf
6,5.5047,space,4.0692,0,316,316,172,1,,,5a99a3154eecca0001dd7998,6439161b532c4e05e7b6414f,2023-04-14_10h00.27.140,PRaM,2021.2.3,Win32,59.97720866,61b8f3437b89212fae0dfadf
2,2.2044,space,0.9029,0,317,317,113,1,,,5a99a3154eecca0001dd7998,6439161b532c4e05e7b6414f,2023-04-14_10h00.27.140,PRaM,2021.2.3,Win32,59.97720866,61b8f3437b89212fae0dfadf
5,4.172,space,2.8106,0,318,318,21,1,,,5a99a3154eecca0001dd7998,6439161b532c4e05e7b6414f,2023-04-14_10h00.27.140,PRaM,2021.2.3,Win32,59.97720866,61b8f3437b89212fae0dfadf
9,4.2432,space,3.066,0,319,319,85,1,,,5a99a3154eecca0001dd7998,6439161b532c4e05e7b6414f,2023-04-14_10h00.27.140,PRaM,2021.2.3,Win32,59.97720866,61b8f3437b89212fae0dfadf
9,3.238,space,1.8644,0,320,320,66,1,,,5a99a3154eecca0001dd7998,6439161b532c4e05e7b6414f,2023-04-14_10h00.27.140,PRaM,2021.2.3,Win32,59.97720866,61b8f3437b89212fae0dfadf
6,4.9325,space,3.7686,0,321,321,158,1,,,5a99a3154eecca0001dd7998,6439161b532c4e05e7b6414f,2023-04-14_10h00.27.140,PRaM,2021.2.3,Win32,59.97720866,61b8f3437b89212fae0dfadf
7,1.9244,space,0.4672,0,322,322,296,1,,,5a99a3154eecca0001dd7998,6439161b532c4e05e7b6414f,2023-04-14_10h00.27.140,PRaM,2021.2.3,Win32,59.97720866,61b8f3437b89212fae0dfadf
7,3.2782,space,1.8123,0,323,323,306,1,,,5a99a3154eecca0001dd7998,6439161b532c4e05e7b6414f,2023-04-14_10h00.27.140,PRaM,2021.2.3,Win32,59.97720866,61b8f3437b89212fae0dfadf
8,2.5718,space,1.2351,0,324,324,361,1,,,5a99a3154eecca0001dd7998,6439161b532c4e05e7b6414f,2023-04-14_10h00.27.140,PRaM,2021.2.3,Win32,59.97720866,61b8f3437b89212fae0dfadf
6,2.0929,space,0.5856,0,325,325,200,1,,,5a99a3154eecca0001dd7998,6439161b532c4e05e7b6414f,2023-04-14_10h00.27.140,PRaM,2021.2.3,Win32,59.97720866,61b8f3437b89212fae0dfadf
4,2.0694,space,0.6336,0,326,326,171,1,,,5a99a3154eecca0001dd7998,6439161b532c4e05e7b6414f,2023-04-14_10h00.27.140,PRaM,2021.2.3,Win32,59.97720866,61b8f3437b89212fae0dfadf
3,2.7673,space,1.3506,0,327,327,233,1,,,5a99a3154eecca0001dd7998,6439161b532c4e05e7b6414f,2023-04-14_10h00.27.140,PRaM,2021.2.3,Win32,59.97720866,61b8f3437b89212fae0dfadf
8,2.9752,space,1.5763,0,328,328,180,1,,,5a99a3154eecca0001dd7998,6439161b532c4e05e7b6414f,2023-04-14_10h00.27.140,PRaM,2021.2.3,Win32,59.97720866,61b8f3437b89212fae0dfadf
9,4.7648,space,3.5354,0,329,329,198,1,,,5a99a3154eecca0001dd7998,6439161b532c4e05e7b6414f,2023-04-14_10h00.27.140,PRaM,2021.2.3,Win32,59.97720866,61b8f3437b89212fae0dfadf
2,3.0391,space,1.8676,0,330,330,212,1,,,5a99a3154eecca0001dd7998,6439161b532c4e05e7b6414f,2023-04-14_10h00.27.140,PRaM,2021.2.3,Win32,59.97720866,61b8f3437b89212fae0dfadf
1,3.3031,space,2.3008,0,331,331,360,1,,,5a99a3154eecca0001dd7998,6439161b532c4e05e7b6414f,2023-04-14_10h00.27.140,PRaM,2021.2.3,Win32,59.97720866,61b8f3437b89212fae0dfadf
9,4.1608,space,2.9685,0,332,332,147,1,,,5a99a3154eecca0001dd7998,6439161b532c4e05e7b6414f,2023-04-14_10h00.27.140,PRaM,2021.2.3,Win32,59.97720866,61b8f3437b89212fae0dfadf
8,2.7289,space,3.8536,0,333,333,123,1,,,5a99a3154eecca0001dd7998,6439161b532c4e05e7b6414f,2023-04-14_10h00.27.140,PRaM,2021.2.3,Win32,59.97720866,61b8f3437b89212fae0dfadf
2,2.7444,space,1.4672,0,334,334,321,1,,,5a99a3154eecca0001dd7998,6439161b532c4e05e7b6414f,2023-04-14_10h00.27.140,PRaM,2021.2.3,Win32,59.97720866,61b8f3437b89212fae0dfadf
8,3.1605,space,1.7692,0,335,335,365,1,,,5a99a3154eecca0001dd7998,6439161b532c4e05e7b6414f,2023-04-14_10h00.27.140,PRaM,2021.2.3,Win32,59.97720866,61b8f3437b89212fae0dfadf
6,2.0885,space,0.6824,0,336,336,131,1,,,5a99a3154eecca0001dd7998,6439161b532c4e05e7b6414f,2023-04-14_10h00.27.140,PRaM,2021.2.3,Win32,59.97720866,61b8f3437b89212fae0dfadf
2,2.4785,space,0.8482,0,337,337,353,1,,,5a99a3154eecca0001dd7998,6439161b532c4e05e7b6414f,2023-04-14_10h00.27.140,PRaM,2021.2.3,Win32,59.97720866,61b8f3437b89212fae0dfadf
6,1.8213,space,0.5372,0,338,338,101,1,,,5a99a3154eecca0001dd7998,6439161b532c4e05e7b6414f,2023-04-14_10h00.27.140,PRaM,2021.2.3,Win32,59.97720866,61b8f3437b89212fae0dfadf
5,5.5965,space,4.3007,0,339,339,151,1,,,5a99a3154eecca0001dd7998,6439161b532c4e05e7b6414f,2023-04-14_10h00.27.140,PRaM,2021.2.3,Win32,59.97720866,61b8f3437b89212fae0dfadf
5,3.9936,space,2.7209,0,340,340,374,1,,,5a99a3154eecca0001dd7998,6439161b532c4e05e7b6414f,2023-04-14_10h00.27.140,PRaM,2021.2.3,Win32,59.97720866,61b8f3437b89212fae0dfadf
8,2.2881,space,0.8349,0,341,341,179,1,,,5a99a3154eecca0001dd7998,6439161b532c4e05e7b6414f,2023-04-14_10h00.27.140,PRaM,2021.2.3,Win32,59.97720866,61b8f3437b89212fae0dfadf
2,2.938,space,1.5057,0,342,342,339,1,,,5a99a3154eecca0001dd7998,6439161b532c4e05e7b6414f,2023-04-14_10h00.27.140,PRaM,2021.2.3,Win32,59.97720866,61b8f3437b89212fae0dfadf
5,2.4561,space,1.0418,0,343,343,30,1,,,5a99a3154eecca0001dd7998,6439161b532c4e05e7b6414f,2023-04-14_10h00.27.140,PRaM,2021.2.3,Win32,59.97720866,61b8f3437b89212fae0dfadf
8,3.1456,space,1.7738,0,344,344,331,1,,,5a99a3154eecca0001dd7998,6439161b532c4e05e7b6414f,2023-04-14_10h00.27.140,PRaM,2021.2.3,Win32,59.97720866,61b8f3437b89212fae0dfadf
2,2.2773,space,0.9544,0,345,345,375,1,,,5a99a3154eecca0001dd7998,6439161b532c4e05e7b6414f,2023-04-14_10h00.27.140,PRaM,2021.2.3,Win32,59.97720866,61b8f3437b89212fae0dfadf
2,11.1368,space,9.8544,0,346,346,290,1,,,5a99a3154eecca0001dd7998,6439161b532c4e05e7b6414f,2023-04-14_10h00.27.140,PRaM,2021.2.3,Win32,59.97720866,61b8f3437b89212fae0dfadf
8,2.4606,space,1.0857,0,347,347,159,1,,,5a99a3154eecca0001dd7998,6439161b532c4e05e7b6414f,2023-04-14_10h00.27.140,PRaM,2021.2.3,Win32,59.97720866,61b8f3437b89212fae0dfadf
6,2.3812,space,0.9332,0,348,348,76,1,,,5a99a3154eecca0001dd7998,6439161b532c4e05e7b6414f,2023-04-14_10h00.27.140,PRaM,2021.2.3,Win32,59.97720866,61b8f3437b89212fae0dfadf
7,1.8276,space,0.4015,0,349,349,343,1,,,5a99a3154eecca0001dd7998,6439161b532c4e05e7b6414f,2023-04-14_10h00.27.140,PRaM,2021.2.3,Win32,59.97720866,61b8f3437b89212fae0dfadf
8,2.1651,space,0.859,0,350,350,350,1,,,5a99a3154eecca0001dd7998,6439161b532c4e05e7b6414f,2023-04-14_10h00.27.140,PRaM,2021.2.3,Win32,59.97720866,61b8f3437b89212fae0dfadf
6,2.8571,space,1.4221,0,351,351,303,1,,,5a99a3154eecca0001dd7998,6439161b532c4e05e7b6414f,2023-04-14_10h00.27.140,PRaM,2021.2.3,Win32,59.97720866,61b8f3437b89212fae0dfadf
4,1.9229,space,0.4167,0,352,352,262,1,,,5a99a3154eecca0001dd7998,6439161b532c4e05e7b6414f,2023-04-14_10h00.27.140,PRaM,2021.2.3,Win32,59.97720866,61b8f3437b89212fae0dfadf
5,6.0722,space,4.7749,0,353,353,260,1,,,5a99a3154eecca0001dd7998,6439161b532c4e05e7b6414f,2023-04-14_10h00.27.140,PRaM,2021.2.3,Win32,59.97720866,61b8f3437b89212fae0dfadf
6,3.0711,space,1.8198,0,354,354,26,1,,,5a99a3154eecca0001dd7998,6439161b532c4e05e7b6414f,2023-04-14_10h00.27.140,PRaM,2021.2.3,Win32,59.97720866,61b8f3437b89212fae0dfadf
2,2.476,space,1.1342,0,355,355,245,1,,,5a99a3154eecca0001dd7998,6439161b532c4e05e7b6414f,2023-04-14_10h00.27.140,PRaM,2021.2.3,Win32,59.97720866,61b8f3437b89212fae0dfadf
3,2.7189,space,1.2611,0,356,356,128,1,,,5a99a3154eecca0001dd7998,6439161b532c4e05e7b6414f,2023-04-14_10h00.27.140,PRaM,2021.2.3,Win32,59.97720866,61b8f3437b89212fae0dfadf
2,12.4287,space,11.4007,0,357,357,227,1,,,5a99a3154eecca0001dd7998,6439161b532c4e05e7b6414f,2023-04-14_10h00.27.140,PRaM,2021.2.3,Win32,59.97720866,61b8f3437b89212fae0dfadf
6,9.5953,space,8.2692,0,358,358,242,1,,,5a99a3154eecca0001dd7998,6439161b532c4e05e7b6414f,2023-04-14_10h00.27.140,PRaM,2021.2.3,Win32,59.97720866,61b8f3437b89212fae0dfadf
6,1.6622,space,0.1513,0,359,359,194,1,,,5a99a3154eecca0001dd7998,6439161b532c4e05e7b6414f,2023-04-14_10h00.27.140,PRaM,2021.2.3,Win32,59.97720866,61b8f3437b89212fae0dfadf
4,3.0717,space,1.582,0,360,360,183,1,,,5a99a3154eecca0001dd7998,6439161b532c4e05e7b6414f,2023-04-14_10h00.27.140,PRaM,2021.2.3,Win32,59.97720866,61b8f3437b89212fae0dfadf
7,2.7515,space,1.2658,0,361,361,152,1,,,5a99a3154eecca0001dd7998,6439161b532c4e05e7b6414f,2023-04-14_10h00.27.140,PRaM,2021.2.3,Win32,59.97720866,61b8f3437b89212fae0dfadf
2,2.2807,space,0.7375,0,362,362,229,1,,,5a99a3154eecca0001dd7998,6439161b532c4e05e7b6414f,2023-04-14_10h00.27.140,PRaM,2021.2.3,Win32,59.97720866,61b8f3437b89212fae0dfadf
9,6.4281,space,5.4329,0,363,363,278,1,,,5a99a3154eecca0001dd7998,6439161b532c4e05e7b6414f,2023-04-14_10h00.27.140,PRaM,2021.2.3,Win32,59.97720866,61b8f3437b89212fae0dfadf
8,1.8045,space,0.652,0,364,364,137,1,,,5a99a3154eecca0001dd7998,6439161b532c4e05e7b6414f,2023-04-14_10h00.27.140,PRaM,2021.2.3,Win32,59.97720866,61b8f3437b89212fae0dfadf
3,1.8876,space,0.4674,0,365,365,79,1,,,5a99a3154eecca0001dd7998,6439161b532c4e05e7b6414f,2023-04-14_10h00.27.140,PRaM,2021.2.3,Win32,59.97720866,61b8f3437b89212fae0dfadf
4,2.0138,space,0.599,0,366,366,126,1,,,5a99a3154eecca0001dd7998,6439161b532c4e05e7b6414f,2023-04-14_10h00.27.140,PRaM,2021.2.3,Win32,59.97720866,61b8f3437b89212fae0dfadf
5,2.7337,space,1.4419,0,367,367,164,1,,,5a99a3154eecca0001dd7998,6439161b532c4e05e7b6414f,2023-04-14_10h00.27.140,PRaM,2021.2.3,Win32,59.97720866,61b8f3437b89212fae0dfadf
2,5.494,space,4.0925,0,368,368,63,1,,,5a99a3154eecca0001dd7998,6439161b532c4e05e7b6414f,2023-04-14_10h00.27.140,PRaM,2021.2.3,Win32,59.97720866,61b8f3437b89212fae0dfadf
3,4.0782,space,2.7504,0,369,369,89,1,,,5a99a3154eecca0001dd7998,6439161b532c4e05e7b6414f,2023-04-14_10h00.27.140,PRaM,2021.2.3,Win32,59.97720866,61b8f3437b89212fae0dfadf
3,3.9002,space,2.5177,0,370,370,155,1,,,5a99a3154eecca0001dd7998,6439161b532c4e05e7b6414f,2023-04-14_10h00.27.140,PRaM,2021.2.3,Win32,59.97720866,61b8f3437b89212fae0dfadf
8,2.0135,space,0.5334,0,371,371,291,1,,,5a99a3154eecca0001dd7998,6439161b532c4e05e7b6414f,2023-04-14_10h00.27.140,PRaM,2021.2.3,Win32,59.97720866,61b8f3437b89212fae0dfadf
5,2.4706,space,1.0509,0,372,372,77,1,,,5a99a3154eecca0001dd7998,6439161b532c4e05e7b6414f,2023-04-14_10h00.27.140,PRaM,2021.2.3,Win32,59.97720866,61b8f3437b89212fae0dfadf
9,3.0997,space,1.7833,0,373,373,17,1,,,5a99a3154eecca0001dd7998,6439161b532c4e05e7b6414f,2023-04-14_10h00.27.140,PRaM,2021.2.3,Win32,59.97720866,61b8f3437b89212fae0dfadf
5,1.8415,space,0.3365,0,374,374,124,1,,,5a99a3154eecca0001dd7998,6439161b532c4e05e7b6414f,2023-04-14_10h00.27.140,PRaM,2021.2.3,Win32,59.97720866,61b8f3437b89212fae0dfadf
4,2.2216,space,0.717,0,375,375,31,1,,,5a99a3154eecca0001dd7998,6439161b532c4e05e7b6414f,2023-04-14_10h00.27.140,PRaM,2021.2.3,Win32,59.97720866,61b8f3437b89212fae0dfadf
7,5.3216,space,5.4841,0,376,376,98,1,,,5a99a3154eecca0001dd7998,6439161b532c4e05e7b6414f,2023-04-14_10h00.27.140,PRaM,2021.2.3,Win32,59.97720866,61b8f3437b89212fae0dfadf
8,3.0554,space,1.7721,0,377,377,120,1,,,5a99a3154eecca0001dd7998,6439161b532c4e05e7b6414f,2023-04-14_10h00.27.140,PRaM,2021.2.3,Win32,59.97720866,61b8f3437b89212fae0dfadf
