Rating.response,Rating.rt,EndTrial.keys,EndTrial.rt,trials.thisRepN,trials.thisTrialN,trials.thisN,trials.thisIndex,trials.ran,Pos1,Pos2,participant,session,date,expName,psychopyVersion,OS,frameRate,study_id
,,space,10.821,0,0,0,193,1,,,5a9be9db6219a30001d34f1b,61b9009dbdd9e3a3d2d1d7e2,2021-12-14_20h38.05.093,PRaM,2021.2.3,Win32,60.0240096,61b8f3437b89212fae0dfadf
,,space,12.8377,0,1,1,245,1,,,5a9be9db6219a30001d34f1b,61b9009dbdd9e3a3d2d1d7e2,2021-12-14_20h38.05.093,PRaM,2021.2.3,Win32,60.0240096,61b8f3437b89212fae0dfadf
,,space,7.2679,0,2,2,136,1,,,5a9be9db6219a30001d34f1b,61b9009dbdd9e3a3d2d1d7e2,2021-12-14_20h38.05.093,PRaM,2021.2.3,Win32,60.0240096,61b8f3437b89212fae0dfadf
,,space,0.3368,0,3,3,323,1,,,5a9be9db6219a30001d34f1b,61b9009dbdd9e3a3d2d1d7e2,2021-12-14_20h38.05.093,PRaM,2021.2.3,Win32,60.0240096,61b8f3437b89212fae0dfadf
,,space,0.4033,0,4,4,65,1,,,5a9be9db6219a30001d34f1b,61b9009dbdd9e3a3d2d1d7e2,2021-12-14_20h38.05.093,PRaM,2021.2.3,Win32,60.0240096,61b8f3437b89212fae0dfadf
,,space,1.2885,0,5,5,354,1,,,5a9be9db6219a30001d34f1b,61b9009dbdd9e3a3d2d1d7e2,2021-12-14_20h38.05.093,PRaM,2021.2.3,Win32,60.0240096,61b8f3437b89212fae0dfadf
,,space,2.7048,0,6,6,357,1,,,5a9be9db6219a30001d34f1b,61b9009dbdd9e3a3d2d1d7e2,2021-12-14_20h38.05.093,PRaM,2021.2.3,Win32,60.0240096,61b8f3437b89212fae0dfadf
,,space,0.0189,0,7,7,259,1,,,5a9be9db6219a30001d34f1b,61b9009dbdd9e3a3d2d1d7e2,2021-12-14_20h38.05.093,PRaM,2021.2.3,Win32,60.0240096,61b8f3437b89212fae0dfadf
,,space,0.7679,0,8,8,247,1,,,5a9be9db6219a30001d34f1b,61b9009dbdd9e3a3d2d1d7e2,2021-12-14_20h38.05.093,PRaM,2021.2.3,Win32,60.0240096,61b8f3437b89212fae0dfadf
,,space,0.5523,0,9,9,332,1,,,5a9be9db6219a30001d34f1b,61b9009dbdd9e3a3d2d1d7e2,2021-12-14_20h38.05.093,PRaM,2021.2.3,Win32,60.0240096,61b8f3437b89212fae0dfadf
,,space,1.4682,0,10,10,116,1,,,5a9be9db6219a30001d34f1b,61b9009dbdd9e3a3d2d1d7e2,2021-12-14_20h38.05.093,PRaM,2021.2.3,Win32,60.0240096,61b8f3437b89212fae0dfadf
,,space,0.3197,0,11,11,254,1,,,5a9be9db6219a30001d34f1b,61b9009dbdd9e3a3d2d1d7e2,2021-12-14_20h38.05.093,PRaM,2021.2.3,Win32,60.0240096,61b8f3437b89212fae0dfadf
,,space,0.5775,0,12,12,266,1,,,5a9be9db6219a30001d34f1b,61b9009dbdd9e3a3d2d1d7e2,2021-12-14_20h38.05.093,PRaM,2021.2.3,Win32,60.0240096,61b8f3437b89212fae0dfadf
,,space,1.1352,0,13,13,353,1,,,5a9be9db6219a30001d34f1b,61b9009dbdd9e3a3d2d1d7e2,2021-12-14_20h38.05.093,PRaM,2021.2.3,Win32,60.0240096,61b8f3437b89212fae0dfadf
,,space,0.5725,0,14,14,226,1,,,5a9be9db6219a30001d34f1b,61b9009dbdd9e3a3d2d1d7e2,2021-12-14_20h38.05.093,PRaM,2021.2.3,Win32,60.0240096,61b8f3437b89212fae0dfadf
,,space,0.3041,0,15,15,362,1,,,5a9be9db6219a30001d34f1b,61b9009dbdd9e3a3d2d1d7e2,2021-12-14_20h38.05.093,PRaM,2021.2.3,Win32,60.0240096,61b8f3437b89212fae0dfadf
,,space,2.9394,0,16,16,222,1,,,5a9be9db6219a30001d34f1b,61b9009dbdd9e3a3d2d1d7e2,2021-12-14_20h38.05.093,PRaM,2021.2.3,Win32,60.0240096,61b8f3437b89212fae0dfadf
,,space,0.1858,0,17,17,201,1,,,5a9be9db6219a30001d34f1b,61b9009dbdd9e3a3d2d1d7e2,2021-12-14_20h38.05.093,PRaM,2021.2.3,Win32,60.0240096,61b8f3437b89212fae0dfadf
,,space,0.4228,0,18,18,248,1,,,5a9be9db6219a30001d34f1b,61b9009dbdd9e3a3d2d1d7e2,2021-12-14_20h38.05.093,PRaM,2021.2.3,Win32,60.0240096,61b8f3437b89212fae0dfadf
,,space,0.7381,0,19,19,1,1,,,5a9be9db6219a30001d34f1b,61b9009dbdd9e3a3d2d1d7e2,2021-12-14_20h38.05.093,PRaM,2021.2.3,Win32,60.0240096,61b8f3437b89212fae0dfadf
,,space,0.8214,0,20,20,101,1,,,5a9be9db6219a30001d34f1b,61b9009dbdd9e3a3d2d1d7e2,2021-12-14_20h38.05.093,PRaM,2021.2.3,Win32,60.0240096,61b8f3437b89212fae0dfadf
,,space,1.053,0,21,21,192,1,,,5a9be9db6219a30001d34f1b,61b9009dbdd9e3a3d2d1d7e2,2021-12-14_20h38.05.093,PRaM,2021.2.3,Win32,60.0240096,61b8f3437b89212fae0dfadf
,,space,1.8022,0,22,22,299,1,,,5a9be9db6219a30001d34f1b,61b9009dbdd9e3a3d2d1d7e2,2021-12-14_20h38.05.093,PRaM,2021.2.3,Win32,60.0240096,61b8f3437b89212fae0dfadf
,,space,0.1579,0,23,23,340,1,,,5a9be9db6219a30001d34f1b,61b9009dbdd9e3a3d2d1d7e2,2021-12-14_20h38.05.093,PRaM,2021.2.3,Win32,60.0240096,61b8f3437b89212fae0dfadf
,,space,1.2005,0,24,24,23,1,,,5a9be9db6219a30001d34f1b,61b9009dbdd9e3a3d2d1d7e2,2021-12-14_20h38.05.093,PRaM,2021.2.3,Win32,60.0240096,61b8f3437b89212fae0dfadf
,,space,2.2676,0,25,25,211,1,,,5a9be9db6219a30001d34f1b,61b9009dbdd9e3a3d2d1d7e2,2021-12-14_20h38.05.093,PRaM,2021.2.3,Win32,60.0240096,61b8f3437b89212fae0dfadf
,,space,0.2188,0,26,26,10,1,,,5a9be9db6219a30001d34f1b,61b9009dbdd9e3a3d2d1d7e2,2021-12-14_20h38.05.093,PRaM,2021.2.3,Win32,60.0240096,61b8f3437b89212fae0dfadf
,,space,2.5866,0,27,27,7,1,,,5a9be9db6219a30001d34f1b,61b9009dbdd9e3a3d2d1d7e2,2021-12-14_20h38.05.093,PRaM,2021.2.3,Win32,60.0240096,61b8f3437b89212fae0dfadf
,,space,0.0367,0,28,28,270,1,,,5a9be9db6219a30001d34f1b,61b9009dbdd9e3a3d2d1d7e2,2021-12-14_20h38.05.093,PRaM,2021.2.3,Win32,60.0240096,61b8f3437b89212fae0dfadf
,,space,1.7859,0,29,29,235,1,,,5a9be9db6219a30001d34f1b,61b9009dbdd9e3a3d2d1d7e2,2021-12-14_20h38.05.093,PRaM,2021.2.3,Win32,60.0240096,61b8f3437b89212fae0dfadf
,,space,0.2848,0,30,30,117,1,,,5a9be9db6219a30001d34f1b,61b9009dbdd9e3a3d2d1d7e2,2021-12-14_20h38.05.093,PRaM,2021.2.3,Win32,60.0240096,61b8f3437b89212fae0dfadf
,,space,1.0879,0,31,31,196,1,,,5a9be9db6219a30001d34f1b,61b9009dbdd9e3a3d2d1d7e2,2021-12-14_20h38.05.093,PRaM,2021.2.3,Win32,60.0240096,61b8f3437b89212fae0dfadf
,,space,1.4521,0,32,32,33,1,,,5a9be9db6219a30001d34f1b,61b9009dbdd9e3a3d2d1d7e2,2021-12-14_20h38.05.093,PRaM,2021.2.3,Win32,60.0240096,61b8f3437b89212fae0dfadf
,,space,1.525,0,33,33,253,1,,,5a9be9db6219a30001d34f1b,61b9009dbdd9e3a3d2d1d7e2,2021-12-14_20h38.05.093,PRaM,2021.2.3,Win32,60.0240096,61b8f3437b89212fae0dfadf
,,space,0.8188,0,34,34,92,1,,,5a9be9db6219a30001d34f1b,61b9009dbdd9e3a3d2d1d7e2,2021-12-14_20h38.05.093,PRaM,2021.2.3,Win32,60.0240096,61b8f3437b89212fae0dfadf
,,space,4.0521,0,35,35,369,1,,,5a9be9db6219a30001d34f1b,61b9009dbdd9e3a3d2d1d7e2,2021-12-14_20h38.05.093,PRaM,2021.2.3,Win32,60.0240096,61b8f3437b89212fae0dfadf
,,space,3.5866,0,36,36,335,1,,,5a9be9db6219a30001d34f1b,61b9009dbdd9e3a3d2d1d7e2,2021-12-14_20h38.05.093,PRaM,2021.2.3,Win32,60.0240096,61b8f3437b89212fae0dfadf
,,space,0.1771,0,37,37,36,1,,,5a9be9db6219a30001d34f1b,61b9009dbdd9e3a3d2d1d7e2,2021-12-14_20h38.05.093,PRaM,2021.2.3,Win32,60.0240096,61b8f3437b89212fae0dfadf
,,space,1.4853,0,38,38,112,1,,,5a9be9db6219a30001d34f1b,61b9009dbdd9e3a3d2d1d7e2,2021-12-14_20h38.05.093,PRaM,2021.2.3,Win32,60.0240096,61b8f3437b89212fae0dfadf
,,space,0.3769,0,39,39,50,1,,,5a9be9db6219a30001d34f1b,61b9009dbdd9e3a3d2d1d7e2,2021-12-14_20h38.05.093,PRaM,2021.2.3,Win32,60.0240096,61b8f3437b89212fae0dfadf
,,space,1.3186,0,40,40,67,1,,,5a9be9db6219a30001d34f1b,61b9009dbdd9e3a3d2d1d7e2,2021-12-14_20h38.05.093,PRaM,2021.2.3,Win32,60.0240096,61b8f3437b89212fae0dfadf
,,space,0.9362,0,41,41,9,1,,,5a9be9db6219a30001d34f1b,61b9009dbdd9e3a3d2d1d7e2,2021-12-14_20h38.05.093,PRaM,2021.2.3,Win32,60.0240096,61b8f3437b89212fae0dfadf
,,space,0.8516,0,42,42,227,1,,,5a9be9db6219a30001d34f1b,61b9009dbdd9e3a3d2d1d7e2,2021-12-14_20h38.05.093,PRaM,2021.2.3,Win32,60.0240096,61b8f3437b89212fae0dfadf
,,space,2.2505,0,43,43,225,1,,,5a9be9db6219a30001d34f1b,61b9009dbdd9e3a3d2d1d7e2,2021-12-14_20h38.05.093,PRaM,2021.2.3,Win32,60.0240096,61b8f3437b89212fae0dfadf
,,space,2.1021,0,44,44,368,1,,,5a9be9db6219a30001d34f1b,61b9009dbdd9e3a3d2d1d7e2,2021-12-14_20h38.05.093,PRaM,2021.2.3,Win32,60.0240096,61b8f3437b89212fae0dfadf
,,space,4.9406,0,45,45,330,1,,,5a9be9db6219a30001d34f1b,61b9009dbdd9e3a3d2d1d7e2,2021-12-14_20h38.05.093,PRaM,2021.2.3,Win32,60.0240096,61b8f3437b89212fae0dfadf
,,space,1.5567,0,46,46,359,1,,,5a9be9db6219a30001d34f1b,61b9009dbdd9e3a3d2d1d7e2,2021-12-14_20h38.05.093,PRaM,2021.2.3,Win32,60.0240096,61b8f3437b89212fae0dfadf
,,space,0.6339,0,47,47,59,1,,,5a9be9db6219a30001d34f1b,61b9009dbdd9e3a3d2d1d7e2,2021-12-14_20h38.05.093,PRaM,2021.2.3,Win32,60.0240096,61b8f3437b89212fae0dfadf
,,space,2.008,0,48,48,142,1,,,5a9be9db6219a30001d34f1b,61b9009dbdd9e3a3d2d1d7e2,2021-12-14_20h38.05.093,PRaM,2021.2.3,Win32,60.0240096,61b8f3437b89212fae0dfadf
,,space,1.4551,0,49,49,29,1,,,5a9be9db6219a30001d34f1b,61b9009dbdd9e3a3d2d1d7e2,2021-12-14_20h38.05.093,PRaM,2021.2.3,Win32,60.0240096,61b8f3437b89212fae0dfadf
,,space,1.6883,0,50,50,15,1,,,5a9be9db6219a30001d34f1b,61b9009dbdd9e3a3d2d1d7e2,2021-12-14_20h38.05.093,PRaM,2021.2.3,Win32,60.0240096,61b8f3437b89212fae0dfadf
,,space,0.0697,0,51,51,243,1,,,5a9be9db6219a30001d34f1b,61b9009dbdd9e3a3d2d1d7e2,2021-12-14_20h38.05.093,PRaM,2021.2.3,Win32,60.0240096,61b8f3437b89212fae0dfadf
,,space,2.9216,0,52,52,96,1,,,5a9be9db6219a30001d34f1b,61b9009dbdd9e3a3d2d1d7e2,2021-12-14_20h38.05.093,PRaM,2021.2.3,Win32,60.0240096,61b8f3437b89212fae0dfadf
,,space,0.0351,0,53,53,246,1,,,5a9be9db6219a30001d34f1b,61b9009dbdd9e3a3d2d1d7e2,2021-12-14_20h38.05.093,PRaM,2021.2.3,Win32,60.0240096,61b8f3437b89212fae0dfadf
,,space,0.9102,0,54,54,182,1,,,5a9be9db6219a30001d34f1b,61b9009dbdd9e3a3d2d1d7e2,2021-12-14_20h38.05.093,PRaM,2021.2.3,Win32,60.0240096,61b8f3437b89212fae0dfadf
,,space,0.6773,0,55,55,293,1,,,5a9be9db6219a30001d34f1b,61b9009dbdd9e3a3d2d1d7e2,2021-12-14_20h38.05.093,PRaM,2021.2.3,Win32,60.0240096,61b8f3437b89212fae0dfadf
,,space,2.1844,0,56,56,132,1,,,5a9be9db6219a30001d34f1b,61b9009dbdd9e3a3d2d1d7e2,2021-12-14_20h38.05.093,PRaM,2021.2.3,Win32,60.0240096,61b8f3437b89212fae0dfadf
,,space,1.4528,0,57,57,120,1,,,5a9be9db6219a30001d34f1b,61b9009dbdd9e3a3d2d1d7e2,2021-12-14_20h38.05.093,PRaM,2021.2.3,Win32,60.0240096,61b8f3437b89212fae0dfadf
,,space,1.0272,0,58,58,348,1,,,5a9be9db6219a30001d34f1b,61b9009dbdd9e3a3d2d1d7e2,2021-12-14_20h38.05.093,PRaM,2021.2.3,Win32,60.0240096,61b8f3437b89212fae0dfadf
,,space,1.054,0,59,59,313,1,,,5a9be9db6219a30001d34f1b,61b9009dbdd9e3a3d2d1d7e2,2021-12-14_20h38.05.093,PRaM,2021.2.3,Win32,60.0240096,61b8f3437b89212fae0dfadf
,,space,1.5204,0,60,60,181,1,,,5a9be9db6219a30001d34f1b,61b9009dbdd9e3a3d2d1d7e2,2021-12-14_20h38.05.093,PRaM,2021.2.3,Win32,60.0240096,61b8f3437b89212fae0dfadf
,,space,1.0358,0,61,61,240,1,,,5a9be9db6219a30001d34f1b,61b9009dbdd9e3a3d2d1d7e2,2021-12-14_20h38.05.093,PRaM,2021.2.3,Win32,60.0240096,61b8f3437b89212fae0dfadf
,,space,0.0679,0,62,62,278,1,,,5a9be9db6219a30001d34f1b,61b9009dbdd9e3a3d2d1d7e2,2021-12-14_20h38.05.093,PRaM,2021.2.3,Win32,60.0240096,61b8f3437b89212fae0dfadf
,,space,0.8254,0,63,63,91,1,,,5a9be9db6219a30001d34f1b,61b9009dbdd9e3a3d2d1d7e2,2021-12-14_20h38.05.093,PRaM,2021.2.3,Win32,60.0240096,61b8f3437b89212fae0dfadf
,,space,0.1538,0,64,64,339,1,,,5a9be9db6219a30001d34f1b,61b9009dbdd9e3a3d2d1d7e2,2021-12-14_20h38.05.093,PRaM,2021.2.3,Win32,60.0240096,61b8f3437b89212fae0dfadf
,,space,0.4014,0,65,65,297,1,,,5a9be9db6219a30001d34f1b,61b9009dbdd9e3a3d2d1d7e2,2021-12-14_20h38.05.093,PRaM,2021.2.3,Win32,60.0240096,61b8f3437b89212fae0dfadf
,,space,0.2013,0,66,66,153,1,,,5a9be9db6219a30001d34f1b,61b9009dbdd9e3a3d2d1d7e2,2021-12-14_20h38.05.093,PRaM,2021.2.3,Win32,60.0240096,61b8f3437b89212fae0dfadf
,,space,0.2427,0,67,67,177,1,,,5a9be9db6219a30001d34f1b,61b9009dbdd9e3a3d2d1d7e2,2021-12-14_20h38.05.093,PRaM,2021.2.3,Win32,60.0240096,61b8f3437b89212fae0dfadf
,,space,0.772,0,68,68,134,1,,,5a9be9db6219a30001d34f1b,61b9009dbdd9e3a3d2d1d7e2,2021-12-14_20h38.05.093,PRaM,2021.2.3,Win32,60.0240096,61b8f3437b89212fae0dfadf
,,space,0.6846,0,69,69,305,1,,,5a9be9db6219a30001d34f1b,61b9009dbdd9e3a3d2d1d7e2,2021-12-14_20h38.05.093,PRaM,2021.2.3,Win32,60.0240096,61b8f3437b89212fae0dfadf
,,space,2.4252,0,70,70,161,1,,,5a9be9db6219a30001d34f1b,61b9009dbdd9e3a3d2d1d7e2,2021-12-14_20h38.05.093,PRaM,2021.2.3,Win32,60.0240096,61b8f3437b89212fae0dfadf
,,space,2.6846,0,71,71,284,1,,,5a9be9db6219a30001d34f1b,61b9009dbdd9e3a3d2d1d7e2,2021-12-14_20h38.05.093,PRaM,2021.2.3,Win32,60.0240096,61b8f3437b89212fae0dfadf
,,space,0.2184,0,72,72,355,1,,,5a9be9db6219a30001d34f1b,61b9009dbdd9e3a3d2d1d7e2,2021-12-14_20h38.05.093,PRaM,2021.2.3,Win32,60.0240096,61b8f3437b89212fae0dfadf
,,space,1.2047,0,73,73,316,1,,,5a9be9db6219a30001d34f1b,61b9009dbdd9e3a3d2d1d7e2,2021-12-14_20h38.05.093,PRaM,2021.2.3,Win32,60.0240096,61b8f3437b89212fae0dfadf
,,space,1.1599,0,74,74,215,1,,,5a9be9db6219a30001d34f1b,61b9009dbdd9e3a3d2d1d7e2,2021-12-14_20h38.05.093,PRaM,2021.2.3,Win32,60.0240096,61b8f3437b89212fae0dfadf
,,space,0.0847,0,75,75,168,1,,,5a9be9db6219a30001d34f1b,61b9009dbdd9e3a3d2d1d7e2,2021-12-14_20h38.05.093,PRaM,2021.2.3,Win32,60.0240096,61b8f3437b89212fae0dfadf
,,space,0.9375,0,76,76,231,1,,,5a9be9db6219a30001d34f1b,61b9009dbdd9e3a3d2d1d7e2,2021-12-14_20h38.05.093,PRaM,2021.2.3,Win32,60.0240096,61b8f3437b89212fae0dfadf
,,space,1.127,0,77,77,3,1,,,5a9be9db6219a30001d34f1b,61b9009dbdd9e3a3d2d1d7e2,2021-12-14_20h38.05.093,PRaM,2021.2.3,Win32,60.0240096,61b8f3437b89212fae0dfadf
,,space,0.6345,0,78,78,87,1,,,5a9be9db6219a30001d34f1b,61b9009dbdd9e3a3d2d1d7e2,2021-12-14_20h38.05.093,PRaM,2021.2.3,Win32,60.0240096,61b8f3437b89212fae0dfadf
,,space,1.1519,0,79,79,224,1,,,5a9be9db6219a30001d34f1b,61b9009dbdd9e3a3d2d1d7e2,2021-12-14_20h38.05.093,PRaM,2021.2.3,Win32,60.0240096,61b8f3437b89212fae0dfadf
,,space,0.2279,0,80,80,80,1,,,5a9be9db6219a30001d34f1b,61b9009dbdd9e3a3d2d1d7e2,2021-12-14_20h38.05.093,PRaM,2021.2.3,Win32,60.0240096,61b8f3437b89212fae0dfadf
,,space,0.1701,0,81,81,328,1,,,5a9be9db6219a30001d34f1b,61b9009dbdd9e3a3d2d1d7e2,2021-12-14_20h38.05.093,PRaM,2021.2.3,Win32,60.0240096,61b8f3437b89212fae0dfadf
,,space,0.5195,0,82,82,169,1,,,5a9be9db6219a30001d34f1b,61b9009dbdd9e3a3d2d1d7e2,2021-12-14_20h38.05.093,PRaM,2021.2.3,Win32,60.0240096,61b8f3437b89212fae0dfadf
,,space,1.2745,0,83,83,256,1,,,5a9be9db6219a30001d34f1b,61b9009dbdd9e3a3d2d1d7e2,2021-12-14_20h38.05.093,PRaM,2021.2.3,Win32,60.0240096,61b8f3437b89212fae0dfadf
,,space,1.1693,0,84,84,376,1,,,5a9be9db6219a30001d34f1b,61b9009dbdd9e3a3d2d1d7e2,2021-12-14_20h38.05.093,PRaM,2021.2.3,Win32,60.0240096,61b8f3437b89212fae0dfadf
,,space,1.0196,0,85,85,159,1,,,5a9be9db6219a30001d34f1b,61b9009dbdd9e3a3d2d1d7e2,2021-12-14_20h38.05.093,PRaM,2021.2.3,Win32,60.0240096,61b8f3437b89212fae0dfadf
,,space,0.4436,0,86,86,138,1,,,5a9be9db6219a30001d34f1b,61b9009dbdd9e3a3d2d1d7e2,2021-12-14_20h38.05.093,PRaM,2021.2.3,Win32,60.0240096,61b8f3437b89212fae0dfadf
,,space,0.4368,0,87,87,333,1,,,5a9be9db6219a30001d34f1b,61b9009dbdd9e3a3d2d1d7e2,2021-12-14_20h38.05.093,PRaM,2021.2.3,Win32,60.0240096,61b8f3437b89212fae0dfadf
,,space,0.3539,0,88,88,310,1,,,5a9be9db6219a30001d34f1b,61b9009dbdd9e3a3d2d1d7e2,2021-12-14_20h38.05.093,PRaM,2021.2.3,Win32,60.0240096,61b8f3437b89212fae0dfadf
,,space,0.1723,0,89,89,61,1,,,5a9be9db6219a30001d34f1b,61b9009dbdd9e3a3d2d1d7e2,2021-12-14_20h38.05.093,PRaM,2021.2.3,Win32,60.0240096,61b8f3437b89212fae0dfadf
,,space,0.5589,0,90,90,321,1,,,5a9be9db6219a30001d34f1b,61b9009dbdd9e3a3d2d1d7e2,2021-12-14_20h38.05.093,PRaM,2021.2.3,Win32,60.0240096,61b8f3437b89212fae0dfadf
,,space,0.5378,0,91,91,147,1,,,5a9be9db6219a30001d34f1b,61b9009dbdd9e3a3d2d1d7e2,2021-12-14_20h38.05.093,PRaM,2021.2.3,Win32,60.0240096,61b8f3437b89212fae0dfadf
,,space,1.9838,0,92,92,374,1,,,5a9be9db6219a30001d34f1b,61b9009dbdd9e3a3d2d1d7e2,2021-12-14_20h38.05.093,PRaM,2021.2.3,Win32,60.0240096,61b8f3437b89212fae0dfadf
,,space,0.3181,0,93,93,214,1,,,5a9be9db6219a30001d34f1b,61b9009dbdd9e3a3d2d1d7e2,2021-12-14_20h38.05.093,PRaM,2021.2.3,Win32,60.0240096,61b8f3437b89212fae0dfadf
,,space,1.4385,0,94,94,49,1,,,5a9be9db6219a30001d34f1b,61b9009dbdd9e3a3d2d1d7e2,2021-12-14_20h38.05.093,PRaM,2021.2.3,Win32,60.0240096,61b8f3437b89212fae0dfadf
,,space,0.5511,0,95,95,372,1,,,5a9be9db6219a30001d34f1b,61b9009dbdd9e3a3d2d1d7e2,2021-12-14_20h38.05.093,PRaM,2021.2.3,Win32,60.0240096,61b8f3437b89212fae0dfadf
,,space,1.258,0,96,96,6,1,,,5a9be9db6219a30001d34f1b,61b9009dbdd9e3a3d2d1d7e2,2021-12-14_20h38.05.093,PRaM,2021.2.3,Win32,60.0240096,61b8f3437b89212fae0dfadf
,,space,0.1519,0,97,97,26,1,,,5a9be9db6219a30001d34f1b,61b9009dbdd9e3a3d2d1d7e2,2021-12-14_20h38.05.093,PRaM,2021.2.3,Win32,60.0240096,61b8f3437b89212fae0dfadf
,,space,0.7002,0,98,98,30,1,,,5a9be9db6219a30001d34f1b,61b9009dbdd9e3a3d2d1d7e2,2021-12-14_20h38.05.093,PRaM,2021.2.3,Win32,60.0240096,61b8f3437b89212fae0dfadf
,,space,1.3675,0,99,99,264,1,,,5a9be9db6219a30001d34f1b,61b9009dbdd9e3a3d2d1d7e2,2021-12-14_20h38.05.093,PRaM,2021.2.3,Win32,60.0240096,61b8f3437b89212fae0dfadf
,,space,0.2374,0,100,100,74,1,,,5a9be9db6219a30001d34f1b,61b9009dbdd9e3a3d2d1d7e2,2021-12-14_20h38.05.093,PRaM,2021.2.3,Win32,60.0240096,61b8f3437b89212fae0dfadf
,,space,0.4043,0,101,101,176,1,,,5a9be9db6219a30001d34f1b,61b9009dbdd9e3a3d2d1d7e2,2021-12-14_20h38.05.093,PRaM,2021.2.3,Win32,60.0240096,61b8f3437b89212fae0dfadf
,,space,0.6686,0,102,102,326,1,,,5a9be9db6219a30001d34f1b,61b9009dbdd9e3a3d2d1d7e2,2021-12-14_20h38.05.093,PRaM,2021.2.3,Win32,60.0240096,61b8f3437b89212fae0dfadf
,,space,1.241,0,103,103,288,1,,,5a9be9db6219a30001d34f1b,61b9009dbdd9e3a3d2d1d7e2,2021-12-14_20h38.05.093,PRaM,2021.2.3,Win32,60.0240096,61b8f3437b89212fae0dfadf
,,space,0.6361,0,104,104,97,1,,,5a9be9db6219a30001d34f1b,61b9009dbdd9e3a3d2d1d7e2,2021-12-14_20h38.05.093,PRaM,2021.2.3,Win32,60.0240096,61b8f3437b89212fae0dfadf
,,space,2.0751,0,105,105,363,1,,,5a9be9db6219a30001d34f1b,61b9009dbdd9e3a3d2d1d7e2,2021-12-14_20h38.05.093,PRaM,2021.2.3,Win32,60.0240096,61b8f3437b89212fae0dfadf
,,space,1.272,0,106,106,327,1,,,5a9be9db6219a30001d34f1b,61b9009dbdd9e3a3d2d1d7e2,2021-12-14_20h38.05.093,PRaM,2021.2.3,Win32,60.0240096,61b8f3437b89212fae0dfadf
,,space,0.5682,0,107,107,12,1,,,5a9be9db6219a30001d34f1b,61b9009dbdd9e3a3d2d1d7e2,2021-12-14_20h38.05.093,PRaM,2021.2.3,Win32,60.0240096,61b8f3437b89212fae0dfadf
,,space,0.9896,0,108,108,319,1,,,5a9be9db6219a30001d34f1b,61b9009dbdd9e3a3d2d1d7e2,2021-12-14_20h38.05.093,PRaM,2021.2.3,Win32,60.0240096,61b8f3437b89212fae0dfadf
,,space,0.4411,0,109,109,206,1,,,5a9be9db6219a30001d34f1b,61b9009dbdd9e3a3d2d1d7e2,2021-12-14_20h38.05.093,PRaM,2021.2.3,Win32,60.0240096,61b8f3437b89212fae0dfadf
,,space,1.2688,0,110,110,57,1,,,5a9be9db6219a30001d34f1b,61b9009dbdd9e3a3d2d1d7e2,2021-12-14_20h38.05.093,PRaM,2021.2.3,Win32,60.0240096,61b8f3437b89212fae0dfadf
,,space,1.2191,0,111,111,167,1,,,5a9be9db6219a30001d34f1b,61b9009dbdd9e3a3d2d1d7e2,2021-12-14_20h38.05.093,PRaM,2021.2.3,Win32,60.0240096,61b8f3437b89212fae0dfadf
,,space,1.1528,0,112,112,174,1,,,5a9be9db6219a30001d34f1b,61b9009dbdd9e3a3d2d1d7e2,2021-12-14_20h38.05.093,PRaM,2021.2.3,Win32,60.0240096,61b8f3437b89212fae0dfadf
,,space,1.0908,0,113,113,28,1,,,5a9be9db6219a30001d34f1b,61b9009dbdd9e3a3d2d1d7e2,2021-12-14_20h38.05.093,PRaM,2021.2.3,Win32,60.0240096,61b8f3437b89212fae0dfadf
,,space,0.4528,0,114,114,292,1,,,5a9be9db6219a30001d34f1b,61b9009dbdd9e3a3d2d1d7e2,2021-12-14_20h38.05.093,PRaM,2021.2.3,Win32,60.0240096,61b8f3437b89212fae0dfadf
,,space,0.7732,0,115,115,18,1,,,5a9be9db6219a30001d34f1b,61b9009dbdd9e3a3d2d1d7e2,2021-12-14_20h38.05.093,PRaM,2021.2.3,Win32,60.0240096,61b8f3437b89212fae0dfadf
,,space,0.7513,0,116,116,156,1,,,5a9be9db6219a30001d34f1b,61b9009dbdd9e3a3d2d1d7e2,2021-12-14_20h38.05.093,PRaM,2021.2.3,Win32,60.0240096,61b8f3437b89212fae0dfadf
,,space,2.2081,0,117,117,94,1,,,5a9be9db6219a30001d34f1b,61b9009dbdd9e3a3d2d1d7e2,2021-12-14_20h38.05.093,PRaM,2021.2.3,Win32,60.0240096,61b8f3437b89212fae0dfadf
,,space,0.7894,0,118,118,239,1,,,5a9be9db6219a30001d34f1b,61b9009dbdd9e3a3d2d1d7e2,2021-12-14_20h38.05.093,PRaM,2021.2.3,Win32,60.0240096,61b8f3437b89212fae0dfadf
,,space,0.7557,0,119,119,221,1,,,5a9be9db6219a30001d34f1b,61b9009dbdd9e3a3d2d1d7e2,2021-12-14_20h38.05.093,PRaM,2021.2.3,Win32,60.0240096,61b8f3437b89212fae0dfadf
,,space,0.8713,0,120,120,86,1,,,5a9be9db6219a30001d34f1b,61b9009dbdd9e3a3d2d1d7e2,2021-12-14_20h38.05.093,PRaM,2021.2.3,Win32,60.0240096,61b8f3437b89212fae0dfadf
,,space,1.2838,0,121,121,360,1,,,5a9be9db6219a30001d34f1b,61b9009dbdd9e3a3d2d1d7e2,2021-12-14_20h38.05.093,PRaM,2021.2.3,Win32,60.0240096,61b8f3437b89212fae0dfadf
,,space,3.2393,0,122,122,27,1,,,5a9be9db6219a30001d34f1b,61b9009dbdd9e3a3d2d1d7e2,2021-12-14_20h38.05.093,PRaM,2021.2.3,Win32,60.0240096,61b8f3437b89212fae0dfadf
,,space,2.0905,0,123,123,135,1,,,5a9be9db6219a30001d34f1b,61b9009dbdd9e3a3d2d1d7e2,2021-12-14_20h38.05.093,PRaM,2021.2.3,Win32,60.0240096,61b8f3437b89212fae0dfadf
,,space,1.2116,0,124,124,185,1,,,5a9be9db6219a30001d34f1b,61b9009dbdd9e3a3d2d1d7e2,2021-12-14_20h38.05.093,PRaM,2021.2.3,Win32,60.0240096,61b8f3437b89212fae0dfadf
,,space,0.1076,0,125,125,106,1,,,5a9be9db6219a30001d34f1b,61b9009dbdd9e3a3d2d1d7e2,2021-12-14_20h38.05.093,PRaM,2021.2.3,Win32,60.0240096,61b8f3437b89212fae0dfadf
,,space,1.2426,0,126,126,244,1,,,5a9be9db6219a30001d34f1b,61b9009dbdd9e3a3d2d1d7e2,2021-12-14_20h38.05.093,PRaM,2021.2.3,Win32,60.0240096,61b8f3437b89212fae0dfadf
,,space,0.6202,0,127,127,2,1,,,5a9be9db6219a30001d34f1b,61b9009dbdd9e3a3d2d1d7e2,2021-12-14_20h38.05.093,PRaM,2021.2.3,Win32,60.0240096,61b8f3437b89212fae0dfadf
,,space,0.7343,0,128,128,82,1,,,5a9be9db6219a30001d34f1b,61b9009dbdd9e3a3d2d1d7e2,2021-12-14_20h38.05.093,PRaM,2021.2.3,Win32,60.0240096,61b8f3437b89212fae0dfadf
,,space,0.0354,0,129,129,250,1,,,5a9be9db6219a30001d34f1b,61b9009dbdd9e3a3d2d1d7e2,2021-12-14_20h38.05.093,PRaM,2021.2.3,Win32,60.0240096,61b8f3437b89212fae0dfadf
,,space,0.4843,0,130,130,37,1,,,5a9be9db6219a30001d34f1b,61b9009dbdd9e3a3d2d1d7e2,2021-12-14_20h38.05.093,PRaM,2021.2.3,Win32,60.0240096,61b8f3437b89212fae0dfadf
,,space,1.7942,0,131,131,320,1,,,5a9be9db6219a30001d34f1b,61b9009dbdd9e3a3d2d1d7e2,2021-12-14_20h38.05.093,PRaM,2021.2.3,Win32,60.0240096,61b8f3437b89212fae0dfadf
,,space,0.5549,0,132,132,114,1,,,5a9be9db6219a30001d34f1b,61b9009dbdd9e3a3d2d1d7e2,2021-12-14_20h38.05.093,PRaM,2021.2.3,Win32,60.0240096,61b8f3437b89212fae0dfadf
,,space,0.5871,0,133,133,99,1,,,5a9be9db6219a30001d34f1b,61b9009dbdd9e3a3d2d1d7e2,2021-12-14_20h38.05.093,PRaM,2021.2.3,Win32,60.0240096,61b8f3437b89212fae0dfadf
,,space,0.0129,0,134,134,217,1,,,5a9be9db6219a30001d34f1b,61b9009dbdd9e3a3d2d1d7e2,2021-12-14_20h38.05.093,PRaM,2021.2.3,Win32,60.0240096,61b8f3437b89212fae0dfadf
,,space,5.324,0,135,135,144,1,,,5a9be9db6219a30001d34f1b,61b9009dbdd9e3a3d2d1d7e2,2021-12-14_20h38.05.093,PRaM,2021.2.3,Win32,60.0240096,61b8f3437b89212fae0dfadf
,,space,1.1371,0,136,136,272,1,,,5a9be9db6219a30001d34f1b,61b9009dbdd9e3a3d2d1d7e2,2021-12-14_20h38.05.093,PRaM,2021.2.3,Win32,60.0240096,61b8f3437b89212fae0dfadf
,,space,1.6505,0,137,137,219,1,,,5a9be9db6219a30001d34f1b,61b9009dbdd9e3a3d2d1d7e2,2021-12-14_20h38.05.093,PRaM,2021.2.3,Win32,60.0240096,61b8f3437b89212fae0dfadf
,,space,0.1199,0,138,138,133,1,,,5a9be9db6219a30001d34f1b,61b9009dbdd9e3a3d2d1d7e2,2021-12-14_20h38.05.093,PRaM,2021.2.3,Win32,60.0240096,61b8f3437b89212fae0dfadf
,,space,0.4898,0,139,139,276,1,,,5a9be9db6219a30001d34f1b,61b9009dbdd9e3a3d2d1d7e2,2021-12-14_20h38.05.093,PRaM,2021.2.3,Win32,60.0240096,61b8f3437b89212fae0dfadf
,,space,0.3019,0,140,140,0,1,,,5a9be9db6219a30001d34f1b,61b9009dbdd9e3a3d2d1d7e2,2021-12-14_20h38.05.093,PRaM,2021.2.3,Win32,60.0240096,61b8f3437b89212fae0dfadf
,,space,0.5037,0,141,141,39,1,,,5a9be9db6219a30001d34f1b,61b9009dbdd9e3a3d2d1d7e2,2021-12-14_20h38.05.093,PRaM,2021.2.3,Win32,60.0240096,61b8f3437b89212fae0dfadf
,,space,1.6213,0,142,142,198,1,,,5a9be9db6219a30001d34f1b,61b9009dbdd9e3a3d2d1d7e2,2021-12-14_20h38.05.093,PRaM,2021.2.3,Win32,60.0240096,61b8f3437b89212fae0dfadf
,,space,0.7233,0,143,143,71,1,,,5a9be9db6219a30001d34f1b,61b9009dbdd9e3a3d2d1d7e2,2021-12-14_20h38.05.093,PRaM,2021.2.3,Win32,60.0240096,61b8f3437b89212fae0dfadf
,,space,1.4602,0,144,144,157,1,,,5a9be9db6219a30001d34f1b,61b9009dbdd9e3a3d2d1d7e2,2021-12-14_20h38.05.093,PRaM,2021.2.3,Win32,60.0240096,61b8f3437b89212fae0dfadf
,,space,2.087,0,145,145,274,1,,,5a9be9db6219a30001d34f1b,61b9009dbdd9e3a3d2d1d7e2,2021-12-14_20h38.05.093,PRaM,2021.2.3,Win32,60.0240096,61b8f3437b89212fae0dfadf
,,space,1.4906,0,146,146,125,1,,,5a9be9db6219a30001d34f1b,61b9009dbdd9e3a3d2d1d7e2,2021-12-14_20h38.05.093,PRaM,2021.2.3,Win32,60.0240096,61b8f3437b89212fae0dfadf
,,space,4.2101,0,147,147,236,1,,,5a9be9db6219a30001d34f1b,61b9009dbdd9e3a3d2d1d7e2,2021-12-14_20h38.05.093,PRaM,2021.2.3,Win32,60.0240096,61b8f3437b89212fae0dfadf
,,space,2.8347,0,148,148,89,1,,,5a9be9db6219a30001d34f1b,61b9009dbdd9e3a3d2d1d7e2,2021-12-14_20h38.05.093,PRaM,2021.2.3,Win32,60.0240096,61b8f3437b89212fae0dfadf
,,space,1.8833,0,149,149,124,1,,,5a9be9db6219a30001d34f1b,61b9009dbdd9e3a3d2d1d7e2,2021-12-14_20h38.05.093,PRaM,2021.2.3,Win32,60.0240096,61b8f3437b89212fae0dfadf
,,space,3.619,0,150,150,16,1,,,5a9be9db6219a30001d34f1b,61b9009dbdd9e3a3d2d1d7e2,2021-12-14_20h38.05.093,PRaM,2021.2.3,Win32,60.0240096,61b8f3437b89212fae0dfadf
,,space,3.9004,0,151,151,203,1,,,5a9be9db6219a30001d34f1b,61b9009dbdd9e3a3d2d1d7e2,2021-12-14_20h38.05.093,PRaM,2021.2.3,Win32,60.0240096,61b8f3437b89212fae0dfadf
,,space,3.037,0,152,152,155,1,,,5a9be9db6219a30001d34f1b,61b9009dbdd9e3a3d2d1d7e2,2021-12-14_20h38.05.093,PRaM,2021.2.3,Win32,60.0240096,61b8f3437b89212fae0dfadf
,,space,1.489,0,153,153,377,1,,,5a9be9db6219a30001d34f1b,61b9009dbdd9e3a3d2d1d7e2,2021-12-14_20h38.05.093,PRaM,2021.2.3,Win32,60.0240096,61b8f3437b89212fae0dfadf
,,space,0.0893,0,154,154,139,1,,,5a9be9db6219a30001d34f1b,61b9009dbdd9e3a3d2d1d7e2,2021-12-14_20h38.05.093,PRaM,2021.2.3,Win32,60.0240096,61b8f3437b89212fae0dfadf
,,space,0.6726,0,155,155,285,1,,,5a9be9db6219a30001d34f1b,61b9009dbdd9e3a3d2d1d7e2,2021-12-14_20h38.05.093,PRaM,2021.2.3,Win32,60.0240096,61b8f3437b89212fae0dfadf
,,space,0.3876,0,156,156,202,1,,,5a9be9db6219a30001d34f1b,61b9009dbdd9e3a3d2d1d7e2,2021-12-14_20h38.05.093,PRaM,2021.2.3,Win32,60.0240096,61b8f3437b89212fae0dfadf
,,space,1.7185,0,157,157,237,1,,,5a9be9db6219a30001d34f1b,61b9009dbdd9e3a3d2d1d7e2,2021-12-14_20h38.05.093,PRaM,2021.2.3,Win32,60.0240096,61b8f3437b89212fae0dfadf
,,space,0.8777,0,158,158,119,1,,,5a9be9db6219a30001d34f1b,61b9009dbdd9e3a3d2d1d7e2,2021-12-14_20h38.05.093,PRaM,2021.2.3,Win32,60.0240096,61b8f3437b89212fae0dfadf
,,space,1.6356,0,159,159,100,1,,,5a9be9db6219a30001d34f1b,61b9009dbdd9e3a3d2d1d7e2,2021-12-14_20h38.05.093,PRaM,2021.2.3,Win32,60.0240096,61b8f3437b89212fae0dfadf
,,space,1.0908,0,160,160,252,1,,,5a9be9db6219a30001d34f1b,61b9009dbdd9e3a3d2d1d7e2,2021-12-14_20h38.05.093,PRaM,2021.2.3,Win32,60.0240096,61b8f3437b89212fae0dfadf
,,space,0.093,0,161,161,66,1,,,5a9be9db6219a30001d34f1b,61b9009dbdd9e3a3d2d1d7e2,2021-12-14_20h38.05.093,PRaM,2021.2.3,Win32,60.0240096,61b8f3437b89212fae0dfadf
,,space,0.9675,0,162,162,79,1,,,5a9be9db6219a30001d34f1b,61b9009dbdd9e3a3d2d1d7e2,2021-12-14_20h38.05.093,PRaM,2021.2.3,Win32,60.0240096,61b8f3437b89212fae0dfadf
,,space,1.1332,0,163,163,338,1,,,5a9be9db6219a30001d34f1b,61b9009dbdd9e3a3d2d1d7e2,2021-12-14_20h38.05.093,PRaM,2021.2.3,Win32,60.0240096,61b8f3437b89212fae0dfadf
,,space,0.1511,0,164,164,341,1,,,5a9be9db6219a30001d34f1b,61b9009dbdd9e3a3d2d1d7e2,2021-12-14_20h38.05.093,PRaM,2021.2.3,Win32,60.0240096,61b8f3437b89212fae0dfadf
,,space,1.6607,0,165,165,8,1,,,5a9be9db6219a30001d34f1b,61b9009dbdd9e3a3d2d1d7e2,2021-12-14_20h38.05.093,PRaM,2021.2.3,Win32,60.0240096,61b8f3437b89212fae0dfadf
,,space,2.3772,0,166,166,43,1,,,5a9be9db6219a30001d34f1b,61b9009dbdd9e3a3d2d1d7e2,2021-12-14_20h38.05.093,PRaM,2021.2.3,Win32,60.0240096,61b8f3437b89212fae0dfadf
,,space,2.5365,0,167,167,44,1,,,5a9be9db6219a30001d34f1b,61b9009dbdd9e3a3d2d1d7e2,2021-12-14_20h38.05.093,PRaM,2021.2.3,Win32,60.0240096,61b8f3437b89212fae0dfadf
,,space,3.8016,0,168,168,318,1,,,5a9be9db6219a30001d34f1b,61b9009dbdd9e3a3d2d1d7e2,2021-12-14_20h38.05.093,PRaM,2021.2.3,Win32,60.0240096,61b8f3437b89212fae0dfadf
,,space,1.5055,0,169,169,46,1,,,5a9be9db6219a30001d34f1b,61b9009dbdd9e3a3d2d1d7e2,2021-12-14_20h38.05.093,PRaM,2021.2.3,Win32,60.0240096,61b8f3437b89212fae0dfadf
,,space,2.8358,0,170,170,311,1,,,5a9be9db6219a30001d34f1b,61b9009dbdd9e3a3d2d1d7e2,2021-12-14_20h38.05.093,PRaM,2021.2.3,Win32,60.0240096,61b8f3437b89212fae0dfadf
,,space,1.6431,0,171,171,371,1,,,5a9be9db6219a30001d34f1b,61b9009dbdd9e3a3d2d1d7e2,2021-12-14_20h38.05.093,PRaM,2021.2.3,Win32,60.0240096,61b8f3437b89212fae0dfadf
,,space,1.5727,0,172,172,93,1,,,5a9be9db6219a30001d34f1b,61b9009dbdd9e3a3d2d1d7e2,2021-12-14_20h38.05.093,PRaM,2021.2.3,Win32,60.0240096,61b8f3437b89212fae0dfadf
,,space,0.4109,0,173,173,184,1,,,5a9be9db6219a30001d34f1b,61b9009dbdd9e3a3d2d1d7e2,2021-12-14_20h38.05.093,PRaM,2021.2.3,Win32,60.0240096,61b8f3437b89212fae0dfadf
,,space,0.3865,0,174,174,366,1,,,5a9be9db6219a30001d34f1b,61b9009dbdd9e3a3d2d1d7e2,2021-12-14_20h38.05.093,PRaM,2021.2.3,Win32,60.0240096,61b8f3437b89212fae0dfadf
,,space,1.604,0,175,175,70,1,,,5a9be9db6219a30001d34f1b,61b9009dbdd9e3a3d2d1d7e2,2021-12-14_20h38.05.093,PRaM,2021.2.3,Win32,60.0240096,61b8f3437b89212fae0dfadf
,,space,1.2866,0,176,176,32,1,,,5a9be9db6219a30001d34f1b,61b9009dbdd9e3a3d2d1d7e2,2021-12-14_20h38.05.093,PRaM,2021.2.3,Win32,60.0240096,61b8f3437b89212fae0dfadf
,,space,0.3219,0,177,177,267,1,,,5a9be9db6219a30001d34f1b,61b9009dbdd9e3a3d2d1d7e2,2021-12-14_20h38.05.093,PRaM,2021.2.3,Win32,60.0240096,61b8f3437b89212fae0dfadf
,,space,1.5012,0,178,178,312,1,,,5a9be9db6219a30001d34f1b,61b9009dbdd9e3a3d2d1d7e2,2021-12-14_20h38.05.093,PRaM,2021.2.3,Win32,60.0240096,61b8f3437b89212fae0dfadf
,,space,0.1533,0,179,179,183,1,,,5a9be9db6219a30001d34f1b,61b9009dbdd9e3a3d2d1d7e2,2021-12-14_20h38.05.093,PRaM,2021.2.3,Win32,60.0240096,61b8f3437b89212fae0dfadf
,,space,0.6036,0,180,180,110,1,,,5a9be9db6219a30001d34f1b,61b9009dbdd9e3a3d2d1d7e2,2021-12-14_20h38.05.093,PRaM,2021.2.3,Win32,60.0240096,61b8f3437b89212fae0dfadf
,,space,2.0851,0,181,181,52,1,,,5a9be9db6219a30001d34f1b,61b9009dbdd9e3a3d2d1d7e2,2021-12-14_20h38.05.093,PRaM,2021.2.3,Win32,60.0240096,61b8f3437b89212fae0dfadf
,,space,0.2234,0,182,182,361,1,,,5a9be9db6219a30001d34f1b,61b9009dbdd9e3a3d2d1d7e2,2021-12-14_20h38.05.093,PRaM,2021.2.3,Win32,60.0240096,61b8f3437b89212fae0dfadf
,,space,3.202,0,183,183,194,1,,,5a9be9db6219a30001d34f1b,61b9009dbdd9e3a3d2d1d7e2,2021-12-14_20h38.05.093,PRaM,2021.2.3,Win32,60.0240096,61b8f3437b89212fae0dfadf
,,space,0.788,0,184,184,207,1,,,5a9be9db6219a30001d34f1b,61b9009dbdd9e3a3d2d1d7e2,2021-12-14_20h38.05.093,PRaM,2021.2.3,Win32,60.0240096,61b8f3437b89212fae0dfadf
,,space,1.6672,0,185,185,280,1,,,5a9be9db6219a30001d34f1b,61b9009dbdd9e3a3d2d1d7e2,2021-12-14_20h38.05.093,PRaM,2021.2.3,Win32,60.0240096,61b8f3437b89212fae0dfadf
,,space,0.0225,0,186,186,152,1,,,5a9be9db6219a30001d34f1b,61b9009dbdd9e3a3d2d1d7e2,2021-12-14_20h38.05.093,PRaM,2021.2.3,Win32,60.0240096,61b8f3437b89212fae0dfadf
,,space,2.4235,0,187,187,367,1,,,5a9be9db6219a30001d34f1b,61b9009dbdd9e3a3d2d1d7e2,2021-12-14_20h38.05.093,PRaM,2021.2.3,Win32,60.0240096,61b8f3437b89212fae0dfadf
,,space,2.2065,0,188,188,127,1,,,5a9be9db6219a30001d34f1b,61b9009dbdd9e3a3d2d1d7e2,2021-12-14_20h38.05.093,PRaM,2021.2.3,Win32,60.0240096,61b8f3437b89212fae0dfadf
,,space,3.6023,0,189,189,85,1,,,5a9be9db6219a30001d34f1b,61b9009dbdd9e3a3d2d1d7e2,2021-12-14_20h38.05.093,PRaM,2021.2.3,Win32,60.0240096,61b8f3437b89212fae0dfadf
,,space,2.1768,0,190,190,4,1,,,5a9be9db6219a30001d34f1b,61b9009dbdd9e3a3d2d1d7e2,2021-12-14_20h38.05.093,PRaM,2021.2.3,Win32,60.0240096,61b8f3437b89212fae0dfadf
,,space,1.2575,0,191,191,308,1,,,5a9be9db6219a30001d34f1b,61b9009dbdd9e3a3d2d1d7e2,2021-12-14_20h38.05.093,PRaM,2021.2.3,Win32,60.0240096,61b8f3437b89212fae0dfadf
,,space,1.0343,0,192,192,290,1,,,5a9be9db6219a30001d34f1b,61b9009dbdd9e3a3d2d1d7e2,2021-12-14_20h38.05.093,PRaM,2021.2.3,Win32,60.0240096,61b8f3437b89212fae0dfadf
,,space,0.7858,0,193,193,294,1,,,5a9be9db6219a30001d34f1b,61b9009dbdd9e3a3d2d1d7e2,2021-12-14_20h38.05.093,PRaM,2021.2.3,Win32,60.0240096,61b8f3437b89212fae0dfadf
,,space,1.9195,0,194,194,69,1,,,5a9be9db6219a30001d34f1b,61b9009dbdd9e3a3d2d1d7e2,2021-12-14_20h38.05.093,PRaM,2021.2.3,Win32,60.0240096,61b8f3437b89212fae0dfadf
,,space,3.0516,0,195,195,88,1,,,5a9be9db6219a30001d34f1b,61b9009dbdd9e3a3d2d1d7e2,2021-12-14_20h38.05.093,PRaM,2021.2.3,Win32,60.0240096,61b8f3437b89212fae0dfadf
,,space,2.001,0,196,196,329,1,,,5a9be9db6219a30001d34f1b,61b9009dbdd9e3a3d2d1d7e2,2021-12-14_20h38.05.093,PRaM,2021.2.3,Win32,60.0240096,61b8f3437b89212fae0dfadf
,,space,3.1523,0,197,197,282,1,,,5a9be9db6219a30001d34f1b,61b9009dbdd9e3a3d2d1d7e2,2021-12-14_20h38.05.093,PRaM,2021.2.3,Win32,60.0240096,61b8f3437b89212fae0dfadf
,,space,3.0345,0,198,198,216,1,,,5a9be9db6219a30001d34f1b,61b9009dbdd9e3a3d2d1d7e2,2021-12-14_20h38.05.093,PRaM,2021.2.3,Win32,60.0240096,61b8f3437b89212fae0dfadf
,,space,5.9432,0,199,199,241,1,,,5a9be9db6219a30001d34f1b,61b9009dbdd9e3a3d2d1d7e2,2021-12-14_20h38.05.093,PRaM,2021.2.3,Win32,60.0240096,61b8f3437b89212fae0dfadf
,,space,4.503,0,200,200,166,1,,,5a9be9db6219a30001d34f1b,61b9009dbdd9e3a3d2d1d7e2,2021-12-14_20h38.05.093,PRaM,2021.2.3,Win32,60.0240096,61b8f3437b89212fae0dfadf
,,space,2.8248,0,201,201,188,1,,,5a9be9db6219a30001d34f1b,61b9009dbdd9e3a3d2d1d7e2,2021-12-14_20h38.05.093,PRaM,2021.2.3,Win32,60.0240096,61b8f3437b89212fae0dfadf
,,space,2.2035,0,202,202,24,1,,,5a9be9db6219a30001d34f1b,61b9009dbdd9e3a3d2d1d7e2,2021-12-14_20h38.05.093,PRaM,2021.2.3,Win32,60.0240096,61b8f3437b89212fae0dfadf
,,space,2.322,0,203,203,48,1,,,5a9be9db6219a30001d34f1b,61b9009dbdd9e3a3d2d1d7e2,2021-12-14_20h38.05.093,PRaM,2021.2.3,Win32,60.0240096,61b8f3437b89212fae0dfadf
,,space,1.0028,0,204,204,115,1,,,5a9be9db6219a30001d34f1b,61b9009dbdd9e3a3d2d1d7e2,2021-12-14_20h38.05.093,PRaM,2021.2.3,Win32,60.0240096,61b8f3437b89212fae0dfadf
,,space,2.473,0,205,205,75,1,,,5a9be9db6219a30001d34f1b,61b9009dbdd9e3a3d2d1d7e2,2021-12-14_20h38.05.093,PRaM,2021.2.3,Win32,60.0240096,61b8f3437b89212fae0dfadf
,,space,2.9176,0,206,206,331,1,,,5a9be9db6219a30001d34f1b,61b9009dbdd9e3a3d2d1d7e2,2021-12-14_20h38.05.093,PRaM,2021.2.3,Win32,60.0240096,61b8f3437b89212fae0dfadf
,,space,1.7527,0,207,207,337,1,,,5a9be9db6219a30001d34f1b,61b9009dbdd9e3a3d2d1d7e2,2021-12-14_20h38.05.093,PRaM,2021.2.3,Win32,60.0240096,61b8f3437b89212fae0dfadf
,,space,1.4497,0,208,208,204,1,,,5a9be9db6219a30001d34f1b,61b9009dbdd9e3a3d2d1d7e2,2021-12-14_20h38.05.093,PRaM,2021.2.3,Win32,60.0240096,61b8f3437b89212fae0dfadf
,,space,0.6378,0,209,209,130,1,,,5a9be9db6219a30001d34f1b,61b9009dbdd9e3a3d2d1d7e2,2021-12-14_20h38.05.093,PRaM,2021.2.3,Win32,60.0240096,61b8f3437b89212fae0dfadf
,,space,5.166,0,210,210,102,1,,,5a9be9db6219a30001d34f1b,61b9009dbdd9e3a3d2d1d7e2,2021-12-14_20h38.05.093,PRaM,2021.2.3,Win32,60.0240096,61b8f3437b89212fae0dfadf
,,space,0.9017,0,211,211,301,1,,,5a9be9db6219a30001d34f1b,61b9009dbdd9e3a3d2d1d7e2,2021-12-14_20h38.05.093,PRaM,2021.2.3,Win32,60.0240096,61b8f3437b89212fae0dfadf
,,space,1.4236,0,212,212,273,1,,,5a9be9db6219a30001d34f1b,61b9009dbdd9e3a3d2d1d7e2,2021-12-14_20h38.05.093,PRaM,2021.2.3,Win32,60.0240096,61b8f3437b89212fae0dfadf
,,space,2.4103,0,213,213,336,1,,,5a9be9db6219a30001d34f1b,61b9009dbdd9e3a3d2d1d7e2,2021-12-14_20h38.05.093,PRaM,2021.2.3,Win32,60.0240096,61b8f3437b89212fae0dfadf
,,space,1.3596,0,214,214,223,1,,,5a9be9db6219a30001d34f1b,61b9009dbdd9e3a3d2d1d7e2,2021-12-14_20h38.05.093,PRaM,2021.2.3,Win32,60.0240096,61b8f3437b89212fae0dfadf
,,space,1.0343,0,215,215,263,1,,,5a9be9db6219a30001d34f1b,61b9009dbdd9e3a3d2d1d7e2,2021-12-14_20h38.05.093,PRaM,2021.2.3,Win32,60.0240096,61b8f3437b89212fae0dfadf
,,space,4.0193,0,216,216,55,1,,,5a9be9db6219a30001d34f1b,61b9009dbdd9e3a3d2d1d7e2,2021-12-14_20h38.05.093,PRaM,2021.2.3,Win32,60.0240096,61b8f3437b89212fae0dfadf
,,space,2.0518,0,217,217,213,1,,,5a9be9db6219a30001d34f1b,61b9009dbdd9e3a3d2d1d7e2,2021-12-14_20h38.05.093,PRaM,2021.2.3,Win32,60.0240096,61b8f3437b89212fae0dfadf
,,space,2.1893,0,218,218,242,1,,,5a9be9db6219a30001d34f1b,61b9009dbdd9e3a3d2d1d7e2,2021-12-14_20h38.05.093,PRaM,2021.2.3,Win32,60.0240096,61b8f3437b89212fae0dfadf
,,space,3.2677,0,219,219,350,1,,,5a9be9db6219a30001d34f1b,61b9009dbdd9e3a3d2d1d7e2,2021-12-14_20h38.05.093,PRaM,2021.2.3,Win32,60.0240096,61b8f3437b89212fae0dfadf
,,space,3.9082,0,220,220,228,1,,,5a9be9db6219a30001d34f1b,61b9009dbdd9e3a3d2d1d7e2,2021-12-14_20h38.05.093,PRaM,2021.2.3,Win32,60.0240096,61b8f3437b89212fae0dfadf
,,space,0.2192,0,221,221,255,1,,,5a9be9db6219a30001d34f1b,61b9009dbdd9e3a3d2d1d7e2,2021-12-14_20h38.05.093,PRaM,2021.2.3,Win32,60.0240096,61b8f3437b89212fae0dfadf
,,space,0.1686,0,222,222,73,1,,,5a9be9db6219a30001d34f1b,61b9009dbdd9e3a3d2d1d7e2,2021-12-14_20h38.05.093,PRaM,2021.2.3,Win32,60.0240096,61b8f3437b89212fae0dfadf
,,space,2.2562,0,223,223,191,1,,,5a9be9db6219a30001d34f1b,61b9009dbdd9e3a3d2d1d7e2,2021-12-14_20h38.05.093,PRaM,2021.2.3,Win32,60.0240096,61b8f3437b89212fae0dfadf
,,space,0.8611,0,224,224,107,1,,,5a9be9db6219a30001d34f1b,61b9009dbdd9e3a3d2d1d7e2,2021-12-14_20h38.05.093,PRaM,2021.2.3,Win32,60.0240096,61b8f3437b89212fae0dfadf
,,space,1.6693,0,225,225,349,1,,,5a9be9db6219a30001d34f1b,61b9009dbdd9e3a3d2d1d7e2,2021-12-14_20h38.05.093,PRaM,2021.2.3,Win32,60.0240096,61b8f3437b89212fae0dfadf
,,space,1.0368,0,226,226,84,1,,,5a9be9db6219a30001d34f1b,61b9009dbdd9e3a3d2d1d7e2,2021-12-14_20h38.05.093,PRaM,2021.2.3,Win32,60.0240096,61b8f3437b89212fae0dfadf
,,space,2.2512,0,227,227,179,1,,,5a9be9db6219a30001d34f1b,61b9009dbdd9e3a3d2d1d7e2,2021-12-14_20h38.05.093,PRaM,2021.2.3,Win32,60.0240096,61b8f3437b89212fae0dfadf
,,space,0.6534,0,228,228,77,1,,,5a9be9db6219a30001d34f1b,61b9009dbdd9e3a3d2d1d7e2,2021-12-14_20h38.05.093,PRaM,2021.2.3,Win32,60.0240096,61b8f3437b89212fae0dfadf
,,space,0.9841,0,229,229,309,1,,,5a9be9db6219a30001d34f1b,61b9009dbdd9e3a3d2d1d7e2,2021-12-14_20h38.05.093,PRaM,2021.2.3,Win32,60.0240096,61b8f3437b89212fae0dfadf
,,space,4.3073,0,230,230,260,1,,,5a9be9db6219a30001d34f1b,61b9009dbdd9e3a3d2d1d7e2,2021-12-14_20h38.05.093,PRaM,2021.2.3,Win32,60.0240096,61b8f3437b89212fae0dfadf
,,space,1.285,0,231,231,122,1,,,5a9be9db6219a30001d34f1b,61b9009dbdd9e3a3d2d1d7e2,2021-12-14_20h38.05.093,PRaM,2021.2.3,Win32,60.0240096,61b8f3437b89212fae0dfadf
,,space,1.2692,0,232,232,131,1,,,5a9be9db6219a30001d34f1b,61b9009dbdd9e3a3d2d1d7e2,2021-12-14_20h38.05.093,PRaM,2021.2.3,Win32,60.0240096,61b8f3437b89212fae0dfadf
,,space,0.2034,0,233,233,105,1,,,5a9be9db6219a30001d34f1b,61b9009dbdd9e3a3d2d1d7e2,2021-12-14_20h38.05.093,PRaM,2021.2.3,Win32,60.0240096,61b8f3437b89212fae0dfadf
,,space,0.839,0,234,234,261,1,,,5a9be9db6219a30001d34f1b,61b9009dbdd9e3a3d2d1d7e2,2021-12-14_20h38.05.093,PRaM,2021.2.3,Win32,60.0240096,61b8f3437b89212fae0dfadf
,,space,0.8564,0,235,235,229,1,,,5a9be9db6219a30001d34f1b,61b9009dbdd9e3a3d2d1d7e2,2021-12-14_20h38.05.093,PRaM,2021.2.3,Win32,60.0240096,61b8f3437b89212fae0dfadf
,,space,1.6035,0,236,236,249,1,,,5a9be9db6219a30001d34f1b,61b9009dbdd9e3a3d2d1d7e2,2021-12-14_20h38.05.093,PRaM,2021.2.3,Win32,60.0240096,61b8f3437b89212fae0dfadf
,,space,1.4902,0,237,237,300,1,,,5a9be9db6219a30001d34f1b,61b9009dbdd9e3a3d2d1d7e2,2021-12-14_20h38.05.093,PRaM,2021.2.3,Win32,60.0240096,61b8f3437b89212fae0dfadf
,,space,1.1183,0,238,238,325,1,,,5a9be9db6219a30001d34f1b,61b9009dbdd9e3a3d2d1d7e2,2021-12-14_20h38.05.093,PRaM,2021.2.3,Win32,60.0240096,61b8f3437b89212fae0dfadf
,,space,1.22,0,239,239,154,1,,,5a9be9db6219a30001d34f1b,61b9009dbdd9e3a3d2d1d7e2,2021-12-14_20h38.05.093,PRaM,2021.2.3,Win32,60.0240096,61b8f3437b89212fae0dfadf
,,space,2.0898,0,240,240,356,1,,,5a9be9db6219a30001d34f1b,61b9009dbdd9e3a3d2d1d7e2,2021-12-14_20h38.05.093,PRaM,2021.2.3,Win32,60.0240096,61b8f3437b89212fae0dfadf
,,space,0.8211,0,241,241,232,1,,,5a9be9db6219a30001d34f1b,61b9009dbdd9e3a3d2d1d7e2,2021-12-14_20h38.05.093,PRaM,2021.2.3,Win32,60.0240096,61b8f3437b89212fae0dfadf
,,space,1.3847,0,242,242,283,1,,,5a9be9db6219a30001d34f1b,61b9009dbdd9e3a3d2d1d7e2,2021-12-14_20h38.05.093,PRaM,2021.2.3,Win32,60.0240096,61b8f3437b89212fae0dfadf
,,space,0.5025,0,243,243,334,1,,,5a9be9db6219a30001d34f1b,61b9009dbdd9e3a3d2d1d7e2,2021-12-14_20h38.05.093,PRaM,2021.2.3,Win32,60.0240096,61b8f3437b89212fae0dfadf
,,space,0.0849,0,244,244,345,1,,,5a9be9db6219a30001d34f1b,61b9009dbdd9e3a3d2d1d7e2,2021-12-14_20h38.05.093,PRaM,2021.2.3,Win32,60.0240096,61b8f3437b89212fae0dfadf
,,space,0.1036,0,245,245,165,1,,,5a9be9db6219a30001d34f1b,61b9009dbdd9e3a3d2d1d7e2,2021-12-14_20h38.05.093,PRaM,2021.2.3,Win32,60.0240096,61b8f3437b89212fae0dfadf
,,space,1.5688,0,246,246,109,1,,,5a9be9db6219a30001d34f1b,61b9009dbdd9e3a3d2d1d7e2,2021-12-14_20h38.05.093,PRaM,2021.2.3,Win32,60.0240096,61b8f3437b89212fae0dfadf
,,space,0.7697,0,247,247,5,1,,,5a9be9db6219a30001d34f1b,61b9009dbdd9e3a3d2d1d7e2,2021-12-14_20h38.05.093,PRaM,2021.2.3,Win32,60.0240096,61b8f3437b89212fae0dfadf
,,space,0.044,0,248,248,205,1,,,5a9be9db6219a30001d34f1b,61b9009dbdd9e3a3d2d1d7e2,2021-12-14_20h38.05.093,PRaM,2021.2.3,Win32,60.0240096,61b8f3437b89212fae0dfadf
,,space,1.7569,0,249,249,108,1,,,5a9be9db6219a30001d34f1b,61b9009dbdd9e3a3d2d1d7e2,2021-12-14_20h38.05.093,PRaM,2021.2.3,Win32,60.0240096,61b8f3437b89212fae0dfadf
,,space,0.7517,0,250,250,121,1,,,5a9be9db6219a30001d34f1b,61b9009dbdd9e3a3d2d1d7e2,2021-12-14_20h38.05.093,PRaM,2021.2.3,Win32,60.0240096,61b8f3437b89212fae0dfadf
,,space,1.6843,0,251,251,54,1,,,5a9be9db6219a30001d34f1b,61b9009dbdd9e3a3d2d1d7e2,2021-12-14_20h38.05.093,PRaM,2021.2.3,Win32,60.0240096,61b8f3437b89212fae0dfadf
,,space,2.246,0,252,252,178,1,,,5a9be9db6219a30001d34f1b,61b9009dbdd9e3a3d2d1d7e2,2021-12-14_20h38.05.093,PRaM,2021.2.3,Win32,60.0240096,61b8f3437b89212fae0dfadf
,,space,1.1588,0,253,253,234,1,,,5a9be9db6219a30001d34f1b,61b9009dbdd9e3a3d2d1d7e2,2021-12-14_20h38.05.093,PRaM,2021.2.3,Win32,60.0240096,61b8f3437b89212fae0dfadf
,,space,2.0753,0,254,254,158,1,,,5a9be9db6219a30001d34f1b,61b9009dbdd9e3a3d2d1d7e2,2021-12-14_20h38.05.093,PRaM,2021.2.3,Win32,60.0240096,61b8f3437b89212fae0dfadf
,,space,1.5682,0,255,255,268,1,,,5a9be9db6219a30001d34f1b,61b9009dbdd9e3a3d2d1d7e2,2021-12-14_20h38.05.093,PRaM,2021.2.3,Win32,60.0240096,61b8f3437b89212fae0dfadf
,,space,2.4357,0,256,256,22,1,,,5a9be9db6219a30001d34f1b,61b9009dbdd9e3a3d2d1d7e2,2021-12-14_20h38.05.093,PRaM,2021.2.3,Win32,60.0240096,61b8f3437b89212fae0dfadf
,,space,1.3338,0,257,257,78,1,,,5a9be9db6219a30001d34f1b,61b9009dbdd9e3a3d2d1d7e2,2021-12-14_20h38.05.093,PRaM,2021.2.3,Win32,60.0240096,61b8f3437b89212fae0dfadf
,,space,2.9357,0,258,258,269,1,,,5a9be9db6219a30001d34f1b,61b9009dbdd9e3a3d2d1d7e2,2021-12-14_20h38.05.093,PRaM,2021.2.3,Win32,60.0240096,61b8f3437b89212fae0dfadf
,,space,6.1765,0,259,259,195,1,,,5a9be9db6219a30001d34f1b,61b9009dbdd9e3a3d2d1d7e2,2021-12-14_20h38.05.093,PRaM,2021.2.3,Win32,60.0240096,61b8f3437b89212fae0dfadf
,,space,2.8247,0,260,260,90,1,,,5a9be9db6219a30001d34f1b,61b9009dbdd9e3a3d2d1d7e2,2021-12-14_20h38.05.093,PRaM,2021.2.3,Win32,60.0240096,61b8f3437b89212fae0dfadf
,,space,2.3052,0,261,261,126,1,,,5a9be9db6219a30001d34f1b,61b9009dbdd9e3a3d2d1d7e2,2021-12-14_20h38.05.093,PRaM,2021.2.3,Win32,60.0240096,61b8f3437b89212fae0dfadf
,,space,2.1168,0,262,262,343,1,,,5a9be9db6219a30001d34f1b,61b9009dbdd9e3a3d2d1d7e2,2021-12-14_20h38.05.093,PRaM,2021.2.3,Win32,60.0240096,61b8f3437b89212fae0dfadf
,,space,4.5038,0,263,263,68,1,,,5a9be9db6219a30001d34f1b,61b9009dbdd9e3a3d2d1d7e2,2021-12-14_20h38.05.093,PRaM,2021.2.3,Win32,60.0240096,61b8f3437b89212fae0dfadf
,,space,1.3363,0,264,264,62,1,,,5a9be9db6219a30001d34f1b,61b9009dbdd9e3a3d2d1d7e2,2021-12-14_20h38.05.093,PRaM,2021.2.3,Win32,60.0240096,61b8f3437b89212fae0dfadf
,,space,2.2412,0,265,265,95,1,,,5a9be9db6219a30001d34f1b,61b9009dbdd9e3a3d2d1d7e2,2021-12-14_20h38.05.093,PRaM,2021.2.3,Win32,60.0240096,61b8f3437b89212fae0dfadf
,,space,0.952,0,266,266,317,1,,,5a9be9db6219a30001d34f1b,61b9009dbdd9e3a3d2d1d7e2,2021-12-14_20h38.05.093,PRaM,2021.2.3,Win32,60.0240096,61b8f3437b89212fae0dfadf
,,space,1.1858,0,267,267,365,1,,,5a9be9db6219a30001d34f1b,61b9009dbdd9e3a3d2d1d7e2,2021-12-14_20h38.05.093,PRaM,2021.2.3,Win32,60.0240096,61b8f3437b89212fae0dfadf
,,space,3.1013,0,268,268,21,1,,,5a9be9db6219a30001d34f1b,61b9009dbdd9e3a3d2d1d7e2,2021-12-14_20h38.05.093,PRaM,2021.2.3,Win32,60.0240096,61b8f3437b89212fae0dfadf
,,space,3.2676,0,269,269,143,1,,,5a9be9db6219a30001d34f1b,61b9009dbdd9e3a3d2d1d7e2,2021-12-14_20h38.05.093,PRaM,2021.2.3,Win32,60.0240096,61b8f3437b89212fae0dfadf
,,space,0.2843,0,270,270,199,1,,,5a9be9db6219a30001d34f1b,61b9009dbdd9e3a3d2d1d7e2,2021-12-14_20h38.05.093,PRaM,2021.2.3,Win32,60.0240096,61b8f3437b89212fae0dfadf
,,space,2.8371,0,271,271,186,1,,,5a9be9db6219a30001d34f1b,61b9009dbdd9e3a3d2d1d7e2,2021-12-14_20h38.05.093,PRaM,2021.2.3,Win32,60.0240096,61b8f3437b89212fae0dfadf
,,space,5.2896,0,272,272,19,1,,,5a9be9db6219a30001d34f1b,61b9009dbdd9e3a3d2d1d7e2,2021-12-14_20h38.05.093,PRaM,2021.2.3,Win32,60.0240096,61b8f3437b89212fae0dfadf
,,space,2.7742,0,273,273,370,1,,,5a9be9db6219a30001d34f1b,61b9009dbdd9e3a3d2d1d7e2,2021-12-14_20h38.05.093,PRaM,2021.2.3,Win32,60.0240096,61b8f3437b89212fae0dfadf
,,space,2.0746,0,274,274,11,1,,,5a9be9db6219a30001d34f1b,61b9009dbdd9e3a3d2d1d7e2,2021-12-14_20h38.05.093,PRaM,2021.2.3,Win32,60.0240096,61b8f3437b89212fae0dfadf
,,space,1.8681,0,275,275,160,1,,,5a9be9db6219a30001d34f1b,61b9009dbdd9e3a3d2d1d7e2,2021-12-14_20h38.05.093,PRaM,2021.2.3,Win32,60.0240096,61b8f3437b89212fae0dfadf
,,space,1.0878,0,276,276,45,1,,,5a9be9db6219a30001d34f1b,61b9009dbdd9e3a3d2d1d7e2,2021-12-14_20h38.05.093,PRaM,2021.2.3,Win32,60.0240096,61b8f3437b89212fae0dfadf
,,space,1.3161,0,277,277,64,1,,,5a9be9db6219a30001d34f1b,61b9009dbdd9e3a3d2d1d7e2,2021-12-14_20h38.05.093,PRaM,2021.2.3,Win32,60.0240096,61b8f3437b89212fae0dfadf
,,space,0.5095,0,278,278,140,1,,,5a9be9db6219a30001d34f1b,61b9009dbdd9e3a3d2d1d7e2,2021-12-14_20h38.05.093,PRaM,2021.2.3,Win32,60.0240096,61b8f3437b89212fae0dfadf
,,space,1.2607,0,279,279,34,1,,,5a9be9db6219a30001d34f1b,61b9009dbdd9e3a3d2d1d7e2,2021-12-14_20h38.05.093,PRaM,2021.2.3,Win32,60.0240096,61b8f3437b89212fae0dfadf
,,space,0.0724,0,280,280,20,1,,,5a9be9db6219a30001d34f1b,61b9009dbdd9e3a3d2d1d7e2,2021-12-14_20h38.05.093,PRaM,2021.2.3,Win32,60.0240096,61b8f3437b89212fae0dfadf
,,space,0.7359,0,281,281,220,1,,,5a9be9db6219a30001d34f1b,61b9009dbdd9e3a3d2d1d7e2,2021-12-14_20h38.05.093,PRaM,2021.2.3,Win32,60.0240096,61b8f3437b89212fae0dfadf
,,space,3.1003,0,282,282,352,1,,,5a9be9db6219a30001d34f1b,61b9009dbdd9e3a3d2d1d7e2,2021-12-14_20h38.05.093,PRaM,2021.2.3,Win32,60.0240096,61b8f3437b89212fae0dfadf
,,space,0.5008,0,283,283,189,1,,,5a9be9db6219a30001d34f1b,61b9009dbdd9e3a3d2d1d7e2,2021-12-14_20h38.05.093,PRaM,2021.2.3,Win32,60.0240096,61b8f3437b89212fae0dfadf
,,space,2.302,0,284,284,277,1,,,5a9be9db6219a30001d34f1b,61b9009dbdd9e3a3d2d1d7e2,2021-12-14_20h38.05.093,PRaM,2021.2.3,Win32,60.0240096,61b8f3437b89212fae0dfadf
,,space,1.7833,0,285,285,375,1,,,5a9be9db6219a30001d34f1b,61b9009dbdd9e3a3d2d1d7e2,2021-12-14_20h38.05.093,PRaM,2021.2.3,Win32,60.0240096,61b8f3437b89212fae0dfadf
,,space,0.9345,0,286,286,209,1,,,5a9be9db6219a30001d34f1b,61b9009dbdd9e3a3d2d1d7e2,2021-12-14_20h38.05.093,PRaM,2021.2.3,Win32,60.0240096,61b8f3437b89212fae0dfadf
,,space,1.0774,0,287,287,218,1,,,5a9be9db6219a30001d34f1b,61b9009dbdd9e3a3d2d1d7e2,2021-12-14_20h38.05.093,PRaM,2021.2.3,Win32,60.0240096,61b8f3437b89212fae0dfadf
,,space,0.4345,0,288,288,180,1,,,5a9be9db6219a30001d34f1b,61b9009dbdd9e3a3d2d1d7e2,2021-12-14_20h38.05.093,PRaM,2021.2.3,Win32,60.0240096,61b8f3437b89212fae0dfadf
,,space,1.8675,0,289,289,358,1,,,5a9be9db6219a30001d34f1b,61b9009dbdd9e3a3d2d1d7e2,2021-12-14_20h38.05.093,PRaM,2021.2.3,Win32,60.0240096,61b8f3437b89212fae0dfadf
,,space,1.1728,0,290,290,25,1,,,5a9be9db6219a30001d34f1b,61b9009dbdd9e3a3d2d1d7e2,2021-12-14_20h38.05.093,PRaM,2021.2.3,Win32,60.0240096,61b8f3437b89212fae0dfadf
,,space,0.2764,0,291,291,151,1,,,5a9be9db6219a30001d34f1b,61b9009dbdd9e3a3d2d1d7e2,2021-12-14_20h38.05.093,PRaM,2021.2.3,Win32,60.0240096,61b8f3437b89212fae0dfadf
,,space,1.537,0,292,292,38,1,,,5a9be9db6219a30001d34f1b,61b9009dbdd9e3a3d2d1d7e2,2021-12-14_20h38.05.093,PRaM,2021.2.3,Win32,60.0240096,61b8f3437b89212fae0dfadf
,,space,2.6512,0,293,293,17,1,,,5a9be9db6219a30001d34f1b,61b9009dbdd9e3a3d2d1d7e2,2021-12-14_20h38.05.093,PRaM,2021.2.3,Win32,60.0240096,61b8f3437b89212fae0dfadf
,,space,1.2007,0,294,294,145,1,,,5a9be9db6219a30001d34f1b,61b9009dbdd9e3a3d2d1d7e2,2021-12-14_20h38.05.093,PRaM,2021.2.3,Win32,60.0240096,61b8f3437b89212fae0dfadf
,,space,0.6294,0,295,295,141,1,,,5a9be9db6219a30001d34f1b,61b9009dbdd9e3a3d2d1d7e2,2021-12-14_20h38.05.093,PRaM,2021.2.3,Win32,60.0240096,61b8f3437b89212fae0dfadf
,,space,8.5891,0,296,296,31,1,,,5a9be9db6219a30001d34f1b,61b9009dbdd9e3a3d2d1d7e2,2021-12-14_20h38.05.093,PRaM,2021.2.3,Win32,60.0240096,61b8f3437b89212fae0dfadf
,,space,2.3836,0,297,297,200,1,,,5a9be9db6219a30001d34f1b,61b9009dbdd9e3a3d2d1d7e2,2021-12-14_20h38.05.093,PRaM,2021.2.3,Win32,60.0240096,61b8f3437b89212fae0dfadf
,,space,2.2386,0,298,298,56,1,,,5a9be9db6219a30001d34f1b,61b9009dbdd9e3a3d2d1d7e2,2021-12-14_20h38.05.093,PRaM,2021.2.3,Win32,60.0240096,61b8f3437b89212fae0dfadf
,,space,1.1176,0,299,299,35,1,,,5a9be9db6219a30001d34f1b,61b9009dbdd9e3a3d2d1d7e2,2021-12-14_20h38.05.093,PRaM,2021.2.3,Win32,60.0240096,61b8f3437b89212fae0dfadf
,,space,2.1509,0,300,300,373,1,,,5a9be9db6219a30001d34f1b,61b9009dbdd9e3a3d2d1d7e2,2021-12-14_20h38.05.093,PRaM,2021.2.3,Win32,60.0240096,61b8f3437b89212fae0dfadf
,,space,1.9864,0,301,301,257,1,,,5a9be9db6219a30001d34f1b,61b9009dbdd9e3a3d2d1d7e2,2021-12-14_20h38.05.093,PRaM,2021.2.3,Win32,60.0240096,61b8f3437b89212fae0dfadf
,,space,1.1555,0,302,302,233,1,,,5a9be9db6219a30001d34f1b,61b9009dbdd9e3a3d2d1d7e2,2021-12-14_20h38.05.093,PRaM,2021.2.3,Win32,60.0240096,61b8f3437b89212fae0dfadf
,,space,2.5088,0,303,303,149,1,,,5a9be9db6219a30001d34f1b,61b9009dbdd9e3a3d2d1d7e2,2021-12-14_20h38.05.093,PRaM,2021.2.3,Win32,60.0240096,61b8f3437b89212fae0dfadf
,,space,1.5352,0,304,304,190,1,,,5a9be9db6219a30001d34f1b,61b9009dbdd9e3a3d2d1d7e2,2021-12-14_20h38.05.093,PRaM,2021.2.3,Win32,60.0240096,61b8f3437b89212fae0dfadf
,,space,1.2346,0,305,305,42,1,,,5a9be9db6219a30001d34f1b,61b9009dbdd9e3a3d2d1d7e2,2021-12-14_20h38.05.093,PRaM,2021.2.3,Win32,60.0240096,61b8f3437b89212fae0dfadf
,,space,1.7383,0,306,306,306,1,,,5a9be9db6219a30001d34f1b,61b9009dbdd9e3a3d2d1d7e2,2021-12-14_20h38.05.093,PRaM,2021.2.3,Win32,60.0240096,61b8f3437b89212fae0dfadf
,,space,2.5342,0,307,307,163,1,,,5a9be9db6219a30001d34f1b,61b9009dbdd9e3a3d2d1d7e2,2021-12-14_20h38.05.093,PRaM,2021.2.3,Win32,60.0240096,61b8f3437b89212fae0dfadf
,,space,1.7042,0,308,308,251,1,,,5a9be9db6219a30001d34f1b,61b9009dbdd9e3a3d2d1d7e2,2021-12-14_20h38.05.093,PRaM,2021.2.3,Win32,60.0240096,61b8f3437b89212fae0dfadf
,,space,1.9882,0,309,309,98,1,,,5a9be9db6219a30001d34f1b,61b9009dbdd9e3a3d2d1d7e2,2021-12-14_20h38.05.093,PRaM,2021.2.3,Win32,60.0240096,61b8f3437b89212fae0dfadf
,,space,1.6733,0,310,310,324,1,,,5a9be9db6219a30001d34f1b,61b9009dbdd9e3a3d2d1d7e2,2021-12-14_20h38.05.093,PRaM,2021.2.3,Win32,60.0240096,61b8f3437b89212fae0dfadf
,,space,0.1691,0,311,311,351,1,,,5a9be9db6219a30001d34f1b,61b9009dbdd9e3a3d2d1d7e2,2021-12-14_20h38.05.093,PRaM,2021.2.3,Win32,60.0240096,61b8f3437b89212fae0dfadf
,,space,1.3511,0,312,312,296,1,,,5a9be9db6219a30001d34f1b,61b9009dbdd9e3a3d2d1d7e2,2021-12-14_20h38.05.093,PRaM,2021.2.3,Win32,60.0240096,61b8f3437b89212fae0dfadf
,,space,0.4075,0,313,313,129,1,,,5a9be9db6219a30001d34f1b,61b9009dbdd9e3a3d2d1d7e2,2021-12-14_20h38.05.093,PRaM,2021.2.3,Win32,60.0240096,61b8f3437b89212fae0dfadf
,,space,1.1692,0,314,314,322,1,,,5a9be9db6219a30001d34f1b,61b9009dbdd9e3a3d2d1d7e2,2021-12-14_20h38.05.093,PRaM,2021.2.3,Win32,60.0240096,61b8f3437b89212fae0dfadf
,,space,0.9699,0,315,315,295,1,,,5a9be9db6219a30001d34f1b,61b9009dbdd9e3a3d2d1d7e2,2021-12-14_20h38.05.093,PRaM,2021.2.3,Win32,60.0240096,61b8f3437b89212fae0dfadf
,,space,0.4393,0,316,316,258,1,,,5a9be9db6219a30001d34f1b,61b9009dbdd9e3a3d2d1d7e2,2021-12-14_20h38.05.093,PRaM,2021.2.3,Win32,60.0240096,61b8f3437b89212fae0dfadf
,,space,0.5402,0,317,317,302,1,,,5a9be9db6219a30001d34f1b,61b9009dbdd9e3a3d2d1d7e2,2021-12-14_20h38.05.093,PRaM,2021.2.3,Win32,60.0240096,61b8f3437b89212fae0dfadf
,,space,0.8834,0,318,318,51,1,,,5a9be9db6219a30001d34f1b,61b9009dbdd9e3a3d2d1d7e2,2021-12-14_20h38.05.093,PRaM,2021.2.3,Win32,60.0240096,61b8f3437b89212fae0dfadf
,,space,2.2359,0,319,319,286,1,,,5a9be9db6219a30001d34f1b,61b9009dbdd9e3a3d2d1d7e2,2021-12-14_20h38.05.093,PRaM,2021.2.3,Win32,60.0240096,61b8f3437b89212fae0dfadf
,,space,0.7429,0,320,320,111,1,,,5a9be9db6219a30001d34f1b,61b9009dbdd9e3a3d2d1d7e2,2021-12-14_20h38.05.093,PRaM,2021.2.3,Win32,60.0240096,61b8f3437b89212fae0dfadf
,,space,0.0897,0,321,321,162,1,,,5a9be9db6219a30001d34f1b,61b9009dbdd9e3a3d2d1d7e2,2021-12-14_20h38.05.093,PRaM,2021.2.3,Win32,60.0240096,61b8f3437b89212fae0dfadf
,,space,0.3756,0,322,322,146,1,,,5a9be9db6219a30001d34f1b,61b9009dbdd9e3a3d2d1d7e2,2021-12-14_20h38.05.093,PRaM,2021.2.3,Win32,60.0240096,61b8f3437b89212fae0dfadf
,,space,0.5744,0,323,323,172,1,,,5a9be9db6219a30001d34f1b,61b9009dbdd9e3a3d2d1d7e2,2021-12-14_20h38.05.093,PRaM,2021.2.3,Win32,60.0240096,61b8f3437b89212fae0dfadf
,,space,0.2055,0,324,324,271,1,,,5a9be9db6219a30001d34f1b,61b9009dbdd9e3a3d2d1d7e2,2021-12-14_20h38.05.093,PRaM,2021.2.3,Win32,60.0240096,61b8f3437b89212fae0dfadf
,,space,0.6898,0,325,325,265,1,,,5a9be9db6219a30001d34f1b,61b9009dbdd9e3a3d2d1d7e2,2021-12-14_20h38.05.093,PRaM,2021.2.3,Win32,60.0240096,61b8f3437b89212fae0dfadf
,,space,1.0522,0,326,326,63,1,,,5a9be9db6219a30001d34f1b,61b9009dbdd9e3a3d2d1d7e2,2021-12-14_20h38.05.093,PRaM,2021.2.3,Win32,60.0240096,61b8f3437b89212fae0dfadf
,,space,3.0193,0,327,327,197,1,,,5a9be9db6219a30001d34f1b,61b9009dbdd9e3a3d2d1d7e2,2021-12-14_20h38.05.093,PRaM,2021.2.3,Win32,60.0240096,61b8f3437b89212fae0dfadf
,,space,1.159,0,328,328,128,1,,,5a9be9db6219a30001d34f1b,61b9009dbdd9e3a3d2d1d7e2,2021-12-14_20h38.05.093,PRaM,2021.2.3,Win32,60.0240096,61b8f3437b89212fae0dfadf
,,space,1.37,0,329,329,314,1,,,5a9be9db6219a30001d34f1b,61b9009dbdd9e3a3d2d1d7e2,2021-12-14_20h38.05.093,PRaM,2021.2.3,Win32,60.0240096,61b8f3437b89212fae0dfadf
,,space,0.2523,0,330,330,262,1,,,5a9be9db6219a30001d34f1b,61b9009dbdd9e3a3d2d1d7e2,2021-12-14_20h38.05.093,PRaM,2021.2.3,Win32,60.0240096,61b8f3437b89212fae0dfadf
,,space,0.586,0,331,331,307,1,,,5a9be9db6219a30001d34f1b,61b9009dbdd9e3a3d2d1d7e2,2021-12-14_20h38.05.093,PRaM,2021.2.3,Win32,60.0240096,61b8f3437b89212fae0dfadf
,,space,0.8211,0,332,332,13,1,,,5a9be9db6219a30001d34f1b,61b9009dbdd9e3a3d2d1d7e2,2021-12-14_20h38.05.093,PRaM,2021.2.3,Win32,60.0240096,61b8f3437b89212fae0dfadf
,,space,1.3685,0,333,333,170,1,,,5a9be9db6219a30001d34f1b,61b9009dbdd9e3a3d2d1d7e2,2021-12-14_20h38.05.093,PRaM,2021.2.3,Win32,60.0240096,61b8f3437b89212fae0dfadf
,,space,1.2516,0,334,334,279,1,,,5a9be9db6219a30001d34f1b,61b9009dbdd9e3a3d2d1d7e2,2021-12-14_20h38.05.093,PRaM,2021.2.3,Win32,60.0240096,61b8f3437b89212fae0dfadf
,,space,1.9348,0,335,335,76,1,,,5a9be9db6219a30001d34f1b,61b9009dbdd9e3a3d2d1d7e2,2021-12-14_20h38.05.093,PRaM,2021.2.3,Win32,60.0240096,61b8f3437b89212fae0dfadf
,,space,0.4348,0,336,336,275,1,,,5a9be9db6219a30001d34f1b,61b9009dbdd9e3a3d2d1d7e2,2021-12-14_20h38.05.093,PRaM,2021.2.3,Win32,60.0240096,61b8f3437b89212fae0dfadf
,,space,0.4701,0,337,337,14,1,,,5a9be9db6219a30001d34f1b,61b9009dbdd9e3a3d2d1d7e2,2021-12-14_20h38.05.093,PRaM,2021.2.3,Win32,60.0240096,61b8f3437b89212fae0dfadf
,,space,0.3731,0,338,338,72,1,,,5a9be9db6219a30001d34f1b,61b9009dbdd9e3a3d2d1d7e2,2021-12-14_20h38.05.093,PRaM,2021.2.3,Win32,60.0240096,61b8f3437b89212fae0dfadf
,,space,3.2175,0,339,339,41,1,,,5a9be9db6219a30001d34f1b,61b9009dbdd9e3a3d2d1d7e2,2021-12-14_20h38.05.093,PRaM,2021.2.3,Win32,60.0240096,61b8f3437b89212fae0dfadf
,,space,1.8513,0,340,340,103,1,,,5a9be9db6219a30001d34f1b,61b9009dbdd9e3a3d2d1d7e2,2021-12-14_20h38.05.093,PRaM,2021.2.3,Win32,60.0240096,61b8f3437b89212fae0dfadf
,,space,0.9877,0,341,341,281,1,,,5a9be9db6219a30001d34f1b,61b9009dbdd9e3a3d2d1d7e2,2021-12-14_20h38.05.093,PRaM,2021.2.3,Win32,60.0240096,61b8f3437b89212fae0dfadf
,,space,0.6679,0,342,342,53,1,,,5a9be9db6219a30001d34f1b,61b9009dbdd9e3a3d2d1d7e2,2021-12-14_20h38.05.093,PRaM,2021.2.3,Win32,60.0240096,61b8f3437b89212fae0dfadf
,,space,1.7678,0,343,343,347,1,,,5a9be9db6219a30001d34f1b,61b9009dbdd9e3a3d2d1d7e2,2021-12-14_20h38.05.093,PRaM,2021.2.3,Win32,60.0240096,61b8f3437b89212fae0dfadf
,,space,1.0594,0,344,344,344,1,,,5a9be9db6219a30001d34f1b,61b9009dbdd9e3a3d2d1d7e2,2021-12-14_20h38.05.093,PRaM,2021.2.3,Win32,60.0240096,61b8f3437b89212fae0dfadf
,,space,2.6674,0,345,345,150,1,,,5a9be9db6219a30001d34f1b,61b9009dbdd9e3a3d2d1d7e2,2021-12-14_20h38.05.093,PRaM,2021.2.3,Win32,60.0240096,61b8f3437b89212fae0dfadf
,,space,0.5189,0,346,346,346,1,,,5a9be9db6219a30001d34f1b,61b9009dbdd9e3a3d2d1d7e2,2021-12-14_20h38.05.093,PRaM,2021.2.3,Win32,60.0240096,61b8f3437b89212fae0dfadf
,,space,0.5252,0,347,347,118,1,,,5a9be9db6219a30001d34f1b,61b9009dbdd9e3a3d2d1d7e2,2021-12-14_20h38.05.093,PRaM,2021.2.3,Win32,60.0240096,61b8f3437b89212fae0dfadf
,,space,0.6589,0,348,348,58,1,,,5a9be9db6219a30001d34f1b,61b9009dbdd9e3a3d2d1d7e2,2021-12-14_20h38.05.093,PRaM,2021.2.3,Win32,60.0240096,61b8f3437b89212fae0dfadf
,,space,0.458,0,349,349,104,1,,,5a9be9db6219a30001d34f1b,61b9009dbdd9e3a3d2d1d7e2,2021-12-14_20h38.05.093,PRaM,2021.2.3,Win32,60.0240096,61b8f3437b89212fae0dfadf
,,space,0.6443,0,350,350,291,1,,,5a9be9db6219a30001d34f1b,61b9009dbdd9e3a3d2d1d7e2,2021-12-14_20h38.05.093,PRaM,2021.2.3,Win32,60.0240096,61b8f3437b89212fae0dfadf
,,space,0.8509,0,351,351,175,1,,,5a9be9db6219a30001d34f1b,61b9009dbdd9e3a3d2d1d7e2,2021-12-14_20h38.05.093,PRaM,2021.2.3,Win32,60.0240096,61b8f3437b89212fae0dfadf
,,space,0.4001,0,352,352,164,1,,,5a9be9db6219a30001d34f1b,61b9009dbdd9e3a3d2d1d7e2,2021-12-14_20h38.05.093,PRaM,2021.2.3,Win32,60.0240096,61b8f3437b89212fae0dfadf
,,space,0.2277,0,353,353,342,1,,,5a9be9db6219a30001d34f1b,61b9009dbdd9e3a3d2d1d7e2,2021-12-14_20h38.05.093,PRaM,2021.2.3,Win32,60.0240096,61b8f3437b89212fae0dfadf
,,space,0.5718,0,354,354,187,1,,,5a9be9db6219a30001d34f1b,61b9009dbdd9e3a3d2d1d7e2,2021-12-14_20h38.05.093,PRaM,2021.2.3,Win32,60.0240096,61b8f3437b89212fae0dfadf
,,space,0.0208,0,355,355,238,1,,,5a9be9db6219a30001d34f1b,61b9009dbdd9e3a3d2d1d7e2,2021-12-14_20h38.05.093,PRaM,2021.2.3,Win32,60.0240096,61b8f3437b89212fae0dfadf
,,space,0.2593,0,356,356,208,1,,,5a9be9db6219a30001d34f1b,61b9009dbdd9e3a3d2d1d7e2,2021-12-14_20h38.05.093,PRaM,2021.2.3,Win32,60.0240096,61b8f3437b89212fae0dfadf
,,space,0.0517,0,357,357,137,1,,,5a9be9db6219a30001d34f1b,61b9009dbdd9e3a3d2d1d7e2,2021-12-14_20h38.05.093,PRaM,2021.2.3,Win32,60.0240096,61b8f3437b89212fae0dfadf
,,space,1.9007,0,358,358,230,1,,,5a9be9db6219a30001d34f1b,61b9009dbdd9e3a3d2d1d7e2,2021-12-14_20h38.05.093,PRaM,2021.2.3,Win32,60.0240096,61b8f3437b89212fae0dfadf
,,space,0.6862,0,359,359,303,1,,,5a9be9db6219a30001d34f1b,61b9009dbdd9e3a3d2d1d7e2,2021-12-14_20h38.05.093,PRaM,2021.2.3,Win32,60.0240096,61b8f3437b89212fae0dfadf
,,space,0.2914,0,360,360,83,1,,,5a9be9db6219a30001d34f1b,61b9009dbdd9e3a3d2d1d7e2,2021-12-14_20h38.05.093,PRaM,2021.2.3,Win32,60.0240096,61b8f3437b89212fae0dfadf
,,space,1.0676,0,361,361,289,1,,,5a9be9db6219a30001d34f1b,61b9009dbdd9e3a3d2d1d7e2,2021-12-14_20h38.05.093,PRaM,2021.2.3,Win32,60.0240096,61b8f3437b89212fae0dfadf
,,space,0.8923,0,362,362,171,1,,,5a9be9db6219a30001d34f1b,61b9009dbdd9e3a3d2d1d7e2,2021-12-14_20h38.05.093,PRaM,2021.2.3,Win32,60.0240096,61b8f3437b89212fae0dfadf
,,space,1.5441,0,363,363,173,1,,,5a9be9db6219a30001d34f1b,61b9009dbdd9e3a3d2d1d7e2,2021-12-14_20h38.05.093,PRaM,2021.2.3,Win32,60.0240096,61b8f3437b89212fae0dfadf
,,space,1.2509,0,364,364,148,1,,,5a9be9db6219a30001d34f1b,61b9009dbdd9e3a3d2d1d7e2,2021-12-14_20h38.05.093,PRaM,2021.2.3,Win32,60.0240096,61b8f3437b89212fae0dfadf
,,space,0.8348,0,365,365,298,1,,,5a9be9db6219a30001d34f1b,61b9009dbdd9e3a3d2d1d7e2,2021-12-14_20h38.05.093,PRaM,2021.2.3,Win32,60.0240096,61b8f3437b89212fae0dfadf
,,space,0.9408,0,366,366,364,1,,,5a9be9db6219a30001d34f1b,61b9009dbdd9e3a3d2d1d7e2,2021-12-14_20h38.05.093,PRaM,2021.2.3,Win32,60.0240096,61b8f3437b89212fae0dfadf
,,space,0.9709,0,367,367,210,1,,,5a9be9db6219a30001d34f1b,61b9009dbdd9e3a3d2d1d7e2,2021-12-14_20h38.05.093,PRaM,2021.2.3,Win32,60.0240096,61b8f3437b89212fae0dfadf
,,space,0.2835,0,368,368,315,1,,,5a9be9db6219a30001d34f1b,61b9009dbdd9e3a3d2d1d7e2,2021-12-14_20h38.05.093,PRaM,2021.2.3,Win32,60.0240096,61b8f3437b89212fae0dfadf
,,space,0.2523,0,369,369,60,1,,,5a9be9db6219a30001d34f1b,61b9009dbdd9e3a3d2d1d7e2,2021-12-14_20h38.05.093,PRaM,2021.2.3,Win32,60.0240096,61b8f3437b89212fae0dfadf
,,space,1.2585,0,370,370,304,1,,,5a9be9db6219a30001d34f1b,61b9009dbdd9e3a3d2d1d7e2,2021-12-14_20h38.05.093,PRaM,2021.2.3,Win32,60.0240096,61b8f3437b89212fae0dfadf
,,space,0.2607,0,371,371,123,1,,,5a9be9db6219a30001d34f1b,61b9009dbdd9e3a3d2d1d7e2,2021-12-14_20h38.05.093,PRaM,2021.2.3,Win32,60.0240096,61b8f3437b89212fae0dfadf
,,space,1.5196,0,372,372,113,1,,,5a9be9db6219a30001d34f1b,61b9009dbdd9e3a3d2d1d7e2,2021-12-14_20h38.05.093,PRaM,2021.2.3,Win32,60.0240096,61b8f3437b89212fae0dfadf
,,space,3.1002,0,373,373,81,1,,,5a9be9db6219a30001d34f1b,61b9009dbdd9e3a3d2d1d7e2,2021-12-14_20h38.05.093,PRaM,2021.2.3,Win32,60.0240096,61b8f3437b89212fae0dfadf
,,space,0.4934,0,374,374,287,1,,,5a9be9db6219a30001d34f1b,61b9009dbdd9e3a3d2d1d7e2,2021-12-14_20h38.05.093,PRaM,2021.2.3,Win32,60.0240096,61b8f3437b89212fae0dfadf
,,space,0.1936,0,375,375,212,1,,,5a9be9db6219a30001d34f1b,61b9009dbdd9e3a3d2d1d7e2,2021-12-14_20h38.05.093,PRaM,2021.2.3,Win32,60.0240096,61b8f3437b89212fae0dfadf
,,space,0.5701,0,376,376,47,1,,,5a9be9db6219a30001d34f1b,61b9009dbdd9e3a3d2d1d7e2,2021-12-14_20h38.05.093,PRaM,2021.2.3,Win32,60.0240096,61b8f3437b89212fae0dfadf
,,space,2.4021,0,377,377,40,1,,,5a9be9db6219a30001d34f1b,61b9009dbdd9e3a3d2d1d7e2,2021-12-14_20h38.05.093,PRaM,2021.2.3,Win32,60.0240096,61b8f3437b89212fae0dfadf
