Rating.response,Rating.rt,EndTrial.keys,EndTrial.rt,trials.thisRepN,trials.thisTrialN,trials.thisN,trials.thisIndex,trials.ran,Pos1,Pos2,participant,session,date,expName,psychopyVersion,OS,frameRate,study_id
6,22.6686,space,23.6016,0,0,0,356,1,,,5abc11e6e1099600016a3097,643773979deb637e8358b23f,2023-04-13_04h15.19.072,PRaM,2021.2.3,Win32,59.73715651,61b8f3437b89212fae0dfade
1,8.3673,space,8.4821,0,1,1,107,1,,,5abc11e6e1099600016a3097,643773979deb637e8358b23f,2023-04-13_04h15.19.072,PRaM,2021.2.3,Win32,59.73715651,61b8f3437b89212fae0dfade
7,3.7287,space,2.5114,0,2,2,279,1,,,5abc11e6e1099600016a3097,643773979deb637e8358b23f,2023-04-13_04h15.19.072,PRaM,2021.2.3,Win32,59.73715651,61b8f3437b89212fae0dfade
6,5.2075,space,3.493,0,3,3,19,1,,,5abc11e6e1099600016a3097,643773979deb637e8358b23f,2023-04-13_04h15.19.072,PRaM,2021.2.3,Win32,59.73715651,61b8f3437b89212fae0dfade
2,7.0623,space,6.4584,0,4,4,106,1,,,5abc11e6e1099600016a3097,643773979deb637e8358b23f,2023-04-13_04h15.19.072,PRaM,2021.2.3,Win32,59.73715651,61b8f3437b89212fae0dfade
5,6.6314,space,4.978,0,5,5,51,1,,,5abc11e6e1099600016a3097,643773979deb637e8358b23f,2023-04-13_04h15.19.072,PRaM,2021.2.3,Win32,59.73715651,61b8f3437b89212fae0dfade
8,3.8519,space,2.2091,0,6,6,276,1,,,5abc11e6e1099600016a3097,643773979deb637e8358b23f,2023-04-13_04h15.19.072,PRaM,2021.2.3,Win32,59.73715651,61b8f3437b89212fae0dfade
3,6.626,space,5.6065,0,7,7,365,1,,,5abc11e6e1099600016a3097,643773979deb637e8358b23f,2023-04-13_04h15.19.072,PRaM,2021.2.3,Win32,59.73715651,61b8f3437b89212fae0dfade
7,4.7572,space,3.23,0,8,8,199,1,,,5abc11e6e1099600016a3097,643773979deb637e8358b23f,2023-04-13_04h15.19.072,PRaM,2021.2.3,Win32,59.73715651,61b8f3437b89212fae0dfade
7,2.7995,space,1.5402,0,9,9,14,1,,,5abc11e6e1099600016a3097,643773979deb637e8358b23f,2023-04-13_04h15.19.072,PRaM,2021.2.3,Win32,59.73715651,61b8f3437b89212fae0dfade
4,4.9244,space,3.1029,0,10,10,94,1,,,5abc11e6e1099600016a3097,643773979deb637e8358b23f,2023-04-13_04h15.19.072,PRaM,2021.2.3,Win32,59.73715651,61b8f3437b89212fae0dfade
7,4.3761,space,2.6959,0,11,11,105,1,,,5abc11e6e1099600016a3097,643773979deb637e8358b23f,2023-04-13_04h15.19.072,PRaM,2021.2.3,Win32,59.73715651,61b8f3437b89212fae0dfade
3,6.0207,space,4.33,0,12,12,224,1,,,5abc11e6e1099600016a3097,643773979deb637e8358b23f,2023-04-13_04h15.19.072,PRaM,2021.2.3,Win32,59.73715651,61b8f3437b89212fae0dfade
3,3.2788,space,1.5731,0,13,13,11,1,,,5abc11e6e1099600016a3097,643773979deb637e8358b23f,2023-04-13_04h15.19.072,PRaM,2021.2.3,Win32,59.73715651,61b8f3437b89212fae0dfade
2,4.7726,space,3.534,0,14,14,148,1,,,5abc11e6e1099600016a3097,643773979deb637e8358b23f,2023-04-13_04h15.19.072,PRaM,2021.2.3,Win32,59.73715651,61b8f3437b89212fae0dfade
6,3.6083,space,1.8914,0,15,15,352,1,,,5abc11e6e1099600016a3097,643773979deb637e8358b23f,2023-04-13_04h15.19.072,PRaM,2021.2.3,Win32,59.73715651,61b8f3437b89212fae0dfade
6,5.6631,space,4.0326,0,16,16,267,1,,,5abc11e6e1099600016a3097,643773979deb637e8358b23f,2023-04-13_04h15.19.072,PRaM,2021.2.3,Win32,59.73715651,61b8f3437b89212fae0dfade
3,3.2141,space,1.4223,0,17,17,321,1,,,5abc11e6e1099600016a3097,643773979deb637e8358b23f,2023-04-13_04h15.19.072,PRaM,2021.2.3,Win32,59.73715651,61b8f3437b89212fae0dfade
6,6.8935,space,8.5676,0,18,18,152,1,,,5abc11e6e1099600016a3097,643773979deb637e8358b23f,2023-04-13_04h15.19.072,PRaM,2021.2.3,Win32,59.73715651,61b8f3437b89212fae0dfade
4,3.0252,space,1.3416,0,19,19,257,1,,,5abc11e6e1099600016a3097,643773979deb637e8358b23f,2023-04-13_04h15.19.072,PRaM,2021.2.3,Win32,59.73715651,61b8f3437b89212fae0dfade
3,8.7132,space,7.1606,0,20,20,218,1,,,5abc11e6e1099600016a3097,643773979deb637e8358b23f,2023-04-13_04h15.19.072,PRaM,2021.2.3,Win32,59.73715651,61b8f3437b89212fae0dfade
4,3.9376,space,2.2087,0,21,21,303,1,,,5abc11e6e1099600016a3097,643773979deb637e8358b23f,2023-04-13_04h15.19.072,PRaM,2021.2.3,Win32,59.73715651,61b8f3437b89212fae0dfade
6,3.6994,space,3.0487,0,22,22,347,1,,,5abc11e6e1099600016a3097,643773979deb637e8358b23f,2023-04-13_04h15.19.072,PRaM,2021.2.3,Win32,59.73715651,61b8f3437b89212fae0dfade
5,3.4068,space,1.7103,0,23,23,46,1,,,5abc11e6e1099600016a3097,643773979deb637e8358b23f,2023-04-13_04h15.19.072,PRaM,2021.2.3,Win32,59.73715651,61b8f3437b89212fae0dfade
6,2.4877,space,0.9506,0,24,24,350,1,,,5abc11e6e1099600016a3097,643773979deb637e8358b23f,2023-04-13_04h15.19.072,PRaM,2021.2.3,Win32,59.73715651,61b8f3437b89212fae0dfade
4,4.0558,space,2.2258,0,25,25,155,1,,,5abc11e6e1099600016a3097,643773979deb637e8358b23f,2023-04-13_04h15.19.072,PRaM,2021.2.3,Win32,59.73715651,61b8f3437b89212fae0dfade
6,3.1512,space,1.3356,0,26,26,120,1,,,5abc11e6e1099600016a3097,643773979deb637e8358b23f,2023-04-13_04h15.19.072,PRaM,2021.2.3,Win32,59.73715651,61b8f3437b89212fae0dfade
3,4.2392,space,2.964,0,27,27,36,1,,,5abc11e6e1099600016a3097,643773979deb637e8358b23f,2023-04-13_04h15.19.072,PRaM,2021.2.3,Win32,59.73715651,61b8f3437b89212fae0dfade
6,2.7169,space,0.8775,0,28,28,334,1,,,5abc11e6e1099600016a3097,643773979deb637e8358b23f,2023-04-13_04h15.19.072,PRaM,2021.2.3,Win32,59.73715651,61b8f3437b89212fae0dfade
7,2.4486,space,0.8062,0,29,29,134,1,,,5abc11e6e1099600016a3097,643773979deb637e8358b23f,2023-04-13_04h15.19.072,PRaM,2021.2.3,Win32,59.73715651,61b8f3437b89212fae0dfade
3,2.8792,space,1.338,0,30,30,189,1,,,5abc11e6e1099600016a3097,643773979deb637e8358b23f,2023-04-13_04h15.19.072,PRaM,2021.2.3,Win32,59.73715651,61b8f3437b89212fae0dfade
6,2.6858,space,1.0253,0,31,31,361,1,,,5abc11e6e1099600016a3097,643773979deb637e8358b23f,2023-04-13_04h15.19.072,PRaM,2021.2.3,Win32,59.73715651,61b8f3437b89212fae0dfade
4,5.4004,space,3.6487,0,32,32,241,1,,,5abc11e6e1099600016a3097,643773979deb637e8358b23f,2023-04-13_04h15.19.072,PRaM,2021.2.3,Win32,59.73715651,61b8f3437b89212fae0dfade
4,3.3032,space,1.596,0,33,33,354,1,,,5abc11e6e1099600016a3097,643773979deb637e8358b23f,2023-04-13_04h15.19.072,PRaM,2021.2.3,Win32,59.73715651,61b8f3437b89212fae0dfade
3,2.648,space,2.1833,0,34,34,71,1,,,5abc11e6e1099600016a3097,643773979deb637e8358b23f,2023-04-13_04h15.19.072,PRaM,2021.2.3,Win32,59.73715651,61b8f3437b89212fae0dfade
8,2.8388,space,1.3358,0,35,35,17,1,,,5abc11e6e1099600016a3097,643773979deb637e8358b23f,2023-04-13_04h15.19.072,PRaM,2021.2.3,Win32,59.73715651,61b8f3437b89212fae0dfade
2,3.3215,space,1.6921,0,36,36,169,1,,,5abc11e6e1099600016a3097,643773979deb637e8358b23f,2023-04-13_04h15.19.072,PRaM,2021.2.3,Win32,59.73715651,61b8f3437b89212fae0dfade
1,2.9026,space,1.9331,0,37,37,248,1,,,5abc11e6e1099600016a3097,643773979deb637e8358b23f,2023-04-13_04h15.19.072,PRaM,2021.2.3,Win32,59.73715651,61b8f3437b89212fae0dfade
6,4.3027,space,2.5769,0,38,38,56,1,,,5abc11e6e1099600016a3097,643773979deb637e8358b23f,2023-04-13_04h15.19.072,PRaM,2021.2.3,Win32,59.73715651,61b8f3437b89212fae0dfade
7,3.5691,space,1.9786,0,39,39,345,1,,,5abc11e6e1099600016a3097,643773979deb637e8358b23f,2023-04-13_04h15.19.072,PRaM,2021.2.3,Win32,59.73715651,61b8f3437b89212fae0dfade
7,3.1544,space,1.3407,0,40,40,33,1,,,5abc11e6e1099600016a3097,643773979deb637e8358b23f,2023-04-13_04h15.19.072,PRaM,2021.2.3,Win32,59.73715651,61b8f3437b89212fae0dfade
2,6.4313,space,4.6177,0,41,41,330,1,,,5abc11e6e1099600016a3097,643773979deb637e8358b23f,2023-04-13_04h15.19.072,PRaM,2021.2.3,Win32,59.73715651,61b8f3437b89212fae0dfade
7,3.0163,space,1.3403,0,42,42,16,1,,,5abc11e6e1099600016a3097,643773979deb637e8358b23f,2023-04-13_04h15.19.072,PRaM,2021.2.3,Win32,59.73715651,61b8f3437b89212fae0dfade
6,2.1001,space,0.4695,0,43,43,306,1,,,5abc11e6e1099600016a3097,643773979deb637e8358b23f,2023-04-13_04h15.19.072,PRaM,2021.2.3,Win32,59.73715651,61b8f3437b89212fae0dfade
6,6.3806,space,4.7307,0,44,44,66,1,,,5abc11e6e1099600016a3097,643773979deb637e8358b23f,2023-04-13_04h15.19.072,PRaM,2021.2.3,Win32,59.73715651,61b8f3437b89212fae0dfade
4,3.9432,space,2.3428,0,45,45,116,1,,,5abc11e6e1099600016a3097,643773979deb637e8358b23f,2023-04-13_04h15.19.072,PRaM,2021.2.3,Win32,59.73715651,61b8f3437b89212fae0dfade
6,8.3203,space,6.4602,0,46,46,355,1,,,5abc11e6e1099600016a3097,643773979deb637e8358b23f,2023-04-13_04h15.19.072,PRaM,2021.2.3,Win32,59.73715651,61b8f3437b89212fae0dfade
7,1.9636,space,0.3274,0,47,47,42,1,,,5abc11e6e1099600016a3097,643773979deb637e8358b23f,2023-04-13_04h15.19.072,PRaM,2021.2.3,Win32,59.73715651,61b8f3437b89212fae0dfade
6,3.1529,space,1.4585,0,48,48,80,1,,,5abc11e6e1099600016a3097,643773979deb637e8358b23f,2023-04-13_04h15.19.072,PRaM,2021.2.3,Win32,59.73715651,61b8f3437b89212fae0dfade
4,2.4016,space,0.633,0,49,49,58,1,,,5abc11e6e1099600016a3097,643773979deb637e8358b23f,2023-04-13_04h15.19.072,PRaM,2021.2.3,Win32,59.73715651,61b8f3437b89212fae0dfade
3,2.7993,space,1.2222,0,50,50,39,1,,,5abc11e6e1099600016a3097,643773979deb637e8358b23f,2023-04-13_04h15.19.072,PRaM,2021.2.3,Win32,59.73715651,61b8f3437b89212fae0dfade
6,3.9407,space,2.1949,0,51,51,0,1,,,5abc11e6e1099600016a3097,643773979deb637e8358b23f,2023-04-13_04h15.19.072,PRaM,2021.2.3,Win32,59.73715651,61b8f3437b89212fae0dfade
3,3.9731,space,2.3455,0,52,52,252,1,,,5abc11e6e1099600016a3097,643773979deb637e8358b23f,2023-04-13_04h15.19.072,PRaM,2021.2.3,Win32,59.73715651,61b8f3437b89212fae0dfade
7,4.2539,space,2.9985,0,53,53,180,1,,,5abc11e6e1099600016a3097,643773979deb637e8358b23f,2023-04-13_04h15.19.072,PRaM,2021.2.3,Win32,59.73715651,61b8f3437b89212fae0dfade
7,5.9685,space,4.133,0,54,54,302,1,,,5abc11e6e1099600016a3097,643773979deb637e8358b23f,2023-04-13_04h15.19.072,PRaM,2021.2.3,Win32,59.73715651,61b8f3437b89212fae0dfade
6,2.2776,space,0.6581,0,55,55,325,1,,,5abc11e6e1099600016a3097,643773979deb637e8358b23f,2023-04-13_04h15.19.072,PRaM,2021.2.3,Win32,59.73715651,61b8f3437b89212fae0dfade
7,6.6295,space,4.9693,0,56,56,228,1,,,5abc11e6e1099600016a3097,643773979deb637e8358b23f,2023-04-13_04h15.19.072,PRaM,2021.2.3,Win32,59.73715651,61b8f3437b89212fae0dfade
6,7.2584,space,6.8092,0,57,57,371,1,,,5abc11e6e1099600016a3097,643773979deb637e8358b23f,2023-04-13_04h15.19.072,PRaM,2021.2.3,Win32,59.73715651,61b8f3437b89212fae0dfade
6,3.6191,space,1.8944,0,58,58,206,1,,,5abc11e6e1099600016a3097,643773979deb637e8358b23f,2023-04-13_04h15.19.072,PRaM,2021.2.3,Win32,59.73715651,61b8f3437b89212fae0dfade
7,2.1026,space,0.506,0,59,59,136,1,,,5abc11e6e1099600016a3097,643773979deb637e8358b23f,2023-04-13_04h15.19.072,PRaM,2021.2.3,Win32,59.73715651,61b8f3437b89212fae0dfade
6,4.554,space,2.8192,0,60,60,255,1,,,5abc11e6e1099600016a3097,643773979deb637e8358b23f,2023-04-13_04h15.19.072,PRaM,2021.2.3,Win32,59.73715651,61b8f3437b89212fae0dfade
4,4.4557,space,2.879,0,61,61,275,1,,,5abc11e6e1099600016a3097,643773979deb637e8358b23f,2023-04-13_04h15.19.072,PRaM,2021.2.3,Win32,59.73715651,61b8f3437b89212fae0dfade
4,3.4354,space,1.5438,0,62,62,240,1,,,5abc11e6e1099600016a3097,643773979deb637e8358b23f,2023-04-13_04h15.19.072,PRaM,2021.2.3,Win32,59.73715651,61b8f3437b89212fae0dfade
3,3.4504,space,1.6269,0,63,63,195,1,,,5abc11e6e1099600016a3097,643773979deb637e8358b23f,2023-04-13_04h15.19.072,PRaM,2021.2.3,Win32,59.73715651,61b8f3437b89212fae0dfade
4,3.2314,space,1.4234,0,64,64,219,1,,,5abc11e6e1099600016a3097,643773979deb637e8358b23f,2023-04-13_04h15.19.072,PRaM,2021.2.3,Win32,59.73715651,61b8f3437b89212fae0dfade
4,4.6054,space,2.7612,0,65,65,375,1,,,5abc11e6e1099600016a3097,643773979deb637e8358b23f,2023-04-13_04h15.19.072,PRaM,2021.2.3,Win32,59.73715651,61b8f3437b89212fae0dfade
1,3.037,space,2.577,0,66,66,214,1,,,5abc11e6e1099600016a3097,643773979deb637e8358b23f,2023-04-13_04h15.19.072,PRaM,2021.2.3,Win32,59.73715651,61b8f3437b89212fae0dfade
7,3.3961,space,1.6363,0,67,67,48,1,,,5abc11e6e1099600016a3097,643773979deb637e8358b23f,2023-04-13_04h15.19.072,PRaM,2021.2.3,Win32,59.73715651,61b8f3437b89212fae0dfade
6,2.085,space,0.4524,0,68,68,123,1,,,5abc11e6e1099600016a3097,643773979deb637e8358b23f,2023-04-13_04h15.19.072,PRaM,2021.2.3,Win32,59.73715651,61b8f3437b89212fae0dfade
2,2.4682,space,0.837,0,69,69,108,1,,,5abc11e6e1099600016a3097,643773979deb637e8358b23f,2023-04-13_04h15.19.072,PRaM,2021.2.3,Win32,59.73715651,61b8f3437b89212fae0dfade
7,3.1113,space,1.4945,0,70,70,196,1,,,5abc11e6e1099600016a3097,643773979deb637e8358b23f,2023-04-13_04h15.19.072,PRaM,2021.2.3,Win32,59.73715651,61b8f3437b89212fae0dfade
6,3.2021,space,1.5232,0,71,71,246,1,,,5abc11e6e1099600016a3097,643773979deb637e8358b23f,2023-04-13_04h15.19.072,PRaM,2021.2.3,Win32,59.73715651,61b8f3437b89212fae0dfade
4,3.1668,space,1.8412,0,72,72,266,1,,,5abc11e6e1099600016a3097,643773979deb637e8358b23f,2023-04-13_04h15.19.072,PRaM,2021.2.3,Win32,59.73715651,61b8f3437b89212fae0dfade
5,4.7716,space,3.1459,0,73,73,161,1,,,5abc11e6e1099600016a3097,643773979deb637e8358b23f,2023-04-13_04h15.19.072,PRaM,2021.2.3,Win32,59.73715651,61b8f3437b89212fae0dfade
6,3.9945,space,2.5823,0,74,74,314,1,,,5abc11e6e1099600016a3097,643773979deb637e8358b23f,2023-04-13_04h15.19.072,PRaM,2021.2.3,Win32,59.73715651,61b8f3437b89212fae0dfade
2,2.7028,space,1.3557,0,75,75,262,1,,,5abc11e6e1099600016a3097,643773979deb637e8358b23f,2023-04-13_04h15.19.072,PRaM,2021.2.3,Win32,59.73715651,61b8f3437b89212fae0dfade
2,4.5156,space,2.7175,0,76,76,243,1,,,5abc11e6e1099600016a3097,643773979deb637e8358b23f,2023-04-13_04h15.19.072,PRaM,2021.2.3,Win32,59.73715651,61b8f3437b89212fae0dfade
4,3.1534,space,1.3109,0,77,77,103,1,,,5abc11e6e1099600016a3097,643773979deb637e8358b23f,2023-04-13_04h15.19.072,PRaM,2021.2.3,Win32,59.73715651,61b8f3437b89212fae0dfade
2,3.7037,space,2.1088,0,78,78,368,1,,,5abc11e6e1099600016a3097,643773979deb637e8358b23f,2023-04-13_04h15.19.072,PRaM,2021.2.3,Win32,59.73715651,61b8f3437b89212fae0dfade
4,7.9844,space,6.1813,0,79,79,226,1,,,5abc11e6e1099600016a3097,643773979deb637e8358b23f,2023-04-13_04h15.19.072,PRaM,2021.2.3,Win32,59.73715651,61b8f3437b89212fae0dfade
4,4.6672,space,2.8519,0,80,80,284,1,,,5abc11e6e1099600016a3097,643773979deb637e8358b23f,2023-04-13_04h15.19.072,PRaM,2021.2.3,Win32,59.73715651,61b8f3437b89212fae0dfade
7,2.365,space,0.5704,0,81,81,22,1,,,5abc11e6e1099600016a3097,643773979deb637e8358b23f,2023-04-13_04h15.19.072,PRaM,2021.2.3,Win32,59.73715651,61b8f3437b89212fae0dfade
7,2.3803,space,0.8041,0,82,82,351,1,,,5abc11e6e1099600016a3097,643773979deb637e8358b23f,2023-04-13_04h15.19.072,PRaM,2021.2.3,Win32,59.73715651,61b8f3437b89212fae0dfade
8,1.8836,space,0.2363,0,83,83,4,1,,,5abc11e6e1099600016a3097,643773979deb637e8358b23f,2023-04-13_04h15.19.072,PRaM,2021.2.3,Win32,59.73715651,61b8f3437b89212fae0dfade
3,2.8899,space,1.0385,0,84,84,37,1,,,5abc11e6e1099600016a3097,643773979deb637e8358b23f,2023-04-13_04h15.19.072,PRaM,2021.2.3,Win32,59.73715651,61b8f3437b89212fae0dfade
3,3.2415,space,1.8415,0,85,85,101,1,,,5abc11e6e1099600016a3097,643773979deb637e8358b23f,2023-04-13_04h15.19.072,PRaM,2021.2.3,Win32,59.73715651,61b8f3437b89212fae0dfade
3,3.1326,space,1.1633,0,86,86,97,1,,,5abc11e6e1099600016a3097,643773979deb637e8358b23f,2023-04-13_04h15.19.072,PRaM,2021.2.3,Win32,59.73715651,61b8f3437b89212fae0dfade
4,3.0994,space,1.508,0,87,87,324,1,,,5abc11e6e1099600016a3097,643773979deb637e8358b23f,2023-04-13_04h15.19.072,PRaM,2021.2.3,Win32,59.73715651,61b8f3437b89212fae0dfade
2,3.1007,space,1.442,0,88,88,76,1,,,5abc11e6e1099600016a3097,643773979deb637e8358b23f,2023-04-13_04h15.19.072,PRaM,2021.2.3,Win32,59.73715651,61b8f3437b89212fae0dfade
7,5.1726,space,3.9657,0,89,89,59,1,,,5abc11e6e1099600016a3097,643773979deb637e8358b23f,2023-04-13_04h15.19.072,PRaM,2021.2.3,Win32,59.73715651,61b8f3437b89212fae0dfade
3,2.6159,space,1.0718,0,90,90,298,1,,,5abc11e6e1099600016a3097,643773979deb637e8358b23f,2023-04-13_04h15.19.072,PRaM,2021.2.3,Win32,59.73715651,61b8f3437b89212fae0dfade
2,4.3029,space,3.1956,0,91,91,122,1,,,5abc11e6e1099600016a3097,643773979deb637e8358b23f,2023-04-13_04h15.19.072,PRaM,2021.2.3,Win32,59.73715651,61b8f3437b89212fae0dfade
4,3.8265,space,2.0281,0,92,92,220,1,,,5abc11e6e1099600016a3097,643773979deb637e8358b23f,2023-04-13_04h15.19.072,PRaM,2021.2.3,Win32,59.73715651,61b8f3437b89212fae0dfade
3,2.2417,space,0.6081,0,93,93,111,1,,,5abc11e6e1099600016a3097,643773979deb637e8358b23f,2023-04-13_04h15.19.072,PRaM,2021.2.3,Win32,59.73715651,61b8f3437b89212fae0dfade
6,7.551,space,5.8439,0,94,94,239,1,,,5abc11e6e1099600016a3097,643773979deb637e8358b23f,2023-04-13_04h15.19.072,PRaM,2021.2.3,Win32,59.73715651,61b8f3437b89212fae0dfade
4,2.833,space,1.3779,0,95,95,171,1,,,5abc11e6e1099600016a3097,643773979deb637e8358b23f,2023-04-13_04h15.19.072,PRaM,2021.2.3,Win32,59.73715651,61b8f3437b89212fae0dfade
5,2.4075,space,0.607,0,96,96,90,1,,,5abc11e6e1099600016a3097,643773979deb637e8358b23f,2023-04-13_04h15.19.072,PRaM,2021.2.3,Win32,59.73715651,61b8f3437b89212fae0dfade
4,2.4965,space,0.7871,0,97,97,82,1,,,5abc11e6e1099600016a3097,643773979deb637e8358b23f,2023-04-13_04h15.19.072,PRaM,2021.2.3,Win32,59.73715651,61b8f3437b89212fae0dfade
2,3.0831,space,1.3005,0,98,98,67,1,,,5abc11e6e1099600016a3097,643773979deb637e8358b23f,2023-04-13_04h15.19.072,PRaM,2021.2.3,Win32,59.73715651,61b8f3437b89212fae0dfade
7,3.5879,space,1.9245,0,99,99,274,1,,,5abc11e6e1099600016a3097,643773979deb637e8358b23f,2023-04-13_04h15.19.072,PRaM,2021.2.3,Win32,59.73715651,61b8f3437b89212fae0dfade
7,2.8773,space,1.2277,0,100,100,60,1,,,5abc11e6e1099600016a3097,643773979deb637e8358b23f,2023-04-13_04h15.19.072,PRaM,2021.2.3,Win32,59.73715651,61b8f3437b89212fae0dfade
4,2.8848,space,1.1882,0,101,101,299,1,,,5abc11e6e1099600016a3097,643773979deb637e8358b23f,2023-04-13_04h15.19.072,PRaM,2021.2.3,Win32,59.73715651,61b8f3437b89212fae0dfade
3,2.3584,space,0.5226,0,102,102,99,1,,,5abc11e6e1099600016a3097,643773979deb637e8358b23f,2023-04-13_04h15.19.072,PRaM,2021.2.3,Win32,59.73715651,61b8f3437b89212fae0dfade
6,6.847,space,5.1985,0,103,103,213,1,,,5abc11e6e1099600016a3097,643773979deb637e8358b23f,2023-04-13_04h15.19.072,PRaM,2021.2.3,Win32,59.73715651,61b8f3437b89212fae0dfade
7,2.5142,space,0.6869,0,104,104,175,1,,,5abc11e6e1099600016a3097,643773979deb637e8358b23f,2023-04-13_04h15.19.072,PRaM,2021.2.3,Win32,59.73715651,61b8f3437b89212fae0dfade
8,1.9247,space,0.2171,0,105,105,137,1,,,5abc11e6e1099600016a3097,643773979deb637e8358b23f,2023-04-13_04h15.19.072,PRaM,2021.2.3,Win32,59.73715651,61b8f3437b89212fae0dfade
2,2.8765,space,1.2054,0,106,106,251,1,,,5abc11e6e1099600016a3097,643773979deb637e8358b23f,2023-04-13_04h15.19.072,PRaM,2021.2.3,Win32,59.73715651,61b8f3437b89212fae0dfade
7,3.4276,space,1.8241,0,107,107,372,1,,,5abc11e6e1099600016a3097,643773979deb637e8358b23f,2023-04-13_04h15.19.072,PRaM,2021.2.3,Win32,59.73715651,61b8f3437b89212fae0dfade
6,2.8728,space,1.0212,0,108,108,181,1,,,5abc11e6e1099600016a3097,643773979deb637e8358b23f,2023-04-13_04h15.19.072,PRaM,2021.2.3,Win32,59.73715651,61b8f3437b89212fae0dfade
4,4.5925,space,2.9336,0,109,109,41,1,,,5abc11e6e1099600016a3097,643773979deb637e8358b23f,2023-04-13_04h15.19.072,PRaM,2021.2.3,Win32,59.73715651,61b8f3437b89212fae0dfade
4,2.0791,space,0.4024,0,110,110,135,1,,,5abc11e6e1099600016a3097,643773979deb637e8358b23f,2023-04-13_04h15.19.072,PRaM,2021.2.3,Win32,59.73715651,61b8f3437b89212fae0dfade
6,6.3766,space,4.5205,0,111,111,194,1,,,5abc11e6e1099600016a3097,643773979deb637e8358b23f,2023-04-13_04h15.19.072,PRaM,2021.2.3,Win32,59.73715651,61b8f3437b89212fae0dfade
4,3.066,space,1.3221,0,112,112,278,1,,,5abc11e6e1099600016a3097,643773979deb637e8358b23f,2023-04-13_04h15.19.072,PRaM,2021.2.3,Win32,59.73715651,61b8f3437b89212fae0dfade
6,3.3341,space,1.4562,0,113,113,327,1,,,5abc11e6e1099600016a3097,643773979deb637e8358b23f,2023-04-13_04h15.19.072,PRaM,2021.2.3,Win32,59.73715651,61b8f3437b89212fae0dfade
4,2.2473,space,0.6233,0,114,114,271,1,,,5abc11e6e1099600016a3097,643773979deb637e8358b23f,2023-04-13_04h15.19.072,PRaM,2021.2.3,Win32,59.73715651,61b8f3437b89212fae0dfade
3,2.4824,space,0.6532,0,115,115,54,1,,,5abc11e6e1099600016a3097,643773979deb637e8358b23f,2023-04-13_04h15.19.072,PRaM,2021.2.3,Win32,59.73715651,61b8f3437b89212fae0dfade
5,2.651,space,1.2217,0,116,116,333,1,,,5abc11e6e1099600016a3097,643773979deb637e8358b23f,2023-04-13_04h15.19.072,PRaM,2021.2.3,Win32,59.73715651,61b8f3437b89212fae0dfade
3,3.0781,space,1.2551,0,117,117,253,1,,,5abc11e6e1099600016a3097,643773979deb637e8358b23f,2023-04-13_04h15.19.072,PRaM,2021.2.3,Win32,59.73715651,61b8f3437b89212fae0dfade
6,4.1279,space,2.198,0,118,118,342,1,,,5abc11e6e1099600016a3097,643773979deb637e8358b23f,2023-04-13_04h15.19.072,PRaM,2021.2.3,Win32,59.73715651,61b8f3437b89212fae0dfade
4,2.5385,space,1.9078,0,119,119,96,1,,,5abc11e6e1099600016a3097,643773979deb637e8358b23f,2023-04-13_04h15.19.072,PRaM,2021.2.3,Win32,59.73715651,61b8f3437b89212fae0dfade
3,3.5887,space,1.991,0,120,120,49,1,,,5abc11e6e1099600016a3097,643773979deb637e8358b23f,2023-04-13_04h15.19.072,PRaM,2021.2.3,Win32,59.73715651,61b8f3437b89212fae0dfade
4,2.5469,space,0.7363,0,121,121,18,1,,,5abc11e6e1099600016a3097,643773979deb637e8358b23f,2023-04-13_04h15.19.072,PRaM,2021.2.3,Win32,59.73715651,61b8f3437b89212fae0dfade
2,2.4754,space,1.0155,0,122,122,133,1,,,5abc11e6e1099600016a3097,643773979deb637e8358b23f,2023-04-13_04h15.19.072,PRaM,2021.2.3,Win32,59.73715651,61b8f3437b89212fae0dfade
3,2.3717,space,0.7058,0,123,123,24,1,,,5abc11e6e1099600016a3097,643773979deb637e8358b23f,2023-04-13_04h15.19.072,PRaM,2021.2.3,Win32,59.73715651,61b8f3437b89212fae0dfade
7,5.376,space,3.5135,0,124,124,186,1,,,5abc11e6e1099600016a3097,643773979deb637e8358b23f,2023-04-13_04h15.19.072,PRaM,2021.2.3,Win32,59.73715651,61b8f3437b89212fae0dfade
4,4.396,space,2.5782,0,125,125,5,1,,,5abc11e6e1099600016a3097,643773979deb637e8358b23f,2023-04-13_04h15.19.072,PRaM,2021.2.3,Win32,59.73715651,61b8f3437b89212fae0dfade
4,5.8631,space,4.1063,0,126,126,74,1,,,5abc11e6e1099600016a3097,643773979deb637e8358b23f,2023-04-13_04h15.19.072,PRaM,2021.2.3,Win32,59.73715651,61b8f3437b89212fae0dfade
5,3.9543,space,2.2757,0,127,127,203,1,,,5abc11e6e1099600016a3097,643773979deb637e8358b23f,2023-04-13_04h15.19.072,PRaM,2021.2.3,Win32,59.73715651,61b8f3437b89212fae0dfade
3,2.7495,space,1.0212,0,128,128,360,1,,,5abc11e6e1099600016a3097,643773979deb637e8358b23f,2023-04-13_04h15.19.072,PRaM,2021.2.3,Win32,59.73715651,61b8f3437b89212fae0dfade
6,3.6968,space,1.8914,0,129,129,230,1,,,5abc11e6e1099600016a3097,643773979deb637e8358b23f,2023-04-13_04h15.19.072,PRaM,2021.2.3,Win32,59.73715651,61b8f3437b89212fae0dfade
8,3.1363,space,1.5091,0,130,130,85,1,,,5abc11e6e1099600016a3097,643773979deb637e8358b23f,2023-04-13_04h15.19.072,PRaM,2021.2.3,Win32,59.73715651,61b8f3437b89212fae0dfade
6,3.6349,space,1.9687,0,131,131,269,1,,,5abc11e6e1099600016a3097,643773979deb637e8358b23f,2023-04-13_04h15.19.072,PRaM,2021.2.3,Win32,59.73715651,61b8f3437b89212fae0dfade
5,6.0501,space,4.1996,0,132,132,31,1,,,5abc11e6e1099600016a3097,643773979deb637e8358b23f,2023-04-13_04h15.19.072,PRaM,2021.2.3,Win32,59.73715651,61b8f3437b89212fae0dfade
4,2.9604,space,1.0929,0,133,133,272,1,,,5abc11e6e1099600016a3097,643773979deb637e8358b23f,2023-04-13_04h15.19.072,PRaM,2021.2.3,Win32,59.73715651,61b8f3437b89212fae0dfade
3,2.8505,space,1.1546,0,134,134,70,1,,,5abc11e6e1099600016a3097,643773979deb637e8358b23f,2023-04-13_04h15.19.072,PRaM,2021.2.3,Win32,59.73715651,61b8f3437b89212fae0dfade
6,3.1585,space,1.4229,0,135,135,285,1,,,5abc11e6e1099600016a3097,643773979deb637e8358b23f,2023-04-13_04h15.19.072,PRaM,2021.2.3,Win32,59.73715651,61b8f3437b89212fae0dfade
4,2.7486,space,0.8704,0,136,136,212,1,,,5abc11e6e1099600016a3097,643773979deb637e8358b23f,2023-04-13_04h15.19.072,PRaM,2021.2.3,Win32,59.73715651,61b8f3437b89212fae0dfade
3,2.0797,space,0.1797,0,137,137,65,1,,,5abc11e6e1099600016a3097,643773979deb637e8358b23f,2023-04-13_04h15.19.072,PRaM,2021.2.3,Win32,59.73715651,61b8f3437b89212fae0dfade
5,4.3793,space,2.4765,0,138,138,163,1,,,5abc11e6e1099600016a3097,643773979deb637e8358b23f,2023-04-13_04h15.19.072,PRaM,2021.2.3,Win32,59.73715651,61b8f3437b89212fae0dfade
4,2.4976,space,0.6977,0,139,139,250,1,,,5abc11e6e1099600016a3097,643773979deb637e8358b23f,2023-04-13_04h15.19.072,PRaM,2021.2.3,Win32,59.73715651,61b8f3437b89212fae0dfade
7,20.0612,space,18.4529,0,140,140,166,1,,,5abc11e6e1099600016a3097,643773979deb637e8358b23f,2023-04-13_04h15.19.072,PRaM,2021.2.3,Win32,59.73715651,61b8f3437b89212fae0dfade
3,2.761,space,0.9749,0,141,141,236,1,,,5abc11e6e1099600016a3097,643773979deb637e8358b23f,2023-04-13_04h15.19.072,PRaM,2021.2.3,Win32,59.73715651,61b8f3437b89212fae0dfade
5,5.1606,space,3.3427,0,142,142,156,1,,,5abc11e6e1099600016a3097,643773979deb637e8358b23f,2023-04-13_04h15.19.072,PRaM,2021.2.3,Win32,59.73715651,61b8f3437b89212fae0dfade
3,2.5434,space,0.7035,0,143,143,295,1,,,5abc11e6e1099600016a3097,643773979deb637e8358b23f,2023-04-13_04h15.19.072,PRaM,2021.2.3,Win32,59.73715651,61b8f3437b89212fae0dfade
2,4.336,space,2.4815,0,144,144,217,1,,,5abc11e6e1099600016a3097,643773979deb637e8358b23f,2023-04-13_04h15.19.072,PRaM,2021.2.3,Win32,59.73715651,61b8f3437b89212fae0dfade
8,3.0337,space,1.3245,0,145,145,173,1,,,5abc11e6e1099600016a3097,643773979deb637e8358b23f,2023-04-13_04h15.19.072,PRaM,2021.2.3,Win32,59.73715651,61b8f3437b89212fae0dfade
7,1.9131,space,0.0669,0,146,146,305,1,,,5abc11e6e1099600016a3097,643773979deb637e8358b23f,2023-04-13_04h15.19.072,PRaM,2021.2.3,Win32,59.73715651,61b8f3437b89212fae0dfade
7,1.8095,space,0.0172,0,147,147,104,1,,,5abc11e6e1099600016a3097,643773979deb637e8358b23f,2023-04-13_04h15.19.072,PRaM,2021.2.3,Win32,59.73715651,61b8f3437b89212fae0dfade
2,2.8106,space,1.1756,0,148,148,227,1,,,5abc11e6e1099600016a3097,643773979deb637e8358b23f,2023-04-13_04h15.19.072,PRaM,2021.2.3,Win32,59.73715651,61b8f3437b89212fae0dfade
2,2.0327,space,0.2519,0,149,149,129,1,,,5abc11e6e1099600016a3097,643773979deb637e8358b23f,2023-04-13_04h15.19.072,PRaM,2021.2.3,Win32,59.73715651,61b8f3437b89212fae0dfade
3,2.5289,space,0.8666,0,150,150,176,1,,,5abc11e6e1099600016a3097,643773979deb637e8358b23f,2023-04-13_04h15.19.072,PRaM,2021.2.3,Win32,59.73715651,61b8f3437b89212fae0dfade
4,3.0364,space,1.2164,0,151,151,349,1,,,5abc11e6e1099600016a3097,643773979deb637e8358b23f,2023-04-13_04h15.19.072,PRaM,2021.2.3,Win32,59.73715651,61b8f3437b89212fae0dfade
3,2.8346,space,1.0072,0,152,152,294,1,,,5abc11e6e1099600016a3097,643773979deb637e8358b23f,2023-04-13_04h15.19.072,PRaM,2021.2.3,Win32,59.73715651,61b8f3437b89212fae0dfade
7,3.8022,space,2.075,0,153,153,192,1,,,5abc11e6e1099600016a3097,643773979deb637e8358b23f,2023-04-13_04h15.19.072,PRaM,2021.2.3,Win32,59.73715651,61b8f3437b89212fae0dfade
3,2.8714,space,1.0857,0,154,154,174,1,,,5abc11e6e1099600016a3097,643773979deb637e8358b23f,2023-04-13_04h15.19.072,PRaM,2021.2.3,Win32,59.73715651,61b8f3437b89212fae0dfade
3,3.6568,space,1.9246,0,155,155,109,1,,,5abc11e6e1099600016a3097,643773979deb637e8358b23f,2023-04-13_04h15.19.072,PRaM,2021.2.3,Win32,59.73715651,61b8f3437b89212fae0dfade
2,4.224,space,2.3095,0,156,156,256,1,,,5abc11e6e1099600016a3097,643773979deb637e8358b23f,2023-04-13_04h15.19.072,PRaM,2021.2.3,Win32,59.73715651,61b8f3437b89212fae0dfade
7,2.4153,space,0.6592,0,157,157,139,1,,,5abc11e6e1099600016a3097,643773979deb637e8358b23f,2023-04-13_04h15.19.072,PRaM,2021.2.3,Win32,59.73715651,61b8f3437b89212fae0dfade
3,3.4455,space,1.6322,0,158,158,95,1,,,5abc11e6e1099600016a3097,643773979deb637e8358b23f,2023-04-13_04h15.19.072,PRaM,2021.2.3,Win32,59.73715651,61b8f3437b89212fae0dfade
8,2.8496,space,1.1438,0,159,159,142,1,,,5abc11e6e1099600016a3097,643773979deb637e8358b23f,2023-04-13_04h15.19.072,PRaM,2021.2.3,Win32,59.73715651,61b8f3437b89212fae0dfade
3,3.0833,space,1.3231,0,160,160,8,1,,,5abc11e6e1099600016a3097,643773979deb637e8358b23f,2023-04-13_04h15.19.072,PRaM,2021.2.3,Win32,59.73715651,61b8f3437b89212fae0dfade
7,2.9467,space,1.2048,0,161,161,7,1,,,5abc11e6e1099600016a3097,643773979deb637e8358b23f,2023-04-13_04h15.19.072,PRaM,2021.2.3,Win32,59.73715651,61b8f3437b89212fae0dfade
7,2.2183,space,0.6693,0,162,162,304,1,,,5abc11e6e1099600016a3097,643773979deb637e8358b23f,2023-04-13_04h15.19.072,PRaM,2021.2.3,Win32,59.73715651,61b8f3437b89212fae0dfade
6,2.3433,space,0.8714,0,163,163,341,1,,,5abc11e6e1099600016a3097,643773979deb637e8358b23f,2023-04-13_04h15.19.072,PRaM,2021.2.3,Win32,59.73715651,61b8f3437b89212fae0dfade
4,4.6613,space,3.2469,0,164,164,113,1,,,5abc11e6e1099600016a3097,643773979deb637e8358b23f,2023-04-13_04h15.19.072,PRaM,2021.2.3,Win32,59.73715651,61b8f3437b89212fae0dfade
7,3.5882,space,1.7436,0,165,165,159,1,,,5abc11e6e1099600016a3097,643773979deb637e8358b23f,2023-04-13_04h15.19.072,PRaM,2021.2.3,Win32,59.73715651,61b8f3437b89212fae0dfade
6,3.6399,space,1.799,0,166,166,153,1,,,5abc11e6e1099600016a3097,643773979deb637e8358b23f,2023-04-13_04h15.19.072,PRaM,2021.2.3,Win32,59.73715651,61b8f3437b89212fae0dfade
4,2.1973,space,0.3517,0,167,167,188,1,,,5abc11e6e1099600016a3097,643773979deb637e8358b23f,2023-04-13_04h15.19.072,PRaM,2021.2.3,Win32,59.73715651,61b8f3437b89212fae0dfade
6,5.6767,space,3.8781,0,168,168,281,1,,,5abc11e6e1099600016a3097,643773979deb637e8358b23f,2023-04-13_04h15.19.072,PRaM,2021.2.3,Win32,59.73715651,61b8f3437b89212fae0dfade
4,2.6813,space,0.8205,0,169,169,87,1,,,5abc11e6e1099600016a3097,643773979deb637e8358b23f,2023-04-13_04h15.19.072,PRaM,2021.2.3,Win32,59.73715651,61b8f3437b89212fae0dfade
3,3.4587,space,1.5944,0,170,170,81,1,,,5abc11e6e1099600016a3097,643773979deb637e8358b23f,2023-04-13_04h15.19.072,PRaM,2021.2.3,Win32,59.73715651,61b8f3437b89212fae0dfade
7,3.9546,space,2.2927,0,171,171,320,1,,,5abc11e6e1099600016a3097,643773979deb637e8358b23f,2023-04-13_04h15.19.072,PRaM,2021.2.3,Win32,59.73715651,61b8f3437b89212fae0dfade
4,3.9082,space,2.0586,0,172,172,185,1,,,5abc11e6e1099600016a3097,643773979deb637e8358b23f,2023-04-13_04h15.19.072,PRaM,2021.2.3,Win32,59.73715651,61b8f3437b89212fae0dfade
7,2.8822,space,1.0552,0,173,173,264,1,,,5abc11e6e1099600016a3097,643773979deb637e8358b23f,2023-04-13_04h15.19.072,PRaM,2021.2.3,Win32,59.73715651,61b8f3437b89212fae0dfade
7,2.5973,space,0.824,0,174,174,119,1,,,5abc11e6e1099600016a3097,643773979deb637e8358b23f,2023-04-13_04h15.19.072,PRaM,2021.2.3,Win32,59.73715651,61b8f3437b89212fae0dfade
7,2.7657,space,1.0069,0,175,175,83,1,,,5abc11e6e1099600016a3097,643773979deb637e8358b23f,2023-04-13_04h15.19.072,PRaM,2021.2.3,Win32,59.73715651,61b8f3437b89212fae0dfade
8,2.2994,space,0.5869,0,176,176,43,1,,,5abc11e6e1099600016a3097,643773979deb637e8358b23f,2023-04-13_04h15.19.072,PRaM,2021.2.3,Win32,59.73715651,61b8f3437b89212fae0dfade
3,2.1998,space,0.3381,0,177,177,34,1,,,5abc11e6e1099600016a3097,643773979deb637e8358b23f,2023-04-13_04h15.19.072,PRaM,2021.2.3,Win32,59.73715651,61b8f3437b89212fae0dfade
8,2.434,space,0.7035,0,178,178,61,1,,,5abc11e6e1099600016a3097,643773979deb637e8358b23f,2023-04-13_04h15.19.072,PRaM,2021.2.3,Win32,59.73715651,61b8f3437b89212fae0dfade
7,2.6315,space,0.8038,0,179,179,261,1,,,5abc11e6e1099600016a3097,643773979deb637e8358b23f,2023-04-13_04h15.19.072,PRaM,2021.2.3,Win32,59.73715651,61b8f3437b89212fae0dfade
6,2.2671,space,0.6996,0,180,180,348,1,,,5abc11e6e1099600016a3097,643773979deb637e8358b23f,2023-04-13_04h15.19.072,PRaM,2021.2.3,Win32,59.73715651,61b8f3437b89212fae0dfade
6,8.6361,space,6.8154,0,181,181,211,1,,,5abc11e6e1099600016a3097,643773979deb637e8358b23f,2023-04-13_04h15.19.072,PRaM,2021.2.3,Win32,59.73715651,61b8f3437b89212fae0dfade
2,3.4765,space,1.7568,0,182,182,75,1,,,5abc11e6e1099600016a3097,643773979deb637e8358b23f,2023-04-13_04h15.19.072,PRaM,2021.2.3,Win32,59.73715651,61b8f3437b89212fae0dfade
7,3.2146,space,1.5065,0,183,183,358,1,,,5abc11e6e1099600016a3097,643773979deb637e8358b23f,2023-04-13_04h15.19.072,PRaM,2021.2.3,Win32,59.73715651,61b8f3437b89212fae0dfade
6,3.3565,space,1.4945,0,184,184,270,1,,,5abc11e6e1099600016a3097,643773979deb637e8358b23f,2023-04-13_04h15.19.072,PRaM,2021.2.3,Win32,59.73715651,61b8f3437b89212fae0dfade
3,3.1473,space,1.4943,0,185,185,100,1,,,5abc11e6e1099600016a3097,643773979deb637e8358b23f,2023-04-13_04h15.19.072,PRaM,2021.2.3,Win32,59.73715651,61b8f3437b89212fae0dfade
1,3.8375,space,2.4773,0,186,186,128,1,,,5abc11e6e1099600016a3097,643773979deb637e8358b23f,2023-04-13_04h15.19.072,PRaM,2021.2.3,Win32,59.73715651,61b8f3437b89212fae0dfade
7,6.8498,space,5.1033,0,187,187,370,1,,,5abc11e6e1099600016a3097,643773979deb637e8358b23f,2023-04-13_04h15.19.072,PRaM,2021.2.3,Win32,59.73715651,61b8f3437b89212fae0dfade
2,2.8192,space,1.0878,0,188,188,50,1,,,5abc11e6e1099600016a3097,643773979deb637e8358b23f,2023-04-13_04h15.19.072,PRaM,2021.2.3,Win32,59.73715651,61b8f3437b89212fae0dfade
6,3.7869,space,1.9784,0,189,189,40,1,,,5abc11e6e1099600016a3097,643773979deb637e8358b23f,2023-04-13_04h15.19.072,PRaM,2021.2.3,Win32,59.73715651,61b8f3437b89212fae0dfade
7,2.1501,space,0.3044,0,190,190,141,1,,,5abc11e6e1099600016a3097,643773979deb637e8358b23f,2023-04-13_04h15.19.072,PRaM,2021.2.3,Win32,59.73715651,61b8f3437b89212fae0dfade
3,2.7844,space,1.0236,0,191,191,245,1,,,5abc11e6e1099600016a3097,643773979deb637e8358b23f,2023-04-13_04h15.19.072,PRaM,2021.2.3,Win32,59.73715651,61b8f3437b89212fae0dfade
9,4.7411,space,3.6401,0,192,192,207,1,,,5abc11e6e1099600016a3097,643773979deb637e8358b23f,2023-04-13_04h15.19.072,PRaM,2021.2.3,Win32,59.73715651,61b8f3437b89212fae0dfade
6,3.6218,space,1.8494,0,193,193,172,1,,,5abc11e6e1099600016a3097,643773979deb637e8358b23f,2023-04-13_04h15.19.072,PRaM,2021.2.3,Win32,59.73715651,61b8f3437b89212fae0dfade
8,2.2831,space,0.6041,0,194,194,244,1,,,5abc11e6e1099600016a3097,643773979deb637e8358b23f,2023-04-13_04h15.19.072,PRaM,2021.2.3,Win32,59.73715651,61b8f3437b89212fae0dfade
8,1.7695,space,0.1935,0,195,195,64,1,,,5abc11e6e1099600016a3097,643773979deb637e8358b23f,2023-04-13_04h15.19.072,PRaM,2021.2.3,Win32,59.73715651,61b8f3437b89212fae0dfade
7,4.0705,space,2.4301,0,196,196,200,1,,,5abc11e6e1099600016a3097,643773979deb637e8358b23f,2023-04-13_04h15.19.072,PRaM,2021.2.3,Win32,59.73715651,61b8f3437b89212fae0dfade
3,2.0308,space,0.2391,0,197,197,193,1,,,5abc11e6e1099600016a3097,643773979deb637e8358b23f,2023-04-13_04h15.19.072,PRaM,2021.2.3,Win32,59.73715651,61b8f3437b89212fae0dfade
7,2.6224,space,0.8028,0,198,198,3,1,,,5abc11e6e1099600016a3097,643773979deb637e8358b23f,2023-04-13_04h15.19.072,PRaM,2021.2.3,Win32,59.73715651,61b8f3437b89212fae0dfade
4,2.4359,space,0.6732,0,199,199,77,1,,,5abc11e6e1099600016a3097,643773979deb637e8358b23f,2023-04-13_04h15.19.072,PRaM,2021.2.3,Win32,59.73715651,61b8f3437b89212fae0dfade
6,2.4685,space,0.6404,0,200,200,179,1,,,5abc11e6e1099600016a3097,643773979deb637e8358b23f,2023-04-13_04h15.19.072,PRaM,2021.2.3,Win32,59.73715651,61b8f3437b89212fae0dfade
2,2.8012,space,1.1088,0,201,201,92,1,,,5abc11e6e1099600016a3097,643773979deb637e8358b23f,2023-04-13_04h15.19.072,PRaM,2021.2.3,Win32,59.73715651,61b8f3437b89212fae0dfade
8,2.7159,space,0.9342,0,202,202,110,1,,,5abc11e6e1099600016a3097,643773979deb637e8358b23f,2023-04-13_04h15.19.072,PRaM,2021.2.3,Win32,59.73715651,61b8f3437b89212fae0dfade
7,1.802,space,0.2881,0,203,203,102,1,,,5abc11e6e1099600016a3097,643773979deb637e8358b23f,2023-04-13_04h15.19.072,PRaM,2021.2.3,Win32,59.73715651,61b8f3437b89212fae0dfade
2,2.1837,space,0.4924,0,204,204,289,1,,,5abc11e6e1099600016a3097,643773979deb637e8358b23f,2023-04-13_04h15.19.072,PRaM,2021.2.3,Win32,59.73715651,61b8f3437b89212fae0dfade
7,2.6039,space,0.8509,0,205,205,197,1,,,5abc11e6e1099600016a3097,643773979deb637e8358b23f,2023-04-13_04h15.19.072,PRaM,2021.2.3,Win32,59.73715651,61b8f3437b89212fae0dfade
5,3.5059,space,1.6408,0,206,206,319,1,,,5abc11e6e1099600016a3097,643773979deb637e8358b23f,2023-04-13_04h15.19.072,PRaM,2021.2.3,Win32,59.73715651,61b8f3437b89212fae0dfade
4,2.1859,space,0.7561,0,207,207,287,1,,,5abc11e6e1099600016a3097,643773979deb637e8358b23f,2023-04-13_04h15.19.072,PRaM,2021.2.3,Win32,59.73715651,61b8f3437b89212fae0dfade
4,3.794,space,2.0049,0,208,208,268,1,,,5abc11e6e1099600016a3097,643773979deb637e8358b23f,2023-04-13_04h15.19.072,PRaM,2021.2.3,Win32,59.73715651,61b8f3437b89212fae0dfade
5,2.5159,space,0.7002,0,209,209,145,1,,,5abc11e6e1099600016a3097,643773979deb637e8358b23f,2023-04-13_04h15.19.072,PRaM,2021.2.3,Win32,59.73715651,61b8f3437b89212fae0dfade
6,2.884,space,1.0183,0,210,210,26,1,,,5abc11e6e1099600016a3097,643773979deb637e8358b23f,2023-04-13_04h15.19.072,PRaM,2021.2.3,Win32,59.73715651,61b8f3437b89212fae0dfade
5,3.3527,space,1.6107,0,211,211,369,1,,,5abc11e6e1099600016a3097,643773979deb637e8358b23f,2023-04-13_04h15.19.072,PRaM,2021.2.3,Win32,59.73715651,61b8f3437b89212fae0dfade
4,2.1156,space,0.2889,0,212,212,57,1,,,5abc11e6e1099600016a3097,643773979deb637e8358b23f,2023-04-13_04h15.19.072,PRaM,2021.2.3,Win32,59.73715651,61b8f3437b89212fae0dfade
3,2.6204,space,0.8214,0,213,213,232,1,,,5abc11e6e1099600016a3097,643773979deb637e8358b23f,2023-04-13_04h15.19.072,PRaM,2021.2.3,Win32,59.73715651,61b8f3437b89212fae0dfade
3,2.3187,space,0.4226,0,214,214,35,1,,,5abc11e6e1099600016a3097,643773979deb637e8358b23f,2023-04-13_04h15.19.072,PRaM,2021.2.3,Win32,59.73715651,61b8f3437b89212fae0dfade
4,6.0674,space,4.1668,0,215,215,151,1,,,5abc11e6e1099600016a3097,643773979deb637e8358b23f,2023-04-13_04h15.19.072,PRaM,2021.2.3,Win32,59.73715651,61b8f3437b89212fae0dfade
6,1.9678,space,0.1409,0,216,216,140,1,,,5abc11e6e1099600016a3097,643773979deb637e8358b23f,2023-04-13_04h15.19.072,PRaM,2021.2.3,Win32,59.73715651,61b8f3437b89212fae0dfade
5,1.9955,space,0.1425,0,217,217,146,1,,,5abc11e6e1099600016a3097,643773979deb637e8358b23f,2023-04-13_04h15.19.072,PRaM,2021.2.3,Win32,59.73715651,61b8f3437b89212fae0dfade
6,3.6821,space,3.2033,0,218,218,6,1,,,5abc11e6e1099600016a3097,643773979deb637e8358b23f,2023-04-13_04h15.19.072,PRaM,2021.2.3,Win32,59.73715651,61b8f3437b89212fae0dfade
3,2.4845,space,0.7529,0,219,219,215,1,,,5abc11e6e1099600016a3097,643773979deb637e8358b23f,2023-04-13_04h15.19.072,PRaM,2021.2.3,Win32,59.73715651,61b8f3437b89212fae0dfade
7,2.5508,space,0.7333,0,220,220,114,1,,,5abc11e6e1099600016a3097,643773979deb637e8358b23f,2023-04-13_04h15.19.072,PRaM,2021.2.3,Win32,59.73715651,61b8f3437b89212fae0dfade
1,4.7716,space,3.2161,0,221,221,63,1,,,5abc11e6e1099600016a3097,643773979deb637e8358b23f,2023-04-13_04h15.19.072,PRaM,2021.2.3,Win32,59.73715651,61b8f3437b89212fae0dfade
4,2.6843,space,1.0759,0,222,222,242,1,,,5abc11e6e1099600016a3097,643773979deb637e8358b23f,2023-04-13_04h15.19.072,PRaM,2021.2.3,Win32,59.73715651,61b8f3437b89212fae0dfade
2,2.3188,space,0.6093,0,223,223,235,1,,,5abc11e6e1099600016a3097,643773979deb637e8358b23f,2023-04-13_04h15.19.072,PRaM,2021.2.3,Win32,59.73715651,61b8f3437b89212fae0dfade
7,4.5197,space,2.6988,0,224,224,20,1,,,5abc11e6e1099600016a3097,643773979deb637e8358b23f,2023-04-13_04h15.19.072,PRaM,2021.2.3,Win32,59.73715651,61b8f3437b89212fae0dfade
4,2.5505,space,0.7241,0,225,225,216,1,,,5abc11e6e1099600016a3097,643773979deb637e8358b23f,2023-04-13_04h15.19.072,PRaM,2021.2.3,Win32,59.73715651,61b8f3437b89212fae0dfade
6,3.2076,space,1.3405,0,226,226,154,1,,,5abc11e6e1099600016a3097,643773979deb637e8358b23f,2023-04-13_04h15.19.072,PRaM,2021.2.3,Win32,59.73715651,61b8f3437b89212fae0dfade
7,8.739,space,6.9851,0,227,227,12,1,,,5abc11e6e1099600016a3097,643773979deb637e8358b23f,2023-04-13_04h15.19.072,PRaM,2021.2.3,Win32,59.73715651,61b8f3437b89212fae0dfade
4,3.2737,space,1.4941,0,228,228,150,1,,,5abc11e6e1099600016a3097,643773979deb637e8358b23f,2023-04-13_04h15.19.072,PRaM,2021.2.3,Win32,59.73715651,61b8f3437b89212fae0dfade
7,4.0732,space,2.1893,0,229,229,222,1,,,5abc11e6e1099600016a3097,643773979deb637e8358b23f,2023-04-13_04h15.19.072,PRaM,2021.2.3,Win32,59.73715651,61b8f3437b89212fae0dfade
7,2.2818,space,1.0287,0,230,230,201,1,,,5abc11e6e1099600016a3097,643773979deb637e8358b23f,2023-04-13_04h15.19.072,PRaM,2021.2.3,Win32,59.73715651,61b8f3437b89212fae0dfade
4,5.674,space,3.8318,0,231,231,2,1,,,5abc11e6e1099600016a3097,643773979deb637e8358b23f,2023-04-13_04h15.19.072,PRaM,2021.2.3,Win32,59.73715651,61b8f3437b89212fae0dfade
5,2.2345,space,0.4194,0,232,232,364,1,,,5abc11e6e1099600016a3097,643773979deb637e8358b23f,2023-04-13_04h15.19.072,PRaM,2021.2.3,Win32,59.73715651,61b8f3437b89212fae0dfade
6,2.5795,space,0.7376,0,233,233,301,1,,,5abc11e6e1099600016a3097,643773979deb637e8358b23f,2023-04-13_04h15.19.072,PRaM,2021.2.3,Win32,59.73715651,61b8f3437b89212fae0dfade
6,2.4378,space,0.7373,0,234,234,32,1,,,5abc11e6e1099600016a3097,643773979deb637e8358b23f,2023-04-13_04h15.19.072,PRaM,2021.2.3,Win32,59.73715651,61b8f3437b89212fae0dfade
5,2.2657,space,0.4524,0,235,235,343,1,,,5abc11e6e1099600016a3097,643773979deb637e8358b23f,2023-04-13_04h15.19.072,PRaM,2021.2.3,Win32,59.73715651,61b8f3437b89212fae0dfade
6,2.3082,space,0.4692,0,236,236,162,1,,,5abc11e6e1099600016a3097,643773979deb637e8358b23f,2023-04-13_04h15.19.072,PRaM,2021.2.3,Win32,59.73715651,61b8f3437b89212fae0dfade
2,2.3838,space,0.6667,0,237,237,130,1,,,5abc11e6e1099600016a3097,643773979deb637e8358b23f,2023-04-13_04h15.19.072,PRaM,2021.2.3,Win32,59.73715651,61b8f3437b89212fae0dfade
3,3.5869,space,1.7441,0,238,238,27,1,,,5abc11e6e1099600016a3097,643773979deb637e8358b23f,2023-04-13_04h15.19.072,PRaM,2021.2.3,Win32,59.73715651,61b8f3437b89212fae0dfade
8,2.9181,space,1.3219,0,239,239,30,1,,,5abc11e6e1099600016a3097,643773979deb637e8358b23f,2023-04-13_04h15.19.072,PRaM,2021.2.3,Win32,59.73715651,61b8f3437b89212fae0dfade
4,2.5947,space,0.8879,0,240,240,62,1,,,5abc11e6e1099600016a3097,643773979deb637e8358b23f,2023-04-13_04h15.19.072,PRaM,2021.2.3,Win32,59.73715651,61b8f3437b89212fae0dfade
8,3.6185,space,2.3756,0,241,241,326,1,,,5abc11e6e1099600016a3097,643773979deb637e8358b23f,2023-04-13_04h15.19.072,PRaM,2021.2.3,Win32,59.73715651,61b8f3437b89212fae0dfade
3,2.7205,space,0.8907,0,242,242,300,1,,,5abc11e6e1099600016a3097,643773979deb637e8358b23f,2023-04-13_04h15.19.072,PRaM,2021.2.3,Win32,59.73715651,61b8f3437b89212fae0dfade
4,3.0868,space,1.8878,0,243,243,158,1,,,5abc11e6e1099600016a3097,643773979deb637e8358b23f,2023-04-13_04h15.19.072,PRaM,2021.2.3,Win32,59.73715651,61b8f3437b89212fae0dfade
6,3.536,space,2.664,0,244,244,367,1,,,5abc11e6e1099600016a3097,643773979deb637e8358b23f,2023-04-13_04h15.19.072,PRaM,2021.2.3,Win32,59.73715651,61b8f3437b89212fae0dfade
4,4.0384,space,2.0752,0,245,245,318,1,,,5abc11e6e1099600016a3097,643773979deb637e8358b23f,2023-04-13_04h15.19.072,PRaM,2021.2.3,Win32,59.73715651,61b8f3437b89212fae0dfade
4,2.3989,space,0.5729,0,246,246,125,1,,,5abc11e6e1099600016a3097,643773979deb637e8358b23f,2023-04-13_04h15.19.072,PRaM,2021.2.3,Win32,59.73715651,61b8f3437b89212fae0dfade
5,2.6856,space,0.7556,0,247,247,98,1,,,5abc11e6e1099600016a3097,643773979deb637e8358b23f,2023-04-13_04h15.19.072,PRaM,2021.2.3,Win32,59.73715651,61b8f3437b89212fae0dfade
6,1.8538,space,0.068,0,248,248,337,1,,,5abc11e6e1099600016a3097,643773979deb637e8358b23f,2023-04-13_04h15.19.072,PRaM,2021.2.3,Win32,59.73715651,61b8f3437b89212fae0dfade
4,2.6006,space,0.7548,0,249,249,283,1,,,5abc11e6e1099600016a3097,643773979deb637e8358b23f,2023-04-13_04h15.19.072,PRaM,2021.2.3,Win32,59.73715651,61b8f3437b89212fae0dfade
7,2.4384,space,0.7366,0,250,250,53,1,,,5abc11e6e1099600016a3097,643773979deb637e8358b23f,2023-04-13_04h15.19.072,PRaM,2021.2.3,Win32,59.73715651,61b8f3437b89212fae0dfade
6,3.3422,space,1.4584,0,251,251,52,1,,,5abc11e6e1099600016a3097,643773979deb637e8358b23f,2023-04-13_04h15.19.072,PRaM,2021.2.3,Win32,59.73715651,61b8f3437b89212fae0dfade
5,3.0867,space,1.2214,0,252,252,221,1,,,5abc11e6e1099600016a3097,643773979deb637e8358b23f,2023-04-13_04h15.19.072,PRaM,2021.2.3,Win32,59.73715651,61b8f3437b89212fae0dfade
4,2.2522,space,0.4392,0,253,253,190,1,,,5abc11e6e1099600016a3097,643773979deb637e8358b23f,2023-04-13_04h15.19.072,PRaM,2021.2.3,Win32,59.73715651,61b8f3437b89212fae0dfade
4,2.4832,space,0.607,0,254,254,249,1,,,5abc11e6e1099600016a3097,643773979deb637e8358b23f,2023-04-13_04h15.19.072,PRaM,2021.2.3,Win32,59.73715651,61b8f3437b89212fae0dfade
8,2.9015,space,1.1261,0,255,255,208,1,,,5abc11e6e1099600016a3097,643773979deb637e8358b23f,2023-04-13_04h15.19.072,PRaM,2021.2.3,Win32,59.73715651,61b8f3437b89212fae0dfade
8,2.9529,space,1.3207,0,256,256,29,1,,,5abc11e6e1099600016a3097,643773979deb637e8358b23f,2023-04-13_04h15.19.072,PRaM,2021.2.3,Win32,59.73715651,61b8f3437b89212fae0dfade
6,2.6142,space,0.7141,0,257,257,311,1,,,5abc11e6e1099600016a3097,643773979deb637e8358b23f,2023-04-13_04h15.19.072,PRaM,2021.2.3,Win32,59.73715651,61b8f3437b89212fae0dfade
1,3.9668,space,2.5896,0,258,258,290,1,,,5abc11e6e1099600016a3097,643773979deb637e8358b23f,2023-04-13_04h15.19.072,PRaM,2021.2.3,Win32,59.73715651,61b8f3437b89212fae0dfade
3,3.2827,space,1.5566,0,259,259,237,1,,,5abc11e6e1099600016a3097,643773979deb637e8358b23f,2023-04-13_04h15.19.072,PRaM,2021.2.3,Win32,59.73715651,61b8f3437b89212fae0dfade
8,2.6853,space,0.92,0,260,260,127,1,,,5abc11e6e1099600016a3097,643773979deb637e8358b23f,2023-04-13_04h15.19.072,PRaM,2021.2.3,Win32,59.73715651,61b8f3437b89212fae0dfade
7,1.9505,space,0.3517,0,261,261,335,1,,,5abc11e6e1099600016a3097,643773979deb637e8358b23f,2023-04-13_04h15.19.072,PRaM,2021.2.3,Win32,59.73715651,61b8f3437b89212fae0dfade
6,3.0897,space,1.243,0,262,262,86,1,,,5abc11e6e1099600016a3097,643773979deb637e8358b23f,2023-04-13_04h15.19.072,PRaM,2021.2.3,Win32,59.73715651,61b8f3437b89212fae0dfade
3,2.8499,space,0.942,0,263,263,229,1,,,5abc11e6e1099600016a3097,643773979deb637e8358b23f,2023-04-13_04h15.19.072,PRaM,2021.2.3,Win32,59.73715651,61b8f3437b89212fae0dfade
4,2.2972,space,0.4658,0,264,264,338,1,,,5abc11e6e1099600016a3097,643773979deb637e8358b23f,2023-04-13_04h15.19.072,PRaM,2021.2.3,Win32,59.73715651,61b8f3437b89212fae0dfade
4,2.6656,space,1.3054,0,265,265,376,1,,,5abc11e6e1099600016a3097,643773979deb637e8358b23f,2023-04-13_04h15.19.072,PRaM,2021.2.3,Win32,59.73715651,61b8f3437b89212fae0dfade
3,2.8512,space,1.0253,0,266,266,72,1,,,5abc11e6e1099600016a3097,643773979deb637e8358b23f,2023-04-13_04h15.19.072,PRaM,2021.2.3,Win32,59.73715651,61b8f3437b89212fae0dfade
2,3.5546,space,1.7209,0,267,267,28,1,,,5abc11e6e1099600016a3097,643773979deb637e8358b23f,2023-04-13_04h15.19.072,PRaM,2021.2.3,Win32,59.73715651,61b8f3437b89212fae0dfade
4,2.7864,space,0.9036,0,268,268,124,1,,,5abc11e6e1099600016a3097,643773979deb637e8358b23f,2023-04-13_04h15.19.072,PRaM,2021.2.3,Win32,59.73715651,61b8f3437b89212fae0dfade
8,2.1266,space,0.3039,0,269,269,323,1,,,5abc11e6e1099600016a3097,643773979deb637e8358b23f,2023-04-13_04h15.19.072,PRaM,2021.2.3,Win32,59.73715651,61b8f3437b89212fae0dfade
4,2.8532,space,1.051,0,270,270,313,1,,,5abc11e6e1099600016a3097,643773979deb637e8358b23f,2023-04-13_04h15.19.072,PRaM,2021.2.3,Win32,59.73715651,61b8f3437b89212fae0dfade
3,2.2689,space,0.3394,0,271,271,308,1,,,5abc11e6e1099600016a3097,643773979deb637e8358b23f,2023-04-13_04h15.19.072,PRaM,2021.2.3,Win32,59.73715651,61b8f3437b89212fae0dfade
2,2.548,space,0.7457,0,272,272,79,1,,,5abc11e6e1099600016a3097,643773979deb637e8358b23f,2023-04-13_04h15.19.072,PRaM,2021.2.3,Win32,59.73715651,61b8f3437b89212fae0dfade
7,3.1878,space,1.3192,0,273,273,88,1,,,5abc11e6e1099600016a3097,643773979deb637e8358b23f,2023-04-13_04h15.19.072,PRaM,2021.2.3,Win32,59.73715651,61b8f3437b89212fae0dfade
3,2.0855,space,0.6416,0,274,274,89,1,,,5abc11e6e1099600016a3097,643773979deb637e8358b23f,2023-04-13_04h15.19.072,PRaM,2021.2.3,Win32,59.73715651,61b8f3437b89212fae0dfade
8,2.2338,space,0.4032,0,275,275,280,1,,,5abc11e6e1099600016a3097,643773979deb637e8358b23f,2023-04-13_04h15.19.072,PRaM,2021.2.3,Win32,59.73715651,61b8f3437b89212fae0dfade
1,2.7721,space,1.3573,0,276,276,68,1,,,5abc11e6e1099600016a3097,643773979deb637e8358b23f,2023-04-13_04h15.19.072,PRaM,2021.2.3,Win32,59.73715651,61b8f3437b89212fae0dfade
5,4.4051,space,2.6935,0,277,277,93,1,,,5abc11e6e1099600016a3097,643773979deb637e8358b23f,2023-04-13_04h15.19.072,PRaM,2021.2.3,Win32,59.73715651,61b8f3437b89212fae0dfade
7,9.5234,space,7.8011,0,278,278,183,1,,,5abc11e6e1099600016a3097,643773979deb637e8358b23f,2023-04-13_04h15.19.072,PRaM,2021.2.3,Win32,59.73715651,61b8f3437b89212fae0dfade
4,2.401,space,0.5694,0,279,279,312,1,,,5abc11e6e1099600016a3097,643773979deb637e8358b23f,2023-04-13_04h15.19.072,PRaM,2021.2.3,Win32,59.73715651,61b8f3437b89212fae0dfade
2,2.3452,space,0.5309,0,280,280,247,1,,,5abc11e6e1099600016a3097,643773979deb637e8358b23f,2023-04-13_04h15.19.072,PRaM,2021.2.3,Win32,59.73715651,61b8f3437b89212fae0dfade
6,2.4707,space,0.6029,0,281,281,336,1,,,5abc11e6e1099600016a3097,643773979deb637e8358b23f,2023-04-13_04h15.19.072,PRaM,2021.2.3,Win32,59.73715651,61b8f3437b89212fae0dfade
6,2.0129,space,0.2625,0,282,282,331,1,,,5abc11e6e1099600016a3097,643773979deb637e8358b23f,2023-04-13_04h15.19.072,PRaM,2021.2.3,Win32,59.73715651,61b8f3437b89212fae0dfade
6,2.2876,space,0.6428,0,283,283,202,1,,,5abc11e6e1099600016a3097,643773979deb637e8358b23f,2023-04-13_04h15.19.072,PRaM,2021.2.3,Win32,59.73715651,61b8f3437b89212fae0dfade
7,1.7507,space,0.3822,0,284,284,307,1,,,5abc11e6e1099600016a3097,643773979deb637e8358b23f,2023-04-13_04h15.19.072,PRaM,2021.2.3,Win32,59.73715651,61b8f3437b89212fae0dfade
4,3.1848,space,1.3432,0,285,285,184,1,,,5abc11e6e1099600016a3097,643773979deb637e8358b23f,2023-04-13_04h15.19.072,PRaM,2021.2.3,Win32,59.73715651,61b8f3437b89212fae0dfade
7,2.787,space,0.9076,0,286,286,282,1,,,5abc11e6e1099600016a3097,643773979deb637e8358b23f,2023-04-13_04h15.19.072,PRaM,2021.2.3,Win32,59.73715651,61b8f3437b89212fae0dfade
3,2.4511,space,0.5994,0,287,287,293,1,,,5abc11e6e1099600016a3097,643773979deb637e8358b23f,2023-04-13_04h15.19.072,PRaM,2021.2.3,Win32,59.73715651,61b8f3437b89212fae0dfade
6,2.3927,space,1.2073,0,288,288,363,1,,,5abc11e6e1099600016a3097,643773979deb637e8358b23f,2023-04-13_04h15.19.072,PRaM,2021.2.3,Win32,59.73715651,61b8f3437b89212fae0dfade
2,2.9156,space,1.2579,0,289,289,55,1,,,5abc11e6e1099600016a3097,643773979deb637e8358b23f,2023-04-13_04h15.19.072,PRaM,2021.2.3,Win32,59.73715651,61b8f3437b89212fae0dfade
8,2.5833,space,0.7387,0,290,290,132,1,,,5abc11e6e1099600016a3097,643773979deb637e8358b23f,2023-04-13_04h15.19.072,PRaM,2021.2.3,Win32,59.73715651,61b8f3437b89212fae0dfade
4,2.3131,space,0.4893,0,291,291,309,1,,,5abc11e6e1099600016a3097,643773979deb637e8358b23f,2023-04-13_04h15.19.072,PRaM,2021.2.3,Win32,59.73715651,61b8f3437b89212fae0dfade
6,1.907,space,0.1041,0,292,292,366,1,,,5abc11e6e1099600016a3097,643773979deb637e8358b23f,2023-04-13_04h15.19.072,PRaM,2021.2.3,Win32,59.73715651,61b8f3437b89212fae0dfade
7,1.9323,space,0.1513,0,293,293,118,1,,,5abc11e6e1099600016a3097,643773979deb637e8358b23f,2023-04-13_04h15.19.072,PRaM,2021.2.3,Win32,59.73715651,61b8f3437b89212fae0dfade
4,2.5199,space,0.6434,0,294,294,296,1,,,5abc11e6e1099600016a3097,643773979deb637e8358b23f,2023-04-13_04h15.19.072,PRaM,2021.2.3,Win32,59.73715651,61b8f3437b89212fae0dfade
6,3.4169,space,1.5065,0,295,295,160,1,,,5abc11e6e1099600016a3097,643773979deb637e8358b23f,2023-04-13_04h15.19.072,PRaM,2021.2.3,Win32,59.73715651,61b8f3437b89212fae0dfade
6,2.1472,space,0.3344,0,296,296,233,1,,,5abc11e6e1099600016a3097,643773979deb637e8358b23f,2023-04-13_04h15.19.072,PRaM,2021.2.3,Win32,59.73715651,61b8f3437b89212fae0dfade
8,2.3687,space,0.6529,0,297,297,225,1,,,5abc11e6e1099600016a3097,643773979deb637e8358b23f,2023-04-13_04h15.19.072,PRaM,2021.2.3,Win32,59.73715651,61b8f3437b89212fae0dfade
7,2.3943,space,0.9208,0,298,298,209,1,,,5abc11e6e1099600016a3097,643773979deb637e8358b23f,2023-04-13_04h15.19.072,PRaM,2021.2.3,Win32,59.73715651,61b8f3437b89212fae0dfade
3,5.7261,space,3.857,0,299,299,273,1,,,5abc11e6e1099600016a3097,643773979deb637e8358b23f,2023-04-13_04h15.19.072,PRaM,2021.2.3,Win32,59.73715651,61b8f3437b89212fae0dfade
3,3.3551,space,1.4393,0,300,300,1,1,,,5abc11e6e1099600016a3097,643773979deb637e8358b23f,2023-04-13_04h15.19.072,PRaM,2021.2.3,Win32,59.73715651,61b8f3437b89212fae0dfade
5,2.8042,space,0.857,0,301,301,322,1,,,5abc11e6e1099600016a3097,643773979deb637e8358b23f,2023-04-13_04h15.19.072,PRaM,2021.2.3,Win32,59.73715651,61b8f3437b89212fae0dfade
7,2.8688,space,1.0509,0,302,302,38,1,,,5abc11e6e1099600016a3097,643773979deb637e8358b23f,2023-04-13_04h15.19.072,PRaM,2021.2.3,Win32,59.73715651,61b8f3437b89212fae0dfade
5,4.1875,space,2.3253,0,303,303,165,1,,,5abc11e6e1099600016a3097,643773979deb637e8358b23f,2023-04-13_04h15.19.072,PRaM,2021.2.3,Win32,59.73715651,61b8f3437b89212fae0dfade
6,1.7785,space,0.4686,0,304,304,340,1,,,5abc11e6e1099600016a3097,643773979deb637e8358b23f,2023-04-13_04h15.19.072,PRaM,2021.2.3,Win32,59.73715651,61b8f3437b89212fae0dfade
4,2.2175,space,0.352,0,305,305,265,1,,,5abc11e6e1099600016a3097,643773979deb637e8358b23f,2023-04-13_04h15.19.072,PRaM,2021.2.3,Win32,59.73715651,61b8f3437b89212fae0dfade
4,2.5025,space,0.6363,0,306,306,15,1,,,5abc11e6e1099600016a3097,643773979deb637e8358b23f,2023-04-13_04h15.19.072,PRaM,2021.2.3,Win32,59.73715651,61b8f3437b89212fae0dfade
5,2.1702,space,0.7748,0,307,307,164,1,,,5abc11e6e1099600016a3097,643773979deb637e8358b23f,2023-04-13_04h15.19.072,PRaM,2021.2.3,Win32,59.73715651,61b8f3437b89212fae0dfade
7,2.6507,space,0.7837,0,308,308,47,1,,,5abc11e6e1099600016a3097,643773979deb637e8358b23f,2023-04-13_04h15.19.072,PRaM,2021.2.3,Win32,59.73715651,61b8f3437b89212fae0dfade
6,2.7368,space,0.8505,0,309,309,143,1,,,5abc11e6e1099600016a3097,643773979deb637e8358b23f,2023-04-13_04h15.19.072,PRaM,2021.2.3,Win32,59.73715651,61b8f3437b89212fae0dfade
5,3.9895,space,2.1581,0,310,310,198,1,,,5abc11e6e1099600016a3097,643773979deb637e8358b23f,2023-04-13_04h15.19.072,PRaM,2021.2.3,Win32,59.73715651,61b8f3437b89212fae0dfade
4,3.9002,space,2.1967,0,311,311,258,1,,,5abc11e6e1099600016a3097,643773979deb637e8358b23f,2023-04-13_04h15.19.072,PRaM,2021.2.3,Win32,59.73715651,61b8f3437b89212fae0dfade
4,1.8149,space,0.5925,0,312,312,329,1,,,5abc11e6e1099600016a3097,643773979deb637e8358b23f,2023-04-13_04h15.19.072,PRaM,2021.2.3,Win32,59.73715651,61b8f3437b89212fae0dfade
5,2.1848,space,0.3374,0,313,313,377,1,,,5abc11e6e1099600016a3097,643773979deb637e8358b23f,2023-04-13_04h15.19.072,PRaM,2021.2.3,Win32,59.73715651,61b8f3437b89212fae0dfade
4,2.452,space,0.5539,0,314,314,263,1,,,5abc11e6e1099600016a3097,643773979deb637e8358b23f,2023-04-13_04h15.19.072,PRaM,2021.2.3,Win32,59.73715651,61b8f3437b89212fae0dfade
1,2.787,space,1.3218,0,315,315,210,1,,,5abc11e6e1099600016a3097,643773979deb637e8358b23f,2023-04-13_04h15.19.072,PRaM,2021.2.3,Win32,59.73715651,61b8f3437b89212fae0dfade
3,2.3315,space,0.4764,0,316,316,121,1,,,5abc11e6e1099600016a3097,643773979deb637e8358b23f,2023-04-13_04h15.19.072,PRaM,2021.2.3,Win32,59.73715651,61b8f3437b89212fae0dfade
3,2.8859,space,1.0748,0,317,317,234,1,,,5abc11e6e1099600016a3097,643773979deb637e8358b23f,2023-04-13_04h15.19.072,PRaM,2021.2.3,Win32,59.73715651,61b8f3437b89212fae0dfade
4,2.5012,space,0.7031,0,318,318,204,1,,,5abc11e6e1099600016a3097,643773979deb637e8358b23f,2023-04-13_04h15.19.072,PRaM,2021.2.3,Win32,59.73715651,61b8f3437b89212fae0dfade
4,2.249,space,0.3069,0,319,319,157,1,,,5abc11e6e1099600016a3097,643773979deb637e8358b23f,2023-04-13_04h15.19.072,PRaM,2021.2.3,Win32,59.73715651,61b8f3437b89212fae0dfade
6,2.7234,space,0.8707,0,320,320,291,1,,,5abc11e6e1099600016a3097,643773979deb637e8358b23f,2023-04-13_04h15.19.072,PRaM,2021.2.3,Win32,59.73715651,61b8f3437b89212fae0dfade
7,1.9463,space,0.0662,0,321,321,310,1,,,5abc11e6e1099600016a3097,643773979deb637e8358b23f,2023-04-13_04h15.19.072,PRaM,2021.2.3,Win32,59.73715651,61b8f3437b89212fae0dfade
4,2.973,space,1.0886,0,322,322,44,1,,,5abc11e6e1099600016a3097,643773979deb637e8358b23f,2023-04-13_04h15.19.072,PRaM,2021.2.3,Win32,59.73715651,61b8f3437b89212fae0dfade
4,2.3348,space,0.4692,0,323,323,170,1,,,5abc11e6e1099600016a3097,643773979deb637e8358b23f,2023-04-13_04h15.19.072,PRaM,2021.2.3,Win32,59.73715651,61b8f3437b89212fae0dfade
6,3.2184,space,1.3425,0,324,324,357,1,,,5abc11e6e1099600016a3097,643773979deb637e8358b23f,2023-04-13_04h15.19.072,PRaM,2021.2.3,Win32,59.73715651,61b8f3437b89212fae0dfade
7,2.9366,space,1.089,0,325,325,344,1,,,5abc11e6e1099600016a3097,643773979deb637e8358b23f,2023-04-13_04h15.19.072,PRaM,2021.2.3,Win32,59.73715651,61b8f3437b89212fae0dfade
4,3.355,space,1.407,0,326,326,373,1,,,5abc11e6e1099600016a3097,643773979deb637e8358b23f,2023-04-13_04h15.19.072,PRaM,2021.2.3,Win32,59.73715651,61b8f3437b89212fae0dfade
5,2.8519,space,1.0445,0,327,327,315,1,,,5abc11e6e1099600016a3097,643773979deb637e8358b23f,2023-04-13_04h15.19.072,PRaM,2021.2.3,Win32,59.73715651,61b8f3437b89212fae0dfade
6,2.2695,space,1.9098,0,328,328,112,1,,,5abc11e6e1099600016a3097,643773979deb637e8358b23f,2023-04-13_04h15.19.072,PRaM,2021.2.3,Win32,59.73715651,61b8f3437b89212fae0dfade
6,2.3322,space,0.4949,0,329,329,178,1,,,5abc11e6e1099600016a3097,643773979deb637e8358b23f,2023-04-13_04h15.19.072,PRaM,2021.2.3,Win32,59.73715651,61b8f3437b89212fae0dfade
4,2.6007,space,0.7374,0,330,330,69,1,,,5abc11e6e1099600016a3097,643773979deb637e8358b23f,2023-04-13_04h15.19.072,PRaM,2021.2.3,Win32,59.73715651,61b8f3437b89212fae0dfade
3,2.2481,space,0.3924,0,331,331,91,1,,,5abc11e6e1099600016a3097,643773979deb637e8358b23f,2023-04-13_04h15.19.072,PRaM,2021.2.3,Win32,59.73715651,61b8f3437b89212fae0dfade
3,2.518,space,0.6361,0,332,332,191,1,,,5abc11e6e1099600016a3097,643773979deb637e8358b23f,2023-04-13_04h15.19.072,PRaM,2021.2.3,Win32,59.73715651,61b8f3437b89212fae0dfade
3,2.4654,space,0.8399,0,333,333,260,1,,,5abc11e6e1099600016a3097,643773979deb637e8358b23f,2023-04-13_04h15.19.072,PRaM,2021.2.3,Win32,59.73715651,61b8f3437b89212fae0dfade
4,3.4056,space,1.5062,0,334,334,316,1,,,5abc11e6e1099600016a3097,643773979deb637e8358b23f,2023-04-13_04h15.19.072,PRaM,2021.2.3,Win32,59.73715651,61b8f3437b89212fae0dfade
5,2.0564,space,0.1922,0,335,335,167,1,,,5abc11e6e1099600016a3097,643773979deb637e8358b23f,2023-04-13_04h15.19.072,PRaM,2021.2.3,Win32,59.73715651,61b8f3437b89212fae0dfade
2,2.2178,space,0.5083,0,336,336,231,1,,,5abc11e6e1099600016a3097,643773979deb637e8358b23f,2023-04-13_04h15.19.072,PRaM,2021.2.3,Win32,59.73715651,61b8f3437b89212fae0dfade
3,1.9332,space,0.1393,0,337,337,292,1,,,5abc11e6e1099600016a3097,643773979deb637e8358b23f,2023-04-13_04h15.19.072,PRaM,2021.2.3,Win32,59.73715651,61b8f3437b89212fae0dfade
4,3.0025,space,1.0545,0,338,338,346,1,,,5abc11e6e1099600016a3097,643773979deb637e8358b23f,2023-04-13_04h15.19.072,PRaM,2021.2.3,Win32,59.73715651,61b8f3437b89212fae0dfade
5,2.2346,space,0.5194,0,339,339,187,1,,,5abc11e6e1099600016a3097,643773979deb637e8358b23f,2023-04-13_04h15.19.072,PRaM,2021.2.3,Win32,59.73715651,61b8f3437b89212fae0dfade
4,3.3509,space,1.4559,0,340,340,359,1,,,5abc11e6e1099600016a3097,643773979deb637e8358b23f,2023-04-13_04h15.19.072,PRaM,2021.2.3,Win32,59.73715651,61b8f3437b89212fae0dfade
6,2.2503,space,0.5163,0,341,341,117,1,,,5abc11e6e1099600016a3097,643773979deb637e8358b23f,2023-04-13_04h15.19.072,PRaM,2021.2.3,Win32,59.73715651,61b8f3437b89212fae0dfade
6,2.739,space,0.875,0,342,342,177,1,,,5abc11e6e1099600016a3097,643773979deb637e8358b23f,2023-04-13_04h15.19.072,PRaM,2021.2.3,Win32,59.73715651,61b8f3437b89212fae0dfade
4,3.6773,space,2.0113,0,343,343,149,1,,,5abc11e6e1099600016a3097,643773979deb637e8358b23f,2023-04-13_04h15.19.072,PRaM,2021.2.3,Win32,59.73715651,61b8f3437b89212fae0dfade
3,3.2389,space,1.4226,0,344,344,78,1,,,5abc11e6e1099600016a3097,643773979deb637e8358b23f,2023-04-13_04h15.19.072,PRaM,2021.2.3,Win32,59.73715651,61b8f3437b89212fae0dfade
5,2.0263,space,0.1394,0,345,345,362,1,,,5abc11e6e1099600016a3097,643773979deb637e8358b23f,2023-04-13_04h15.19.072,PRaM,2021.2.3,Win32,59.73715651,61b8f3437b89212fae0dfade
6,2.6669,space,0.8034,0,346,346,21,1,,,5abc11e6e1099600016a3097,643773979deb637e8358b23f,2023-04-13_04h15.19.072,PRaM,2021.2.3,Win32,59.73715651,61b8f3437b89212fae0dfade
4,2.2866,space,0.3941,0,347,347,259,1,,,5abc11e6e1099600016a3097,643773979deb637e8358b23f,2023-04-13_04h15.19.072,PRaM,2021.2.3,Win32,59.73715651,61b8f3437b89212fae0dfade
6,2.0999,space,0.5863,0,348,348,297,1,,,5abc11e6e1099600016a3097,643773979deb637e8358b23f,2023-04-13_04h15.19.072,PRaM,2021.2.3,Win32,59.73715651,61b8f3437b89212fae0dfade
7,1.9994,space,0.1979,0,349,349,84,1,,,5abc11e6e1099600016a3097,643773979deb637e8358b23f,2023-04-13_04h15.19.072,PRaM,2021.2.3,Win32,59.73715651,61b8f3437b89212fae0dfade
7,2.8548,space,0.9807,0,350,350,45,1,,,5abc11e6e1099600016a3097,643773979deb637e8358b23f,2023-04-13_04h15.19.072,PRaM,2021.2.3,Win32,59.73715651,61b8f3437b89212fae0dfade
6,2.4517,space,0.6368,0,351,351,126,1,,,5abc11e6e1099600016a3097,643773979deb637e8358b23f,2023-04-13_04h15.19.072,PRaM,2021.2.3,Win32,59.73715651,61b8f3437b89212fae0dfade
5,2.3667,space,0.4721,0,352,352,288,1,,,5abc11e6e1099600016a3097,643773979deb637e8358b23f,2023-04-13_04h15.19.072,PRaM,2021.2.3,Win32,59.73715651,61b8f3437b89212fae0dfade
3,2.334,space,0.4544,0,353,353,9,1,,,5abc11e6e1099600016a3097,643773979deb637e8358b23f,2023-04-13_04h15.19.072,PRaM,2021.2.3,Win32,59.73715651,61b8f3437b89212fae0dfade
4,2.5324,space,0.8584,0,354,354,286,1,,,5abc11e6e1099600016a3097,643773979deb637e8358b23f,2023-04-13_04h15.19.072,PRaM,2021.2.3,Win32,59.73715651,61b8f3437b89212fae0dfade
3,7.7376,space,5.8812,0,355,355,223,1,,,5abc11e6e1099600016a3097,643773979deb637e8358b23f,2023-04-13_04h15.19.072,PRaM,2021.2.3,Win32,59.73715651,61b8f3437b89212fae0dfade
4,2.1664,space,0.3263,0,356,356,353,1,,,5abc11e6e1099600016a3097,643773979deb637e8358b23f,2023-04-13_04h15.19.072,PRaM,2021.2.3,Win32,59.73715651,61b8f3437b89212fae0dfade
7,3.1366,space,1.3212,0,357,357,115,1,,,5abc11e6e1099600016a3097,643773979deb637e8358b23f,2023-04-13_04h15.19.072,PRaM,2021.2.3,Win32,59.73715651,61b8f3437b89212fae0dfade
4,2.1137,space,0.2676,0,358,358,13,1,,,5abc11e6e1099600016a3097,643773979deb637e8358b23f,2023-04-13_04h15.19.072,PRaM,2021.2.3,Win32,59.73715651,61b8f3437b89212fae0dfade
5,2.2182,space,0.319,0,359,359,23,1,,,5abc11e6e1099600016a3097,643773979deb637e8358b23f,2023-04-13_04h15.19.072,PRaM,2021.2.3,Win32,59.73715651,61b8f3437b89212fae0dfade
1,2.702,space,1.0879,0,360,360,339,1,,,5abc11e6e1099600016a3097,643773979deb637e8358b23f,2023-04-13_04h15.19.072,PRaM,2021.2.3,Win32,59.73715651,61b8f3437b89212fae0dfade
6,2.8218,space,0.9962,0,361,361,138,1,,,5abc11e6e1099600016a3097,643773979deb637e8358b23f,2023-04-13_04h15.19.072,PRaM,2021.2.3,Win32,59.73715651,61b8f3437b89212fae0dfade
5,1.915,space,0.1181,0,362,362,131,1,,,5abc11e6e1099600016a3097,643773979deb637e8358b23f,2023-04-13_04h15.19.072,PRaM,2021.2.3,Win32,59.73715651,61b8f3437b89212fae0dfade
6,1.9493,space,0.1646,0,363,363,25,1,,,5abc11e6e1099600016a3097,643773979deb637e8358b23f,2023-04-13_04h15.19.072,PRaM,2021.2.3,Win32,59.73715651,61b8f3437b89212fae0dfade
5,2.2131,space,0.3559,0,364,364,374,1,,,5abc11e6e1099600016a3097,643773979deb637e8358b23f,2023-04-13_04h15.19.072,PRaM,2021.2.3,Win32,59.73715651,61b8f3437b89212fae0dfade
6,3.2178,space,1.2731,0,365,365,205,1,,,5abc11e6e1099600016a3097,643773979deb637e8358b23f,2023-04-13_04h15.19.072,PRaM,2021.2.3,Win32,59.73715651,61b8f3437b89212fae0dfade
7,1.8133,space,0.5692,0,366,366,328,1,,,5abc11e6e1099600016a3097,643773979deb637e8358b23f,2023-04-13_04h15.19.072,PRaM,2021.2.3,Win32,59.73715651,61b8f3437b89212fae0dfade
4,5.5974,space,3.7893,0,367,367,10,1,,,5abc11e6e1099600016a3097,643773979deb637e8358b23f,2023-04-13_04h15.19.072,PRaM,2021.2.3,Win32,59.73715651,61b8f3437b89212fae0dfade
4,3.7361,space,1.8544,0,368,368,254,1,,,5abc11e6e1099600016a3097,643773979deb637e8358b23f,2023-04-13_04h15.19.072,PRaM,2021.2.3,Win32,59.73715651,61b8f3437b89212fae0dfade
4,2.1025,space,0.1897,0,369,369,73,1,,,5abc11e6e1099600016a3097,643773979deb637e8358b23f,2023-04-13_04h15.19.072,PRaM,2021.2.3,Win32,59.73715651,61b8f3437b89212fae0dfade
6,2.3302,space,0.6332,0,370,370,147,1,,,5abc11e6e1099600016a3097,643773979deb637e8358b23f,2023-04-13_04h15.19.072,PRaM,2021.2.3,Win32,59.73715651,61b8f3437b89212fae0dfade
2,2.4691,space,0.6659,0,371,371,144,1,,,5abc11e6e1099600016a3097,643773979deb637e8358b23f,2023-04-13_04h15.19.072,PRaM,2021.2.3,Win32,59.73715651,61b8f3437b89212fae0dfade
7,4.7419,space,2.8469,0,372,372,168,1,,,5abc11e6e1099600016a3097,643773979deb637e8358b23f,2023-04-13_04h15.19.072,PRaM,2021.2.3,Win32,59.73715651,61b8f3437b89212fae0dfade
4,2.1297,space,0.203,0,373,373,238,1,,,5abc11e6e1099600016a3097,643773979deb637e8358b23f,2023-04-13_04h15.19.072,PRaM,2021.2.3,Win32,59.73715651,61b8f3437b89212fae0dfade
4,5.9271,space,4.0308,0,374,374,317,1,,,5abc11e6e1099600016a3097,643773979deb637e8358b23f,2023-04-13_04h15.19.072,PRaM,2021.2.3,Win32,59.73715651,61b8f3437b89212fae0dfade
7,2.8866,space,1.1758,0,375,375,182,1,,,5abc11e6e1099600016a3097,643773979deb637e8358b23f,2023-04-13_04h15.19.072,PRaM,2021.2.3,Win32,59.73715651,61b8f3437b89212fae0dfade
6,1.7981,space,0.4167,0,376,376,332,1,,,5abc11e6e1099600016a3097,643773979deb637e8358b23f,2023-04-13_04h15.19.072,PRaM,2021.2.3,Win32,59.73715651,61b8f3437b89212fae0dfade
7,2.4489,space,0.8075,0,377,377,277,1,,,5abc11e6e1099600016a3097,643773979deb637e8358b23f,2023-04-13_04h15.19.072,PRaM,2021.2.3,Win32,59.73715651,61b8f3437b89212fae0dfade
