Rating.response,Rating.rt,EndTrial.keys,EndTrial.rt,trials.thisRepN,trials.thisTrialN,trials.thisN,trials.thisIndex,trials.ran,Pos1,Pos2,participant,session,date,expName,psychopyVersion,OS,frameRate,study_id
6,7.5485,space,12.2016,0,0,0,307,1,,,5b64b599f7798c0001828516,64391632cb3e4823d65f31a7,2023-04-14_10h01.15.707,PRaM,2021.2.3,Win32,72.07207207,61b8f3437b89212fae0dfade
1,3.8004,space,2.4576,0,1,1,250,1,,,5b64b599f7798c0001828516,64391632cb3e4823d65f31a7,2023-04-14_10h01.15.707,PRaM,2021.2.3,Win32,72.07207207,61b8f3437b89212fae0dfade
3,2.9329,space,1.4816,0,2,2,173,1,,,5b64b599f7798c0001828516,64391632cb3e4823d65f31a7,2023-04-14_10h01.15.707,PRaM,2021.2.3,Win32,72.07207207,61b8f3437b89212fae0dfade
3,2.6749,space,1.0015,0,3,3,117,1,,,5b64b599f7798c0001828516,64391632cb3e4823d65f31a7,2023-04-14_10h01.15.707,PRaM,2021.2.3,Win32,72.07207207,61b8f3437b89212fae0dfade
5,3.1929,space,3.8556,0,4,4,118,1,,,5b64b599f7798c0001828516,64391632cb3e4823d65f31a7,2023-04-14_10h01.15.707,PRaM,2021.2.3,Win32,72.07207207,61b8f3437b89212fae0dfade
1,2.0537,space,0.1915,0,5,5,108,1,,,5b64b599f7798c0001828516,64391632cb3e4823d65f31a7,2023-04-14_10h01.15.707,PRaM,2021.2.3,Win32,72.07207207,61b8f3437b89212fae0dfade
2,4.8178,space,3.0838,0,6,6,374,1,,,5b64b599f7798c0001828516,64391632cb3e4823d65f31a7,2023-04-14_10h01.15.707,PRaM,2021.2.3,Win32,72.07207207,61b8f3437b89212fae0dfade
6,4.9403,space,3.334,0,7,7,154,1,,,5b64b599f7798c0001828516,64391632cb3e4823d65f31a7,2023-04-14_10h01.15.707,PRaM,2021.2.3,Win32,72.07207207,61b8f3437b89212fae0dfade
4,2.959,space,1.3033,0,8,8,25,1,,,5b64b599f7798c0001828516,64391632cb3e4823d65f31a7,2023-04-14_10h01.15.707,PRaM,2021.2.3,Win32,72.07207207,61b8f3437b89212fae0dfade
6,3.6418,space,1.9953,0,9,9,350,1,,,5b64b599f7798c0001828516,64391632cb3e4823d65f31a7,2023-04-14_10h01.15.707,PRaM,2021.2.3,Win32,72.07207207,61b8f3437b89212fae0dfade
2,2.7193,space,1.0043,0,10,10,184,1,,,5b64b599f7798c0001828516,64391632cb3e4823d65f31a7,2023-04-14_10h01.15.707,PRaM,2021.2.3,Win32,72.07207207,61b8f3437b89212fae0dfade
1,4.2245,space,2.6174,0,11,11,354,1,,,5b64b599f7798c0001828516,64391632cb3e4823d65f31a7,2023-04-14_10h01.15.707,PRaM,2021.2.3,Win32,72.07207207,61b8f3437b89212fae0dfade
1,2.7627,space,1.0983,0,12,12,295,1,,,5b64b599f7798c0001828516,64391632cb3e4823d65f31a7,2023-04-14_10h01.15.707,PRaM,2021.2.3,Win32,72.07207207,61b8f3437b89212fae0dfade
6,2.6669,space,0.9888,0,13,13,183,1,,,5b64b599f7798c0001828516,64391632cb3e4823d65f31a7,2023-04-14_10h01.15.707,PRaM,2021.2.3,Win32,72.07207207,61b8f3437b89212fae0dfade
7,3.1055,space,1.4273,0,14,14,83,1,,,5b64b599f7798c0001828516,64391632cb3e4823d65f31a7,2023-04-14_10h01.15.707,PRaM,2021.2.3,Win32,72.07207207,61b8f3437b89212fae0dfade
4,3.5461,space,1.8483,0,15,15,46,1,,,5b64b599f7798c0001828516,64391632cb3e4823d65f31a7,2023-04-14_10h01.15.707,PRaM,2021.2.3,Win32,72.07207207,61b8f3437b89212fae0dfade
3,2.7106,space,1.0389,0,16,16,33,1,,,5b64b599f7798c0001828516,64391632cb3e4823d65f31a7,2023-04-14_10h01.15.707,PRaM,2021.2.3,Win32,72.07207207,61b8f3437b89212fae0dfade
2,3.3491,space,1.6218,0,17,17,311,1,,,5b64b599f7798c0001828516,64391632cb3e4823d65f31a7,2023-04-14_10h01.15.707,PRaM,2021.2.3,Win32,72.07207207,61b8f3437b89212fae0dfade
1,3.0305,space,1.3615,0,18,18,91,1,,,5b64b599f7798c0001828516,64391632cb3e4823d65f31a7,2023-04-14_10h01.15.707,PRaM,2021.2.3,Win32,72.07207207,61b8f3437b89212fae0dfade
5,4.779,space,3.033,0,19,19,252,1,,,5b64b599f7798c0001828516,64391632cb3e4823d65f31a7,2023-04-14_10h01.15.707,PRaM,2021.2.3,Win32,72.07207207,61b8f3437b89212fae0dfade
6,3.0351,space,1.3753,0,20,20,150,1,,,5b64b599f7798c0001828516,64391632cb3e4823d65f31a7,2023-04-14_10h01.15.707,PRaM,2021.2.3,Win32,72.07207207,61b8f3437b89212fae0dfade
8,3.1076,space,1.4365,0,21,21,336,1,,,5b64b599f7798c0001828516,64391632cb3e4823d65f31a7,2023-04-14_10h01.15.707,PRaM,2021.2.3,Win32,72.07207207,61b8f3437b89212fae0dfade
1,2.1464,space,0.5905,0,22,22,121,1,,,5b64b599f7798c0001828516,64391632cb3e4823d65f31a7,2023-04-14_10h01.15.707,PRaM,2021.2.3,Win32,72.07207207,61b8f3437b89212fae0dfade
7,3.2048,space,1.5253,0,23,23,219,1,,,5b64b599f7798c0001828516,64391632cb3e4823d65f31a7,2023-04-14_10h01.15.707,PRaM,2021.2.3,Win32,72.07207207,61b8f3437b89212fae0dfade
7,2.5547,space,0.8956,0,24,24,238,1,,,5b64b599f7798c0001828516,64391632cb3e4823d65f31a7,2023-04-14_10h01.15.707,PRaM,2021.2.3,Win32,72.07207207,61b8f3437b89212fae0dfade
1,2.2682,space,0.5964,0,25,25,283,1,,,5b64b599f7798c0001828516,64391632cb3e4823d65f31a7,2023-04-14_10h01.15.707,PRaM,2021.2.3,Win32,72.07207207,61b8f3437b89212fae0dfade
2,3.0547,space,1.3901,0,26,26,101,1,,,5b64b599f7798c0001828516,64391632cb3e4823d65f31a7,2023-04-14_10h01.15.707,PRaM,2021.2.3,Win32,72.07207207,61b8f3437b89212fae0dfade
6,2.805,space,1.0603,0,27,27,32,1,,,5b64b599f7798c0001828516,64391632cb3e4823d65f31a7,2023-04-14_10h01.15.707,PRaM,2021.2.3,Win32,72.07207207,61b8f3437b89212fae0dfade
7,3.1435,space,1.3894,0,28,28,156,1,,,5b64b599f7798c0001828516,64391632cb3e4823d65f31a7,2023-04-14_10h01.15.707,PRaM,2021.2.3,Win32,72.07207207,61b8f3437b89212fae0dfade
8,3.1056,space,1.4302,0,29,29,201,1,,,5b64b599f7798c0001828516,64391632cb3e4823d65f31a7,2023-04-14_10h01.15.707,PRaM,2021.2.3,Win32,72.07207207,61b8f3437b89212fae0dfade
2,2.6768,space,0.933,0,30,30,39,1,,,5b64b599f7798c0001828516,64391632cb3e4823d65f31a7,2023-04-14_10h01.15.707,PRaM,2021.2.3,Win32,72.07207207,61b8f3437b89212fae0dfade
3,3.6232,space,1.8656,0,31,31,74,1,,,5b64b599f7798c0001828516,64391632cb3e4823d65f31a7,2023-04-14_10h01.15.707,PRaM,2021.2.3,Win32,72.07207207,61b8f3437b89212fae0dfade
1,3.4824,space,1.7669,0,32,32,97,1,,,5b64b599f7798c0001828516,64391632cb3e4823d65f31a7,2023-04-14_10h01.15.707,PRaM,2021.2.3,Win32,72.07207207,61b8f3437b89212fae0dfade
7,4.5878,space,2.9878,0,33,33,90,1,,,5b64b599f7798c0001828516,64391632cb3e4823d65f31a7,2023-04-14_10h01.15.707,PRaM,2021.2.3,Win32,72.07207207,61b8f3437b89212fae0dfade
5,3.3127,space,1.6527,0,34,34,313,1,,,5b64b599f7798c0001828516,64391632cb3e4823d65f31a7,2023-04-14_10h01.15.707,PRaM,2021.2.3,Win32,72.07207207,61b8f3437b89212fae0dfade
1,4.4514,space,3.5442,0,35,35,243,1,,,5b64b599f7798c0001828516,64391632cb3e4823d65f31a7,2023-04-14_10h01.15.707,PRaM,2021.2.3,Win32,72.07207207,61b8f3437b89212fae0dfade
,,space,0.5345,0,36,36,109,1,,,5b64b599f7798c0001828516,64391632cb3e4823d65f31a7,2023-04-14_10h01.15.707,PRaM,2021.2.3,Win32,72.07207207,61b8f3437b89212fae0dfade
7,5.3896,space,3.7141,0,37,37,331,1,,,5b64b599f7798c0001828516,64391632cb3e4823d65f31a7,2023-04-14_10h01.15.707,PRaM,2021.2.3,Win32,72.07207207,61b8f3437b89212fae0dfade
8,2.5417,space,0.8813,0,38,38,66,1,,,5b64b599f7798c0001828516,64391632cb3e4823d65f31a7,2023-04-14_10h01.15.707,PRaM,2021.2.3,Win32,72.07207207,61b8f3437b89212fae0dfade
6,2.9958,space,1.3762,0,39,39,322,1,,,5b64b599f7798c0001828516,64391632cb3e4823d65f31a7,2023-04-14_10h01.15.707,PRaM,2021.2.3,Win32,72.07207207,61b8f3437b89212fae0dfade
7,4.2357,space,2.5949,0,40,40,147,1,,,5b64b599f7798c0001828516,64391632cb3e4823d65f31a7,2023-04-14_10h01.15.707,PRaM,2021.2.3,Win32,72.07207207,61b8f3437b89212fae0dfade
4,4.9474,space,3.3064,0,41,41,93,1,,,5b64b599f7798c0001828516,64391632cb3e4823d65f31a7,2023-04-14_10h01.15.707,PRaM,2021.2.3,Win32,72.07207207,61b8f3437b89212fae0dfade
1,4.7491,space,3.0928,0,42,42,58,1,,,5b64b599f7798c0001828516,64391632cb3e4823d65f31a7,2023-04-14_10h01.15.707,PRaM,2021.2.3,Win32,72.07207207,61b8f3437b89212fae0dfade
4,6.5835,space,4.9402,0,43,43,187,1,,,5b64b599f7798c0001828516,64391632cb3e4823d65f31a7,2023-04-14_10h01.15.707,PRaM,2021.2.3,Win32,72.07207207,61b8f3437b89212fae0dfade
7,2.4578,space,0.7641,0,44,44,42,1,,,5b64b599f7798c0001828516,64391632cb3e4823d65f31a7,2023-04-14_10h01.15.707,PRaM,2021.2.3,Win32,72.07207207,61b8f3437b89212fae0dfade
4,2.5287,space,0.9771,0,45,45,146,1,,,5b64b599f7798c0001828516,64391632cb3e4823d65f31a7,2023-04-14_10h01.15.707,PRaM,2021.2.3,Win32,72.07207207,61b8f3437b89212fae0dfade
7,4.2502,space,2.6091,0,46,46,244,1,,,5b64b599f7798c0001828516,64391632cb3e4823d65f31a7,2023-04-14_10h01.15.707,PRaM,2021.2.3,Win32,72.07207207,61b8f3437b89212fae0dfade
2,2.5402,space,0.9002,0,47,47,116,1,,,5b64b599f7798c0001828516,64391632cb3e4823d65f31a7,2023-04-14_10h01.15.707,PRaM,2021.2.3,Win32,72.07207207,61b8f3437b89212fae0dfade
9,2.1355,space,0.4745,0,48,48,276,1,,,5b64b599f7798c0001828516,64391632cb3e4823d65f31a7,2023-04-14_10h01.15.707,PRaM,2021.2.3,Win32,72.07207207,61b8f3437b89212fae0dfade
1,1.7005,space,0.0145,0,49,49,67,1,,,5b64b599f7798c0001828516,64391632cb3e4823d65f31a7,2023-04-14_10h01.15.707,PRaM,2021.2.3,Win32,72.07207207,61b8f3437b89212fae0dfade
3,3.6677,space,1.9969,0,50,50,48,1,,,5b64b599f7798c0001828516,64391632cb3e4823d65f31a7,2023-04-14_10h01.15.707,PRaM,2021.2.3,Win32,72.07207207,61b8f3437b89212fae0dfade
7,4.4943,space,2.7845,0,51,51,104,1,,,5b64b599f7798c0001828516,64391632cb3e4823d65f31a7,2023-04-14_10h01.15.707,PRaM,2021.2.3,Win32,72.07207207,61b8f3437b89212fae0dfade
8,2.3743,space,0.702,0,52,52,254,1,,,5b64b599f7798c0001828516,64391632cb3e4823d65f31a7,2023-04-14_10h01.15.707,PRaM,2021.2.3,Win32,72.07207207,61b8f3437b89212fae0dfade
7,2.4418,space,0.722,0,53,53,327,1,,,5b64b599f7798c0001828516,64391632cb3e4823d65f31a7,2023-04-14_10h01.15.707,PRaM,2021.2.3,Win32,72.07207207,61b8f3437b89212fae0dfade
2,2.1813,space,0.4718,0,54,54,191,1,,,5b64b599f7798c0001828516,64391632cb3e4823d65f31a7,2023-04-14_10h01.15.707,PRaM,2021.2.3,Win32,72.07207207,61b8f3437b89212fae0dfade
2,2.5438,space,0.7899,0,55,55,300,1,,,5b64b599f7798c0001828516,64391632cb3e4823d65f31a7,2023-04-14_10h01.15.707,PRaM,2021.2.3,Win32,72.07207207,61b8f3437b89212fae0dfade
1,8.2114,space,6.7265,0,56,56,107,1,,,5b64b599f7798c0001828516,64391632cb3e4823d65f31a7,2023-04-14_10h01.15.707,PRaM,2021.2.3,Win32,72.07207207,61b8f3437b89212fae0dfade
8,4.1846,space,2.385,0,57,57,3,1,,,5b64b599f7798c0001828516,64391632cb3e4823d65f31a7,2023-04-14_10h01.15.707,PRaM,2021.2.3,Win32,72.07207207,61b8f3437b89212fae0dfade
1,2.1445,space,0.5518,0,58,58,293,1,,,5b64b599f7798c0001828516,64391632cb3e4823d65f31a7,2023-04-14_10h01.15.707,PRaM,2021.2.3,Win32,72.07207207,61b8f3437b89212fae0dfade
3,2.906,space,1.1311,0,59,59,44,1,,,5b64b599f7798c0001828516,64391632cb3e4823d65f31a7,2023-04-14_10h01.15.707,PRaM,2021.2.3,Win32,72.07207207,61b8f3437b89212fae0dfade
7,2.654,space,1.0085,0,60,60,194,1,,,5b64b599f7798c0001828516,64391632cb3e4823d65f31a7,2023-04-14_10h01.15.707,PRaM,2021.2.3,Win32,72.07207207,61b8f3437b89212fae0dfade
8,2.6423,space,0.8916,0,61,61,271,1,,,5b64b599f7798c0001828516,64391632cb3e4823d65f31a7,2023-04-14_10h01.15.707,PRaM,2021.2.3,Win32,72.07207207,61b8f3437b89212fae0dfade
8,3.3631,space,1.7266,0,62,62,209,1,,,5b64b599f7798c0001828516,64391632cb3e4823d65f31a7,2023-04-14_10h01.15.707,PRaM,2021.2.3,Win32,72.07207207,61b8f3437b89212fae0dfade
8,2.2489,space,0.6537,0,63,63,246,1,,,5b64b599f7798c0001828516,64391632cb3e4823d65f31a7,2023-04-14_10h01.15.707,PRaM,2021.2.3,Win32,72.07207207,61b8f3437b89212fae0dfade
2,33.0837,space,32.5217,0,64,64,369,1,,,5b64b599f7798c0001828516,64391632cb3e4823d65f31a7,2023-04-14_10h01.15.707,PRaM,2021.2.3,Win32,72.07207207,61b8f3437b89212fae0dfade
7,1.7919,space,0.0159,0,65,65,326,1,,,5b64b599f7798c0001828516,64391632cb3e4823d65f31a7,2023-04-14_10h01.15.707,PRaM,2021.2.3,Win32,72.07207207,61b8f3437b89212fae0dfade
6,2.3271,space,0.6839,0,66,66,148,1,,,5b64b599f7798c0001828516,64391632cb3e4823d65f31a7,2023-04-14_10h01.15.707,PRaM,2021.2.3,Win32,72.07207207,61b8f3437b89212fae0dfade
7,1.8185,space,1.6774,0,67,67,22,1,,,5b64b599f7798c0001828516,64391632cb3e4823d65f31a7,2023-04-14_10h01.15.707,PRaM,2021.2.3,Win32,72.07207207,61b8f3437b89212fae0dfade
8,1.6419,space,2.2789,0,68,68,110,1,,,5b64b599f7798c0001828516,64391632cb3e4823d65f31a7,2023-04-14_10h01.15.707,PRaM,2021.2.3,Win32,72.07207207,61b8f3437b89212fae0dfade
3,3.4104,space,1.8,0,69,69,160,1,,,5b64b599f7798c0001828516,64391632cb3e4823d65f31a7,2023-04-14_10h01.15.707,PRaM,2021.2.3,Win32,72.07207207,61b8f3437b89212fae0dfade
7,1.9415,space,0.2942,0,70,70,178,1,,,5b64b599f7798c0001828516,64391632cb3e4823d65f31a7,2023-04-14_10h01.15.707,PRaM,2021.2.3,Win32,72.07207207,61b8f3437b89212fae0dfade
1,3.4662,space,1.7964,0,71,71,343,1,,,5b64b599f7798c0001828516,64391632cb3e4823d65f31a7,2023-04-14_10h01.15.707,PRaM,2021.2.3,Win32,72.07207207,61b8f3437b89212fae0dfade
3,3.5907,space,2.1377,0,72,72,10,1,,,5b64b599f7798c0001828516,64391632cb3e4823d65f31a7,2023-04-14_10h01.15.707,PRaM,2021.2.3,Win32,72.07207207,61b8f3437b89212fae0dfade
2,2.0932,space,0.3496,0,73,73,338,1,,,5b64b599f7798c0001828516,64391632cb3e4823d65f31a7,2023-04-14_10h01.15.707,PRaM,2021.2.3,Win32,72.07207207,61b8f3437b89212fae0dfade
4,2.1096,space,0.4867,0,74,74,52,1,,,5b64b599f7798c0001828516,64391632cb3e4823d65f31a7,2023-04-14_10h01.15.707,PRaM,2021.2.3,Win32,72.07207207,61b8f3437b89212fae0dfade
6,4.2279,space,2.6109,0,75,75,149,1,,,5b64b599f7798c0001828516,64391632cb3e4823d65f31a7,2023-04-14_10h01.15.707,PRaM,2021.2.3,Win32,72.07207207,61b8f3437b89212fae0dfade
7,2.1946,space,0.5156,0,76,76,72,1,,,5b64b599f7798c0001828516,64391632cb3e4823d65f31a7,2023-04-14_10h01.15.707,PRaM,2021.2.3,Win32,72.07207207,61b8f3437b89212fae0dfade
5,2.464,space,0.6866,0,77,77,47,1,,,5b64b599f7798c0001828516,64391632cb3e4823d65f31a7,2023-04-14_10h01.15.707,PRaM,2021.2.3,Win32,72.07207207,61b8f3437b89212fae0dfade
6,3.3649,space,1.6823,0,78,78,196,1,,,5b64b599f7798c0001828516,64391632cb3e4823d65f31a7,2023-04-14_10h01.15.707,PRaM,2021.2.3,Win32,72.07207207,61b8f3437b89212fae0dfade
7,2.0852,space,0.3148,0,79,79,228,1,,,5b64b599f7798c0001828516,64391632cb3e4823d65f31a7,2023-04-14_10h01.15.707,PRaM,2021.2.3,Win32,72.07207207,61b8f3437b89212fae0dfade
8,2.1997,space,0.4195,0,80,80,325,1,,,5b64b599f7798c0001828516,64391632cb3e4823d65f31a7,2023-04-14_10h01.15.707,PRaM,2021.2.3,Win32,72.07207207,61b8f3437b89212fae0dfade
3,2.5953,space,0.8888,0,81,81,153,1,,,5b64b599f7798c0001828516,64391632cb3e4823d65f31a7,2023-04-14_10h01.15.707,PRaM,2021.2.3,Win32,72.07207207,61b8f3437b89212fae0dfade
6,3.5524,space,1.794,0,82,82,305,1,,,5b64b599f7798c0001828516,64391632cb3e4823d65f31a7,2023-04-14_10h01.15.707,PRaM,2021.2.3,Win32,72.07207207,61b8f3437b89212fae0dfade
1,2.322,space,0.5804,0,83,83,232,1,,,5b64b599f7798c0001828516,64391632cb3e4823d65f31a7,2023-04-14_10h01.15.707,PRaM,2021.2.3,Win32,72.07207207,61b8f3437b89212fae0dfade
6,6.2056,space,4.5494,0,84,84,270,1,,,5b64b599f7798c0001828516,64391632cb3e4823d65f31a7,2023-04-14_10h01.15.707,PRaM,2021.2.3,Win32,72.07207207,61b8f3437b89212fae0dfade
5,2.3443,space,0.4786,0,85,85,371,1,,,5b64b599f7798c0001828516,64391632cb3e4823d65f31a7,2023-04-14_10h01.15.707,PRaM,2021.2.3,Win32,72.07207207,61b8f3437b89212fae0dfade
7,2.4257,space,0.6108,0,86,86,136,1,,,5b64b599f7798c0001828516,64391632cb3e4823d65f31a7,2023-04-14_10h01.15.707,PRaM,2021.2.3,Win32,72.07207207,61b8f3437b89212fae0dfade
2,2.8666,space,1.1626,0,87,87,249,1,,,5b64b599f7798c0001828516,64391632cb3e4823d65f31a7,2023-04-14_10h01.15.707,PRaM,2021.2.3,Win32,72.07207207,61b8f3437b89212fae0dfade
1,5.4765,space,3.6596,0,88,88,316,1,,,5b64b599f7798c0001828516,64391632cb3e4823d65f31a7,2023-04-14_10h01.15.707,PRaM,2021.2.3,Win32,72.07207207,61b8f3437b89212fae0dfade
8,2.5752,space,0.8226,0,89,89,80,1,,,5b64b599f7798c0001828516,64391632cb3e4823d65f31a7,2023-04-14_10h01.15.707,PRaM,2021.2.3,Win32,72.07207207,61b8f3437b89212fae0dfade
3,4.8961,space,3.1022,0,90,90,218,1,,,5b64b599f7798c0001828516,64391632cb3e4823d65f31a7,2023-04-14_10h01.15.707,PRaM,2021.2.3,Win32,72.07207207,61b8f3437b89212fae0dfade
4,4.1139,space,2.4448,0,91,91,349,1,,,5b64b599f7798c0001828516,64391632cb3e4823d65f31a7,2023-04-14_10h01.15.707,PRaM,2021.2.3,Win32,72.07207207,61b8f3437b89212fae0dfade
2,2.5301,space,0.9664,0,92,92,157,1,,,5b64b599f7798c0001828516,64391632cb3e4823d65f31a7,2023-04-14_10h01.15.707,PRaM,2021.2.3,Win32,72.07207207,61b8f3437b89212fae0dfade
2,2.7179,space,0.8365,0,93,93,247,1,,,5b64b599f7798c0001828516,64391632cb3e4823d65f31a7,2023-04-14_10h01.15.707,PRaM,2021.2.3,Win32,72.07207207,61b8f3437b89212fae0dfade
6,3.6027,space,1.8011,0,94,94,278,1,,,5b64b599f7798c0001828516,64391632cb3e4823d65f31a7,2023-04-14_10h01.15.707,PRaM,2021.2.3,Win32,72.07207207,61b8f3437b89212fae0dfade
2,2.7948,space,1.0405,0,95,95,206,1,,,5b64b599f7798c0001828516,64391632cb3e4823d65f31a7,2023-04-14_10h01.15.707,PRaM,2021.2.3,Win32,72.07207207,61b8f3437b89212fae0dfade
1,4.1373,space,2.53,0,96,96,23,1,,,5b64b599f7798c0001828516,64391632cb3e4823d65f31a7,2023-04-14_10h01.15.707,PRaM,2021.2.3,Win32,72.07207207,61b8f3437b89212fae0dfade
7,2.402,space,0.7131,0,97,97,323,1,,,5b64b599f7798c0001828516,64391632cb3e4823d65f31a7,2023-04-14_10h01.15.707,PRaM,2021.2.3,Win32,72.07207207,61b8f3437b89212fae0dfade
1,2.5846,space,0.9599,0,98,98,143,1,,,5b64b599f7798c0001828516,64391632cb3e4823d65f31a7,2023-04-14_10h01.15.707,PRaM,2021.2.3,Win32,72.07207207,61b8f3437b89212fae0dfade
6,3.7033,space,1.9995,0,99,99,31,1,,,5b64b599f7798c0001828516,64391632cb3e4823d65f31a7,2023-04-14_10h01.15.707,PRaM,2021.2.3,Win32,72.07207207,61b8f3437b89212fae0dfade
2,2.4737,space,0.925,0,100,100,79,1,,,5b64b599f7798c0001828516,64391632cb3e4823d65f31a7,2023-04-14_10h01.15.707,PRaM,2021.2.3,Win32,72.07207207,61b8f3437b89212fae0dfade
5,3.2281,space,1.4963,0,101,101,57,1,,,5b64b599f7798c0001828516,64391632cb3e4823d65f31a7,2023-04-14_10h01.15.707,PRaM,2021.2.3,Win32,72.07207207,61b8f3437b89212fae0dfade
7,2.2986,space,0.6437,0,102,102,96,1,,,5b64b599f7798c0001828516,64391632cb3e4823d65f31a7,2023-04-14_10h01.15.707,PRaM,2021.2.3,Win32,72.07207207,61b8f3437b89212fae0dfade
7,1.6945,space,1.5558,0,103,103,21,1,,,5b64b599f7798c0001828516,64391632cb3e4823d65f31a7,2023-04-14_10h01.15.707,PRaM,2021.2.3,Win32,72.07207207,61b8f3437b89212fae0dfade
7,3.473,space,1.7004,0,104,104,222,1,,,5b64b599f7798c0001828516,64391632cb3e4823d65f31a7,2023-04-14_10h01.15.707,PRaM,2021.2.3,Win32,72.07207207,61b8f3437b89212fae0dfade
8,1.8638,space,0.3645,0,105,105,277,1,,,5b64b599f7798c0001828516,64391632cb3e4823d65f31a7,2023-04-14_10h01.15.707,PRaM,2021.2.3,Win32,72.07207207,61b8f3437b89212fae0dfade
2,2.9485,space,1.297,0,106,106,309,1,,,5b64b599f7798c0001828516,64391632cb3e4823d65f31a7,2023-04-14_10h01.15.707,PRaM,2021.2.3,Win32,72.07207207,61b8f3437b89212fae0dfade
6,2.6544,space,1.1028,0,107,107,123,1,,,5b64b599f7798c0001828516,64391632cb3e4823d65f31a7,2023-04-14_10h01.15.707,PRaM,2021.2.3,Win32,72.07207207,61b8f3437b89212fae0dfade
2,2.932,space,1.1367,0,108,108,35,1,,,5b64b599f7798c0001828516,64391632cb3e4823d65f31a7,2023-04-14_10h01.15.707,PRaM,2021.2.3,Win32,72.07207207,61b8f3437b89212fae0dfade
7,3.1157,space,1.3136,0,109,109,259,1,,,5b64b599f7798c0001828516,64391632cb3e4823d65f31a7,2023-04-14_10h01.15.707,PRaM,2021.2.3,Win32,72.07207207,61b8f3437b89212fae0dfade
6,50.5359,space,49.6255,0,110,110,363,1,,,5b64b599f7798c0001828516,64391632cb3e4823d65f31a7,2023-04-14_10h01.15.707,PRaM,2021.2.3,Win32,72.07207207,61b8f3437b89212fae0dfade
1,2.2123,space,0.5327,0,111,111,63,1,,,5b64b599f7798c0001828516,64391632cb3e4823d65f31a7,2023-04-14_10h01.15.707,PRaM,2021.2.3,Win32,72.07207207,61b8f3437b89212fae0dfade
6,2.2605,space,0.5844,0,112,112,99,1,,,5b64b599f7798c0001828516,64391632cb3e4823d65f31a7,2023-04-14_10h01.15.707,PRaM,2021.2.3,Win32,72.07207207,61b8f3437b89212fae0dfade
7,2.1877,space,0.4264,0,113,113,4,1,,,5b64b599f7798c0001828516,64391632cb3e4823d65f31a7,2023-04-14_10h01.15.707,PRaM,2021.2.3,Win32,72.07207207,61b8f3437b89212fae0dfade
4,2.1492,space,0.3635,0,114,114,145,1,,,5b64b599f7798c0001828516,64391632cb3e4823d65f31a7,2023-04-14_10h01.15.707,PRaM,2021.2.3,Win32,72.07207207,61b8f3437b89212fae0dfade
8,2.906,space,1.3093,0,115,115,225,1,,,5b64b599f7798c0001828516,64391632cb3e4823d65f31a7,2023-04-14_10h01.15.707,PRaM,2021.2.3,Win32,72.07207207,61b8f3437b89212fae0dfade
7,1.9363,space,0.0739,0,116,116,85,1,,,5b64b599f7798c0001828516,64391632cb3e4823d65f31a7,2023-04-14_10h01.15.707,PRaM,2021.2.3,Win32,72.07207207,61b8f3437b89212fae0dfade
,,space,1.0129,0,117,117,111,1,,,5b64b599f7798c0001828516,64391632cb3e4823d65f31a7,2023-04-14_10h01.15.707,PRaM,2021.2.3,Win32,72.07207207,61b8f3437b89212fae0dfade
2,5.2641,space,3.451,0,118,118,265,1,,,5b64b599f7798c0001828516,64391632cb3e4823d65f31a7,2023-04-14_10h01.15.707,PRaM,2021.2.3,Win32,72.07207207,61b8f3437b89212fae0dfade
1,2.1868,space,0.5297,0,119,119,210,1,,,5b64b599f7798c0001828516,64391632cb3e4823d65f31a7,2023-04-14_10h01.15.707,PRaM,2021.2.3,Win32,72.07207207,61b8f3437b89212fae0dfade
7,2.7102,space,0.9138,0,120,120,62,1,,,5b64b599f7798c0001828516,64391632cb3e4823d65f31a7,2023-04-14_10h01.15.707,PRaM,2021.2.3,Win32,72.07207207,61b8f3437b89212fae0dfade
1,1.9729,space,0.2609,0,121,121,129,1,,,5b64b599f7798c0001828516,64391632cb3e4823d65f31a7,2023-04-14_10h01.15.707,PRaM,2021.2.3,Win32,72.07207207,61b8f3437b89212fae0dfade
8,2.3516,space,0.6997,0,122,122,282,1,,,5b64b599f7798c0001828516,64391632cb3e4823d65f31a7,2023-04-14_10h01.15.707,PRaM,2021.2.3,Win32,72.07207207,61b8f3437b89212fae0dfade
7,3.5897,space,1.784,0,123,123,288,1,,,5b64b599f7798c0001828516,64391632cb3e4823d65f31a7,2023-04-14_10h01.15.707,PRaM,2021.2.3,Win32,72.07207207,61b8f3437b89212fae0dfade
7,1.9659,space,0.1886,0,124,124,151,1,,,5b64b599f7798c0001828516,64391632cb3e4823d65f31a7,2023-04-14_10h01.15.707,PRaM,2021.2.3,Win32,72.07207207,61b8f3437b89212fae0dfade
6,4.0936,space,2.4961,0,125,125,200,1,,,5b64b599f7798c0001828516,64391632cb3e4823d65f31a7,2023-04-14_10h01.15.707,PRaM,2021.2.3,Win32,72.07207207,61b8f3437b89212fae0dfade
8,3.6365,space,1.9759,0,126,126,304,1,,,5b64b599f7798c0001828516,64391632cb3e4823d65f31a7,2023-04-14_10h01.15.707,PRaM,2021.2.3,Win32,72.07207207,61b8f3437b89212fae0dfade
2,2.8963,space,1.1938,0,127,127,133,1,,,5b64b599f7798c0001828516,64391632cb3e4823d65f31a7,2023-04-14_10h01.15.707,PRaM,2021.2.3,Win32,72.07207207,61b8f3437b89212fae0dfade
1,29.8177,space,28.2314,0,128,128,130,1,,,5b64b599f7798c0001828516,64391632cb3e4823d65f31a7,2023-04-14_10h01.15.707,PRaM,2021.2.3,Win32,72.07207207,61b8f3437b89212fae0dfade
4,2.3445,space,0.5354,0,129,129,296,1,,,5b64b599f7798c0001828516,64391632cb3e4823d65f31a7,2023-04-14_10h01.15.707,PRaM,2021.2.3,Win32,72.07207207,61b8f3437b89212fae0dfade
2,2.4679,space,0.6874,0,130,130,332,1,,,5b64b599f7798c0001828516,64391632cb3e4823d65f31a7,2023-04-14_10h01.15.707,PRaM,2021.2.3,Win32,72.07207207,61b8f3437b89212fae0dfade
6,2.8218,space,1.0895,0,131,131,319,1,,,5b64b599f7798c0001828516,64391632cb3e4823d65f31a7,2023-04-14_10h01.15.707,PRaM,2021.2.3,Win32,72.07207207,61b8f3437b89212fae0dfade
6,2.6725,space,0.8913,0,132,132,158,1,,,5b64b599f7798c0001828516,64391632cb3e4823d65f31a7,2023-04-14_10h01.15.707,PRaM,2021.2.3,Win32,72.07207207,61b8f3437b89212fae0dfade
2,2.3407,space,0.5841,0,133,133,68,1,,,5b64b599f7798c0001828516,64391632cb3e4823d65f31a7,2023-04-14_10h01.15.707,PRaM,2021.2.3,Win32,72.07207207,61b8f3437b89212fae0dfade
,,space,0.1888,0,134,134,284,1,,,5b64b599f7798c0001828516,64391632cb3e4823d65f31a7,2023-04-14_10h01.15.707,PRaM,2021.2.3,Win32,72.07207207,61b8f3437b89212fae0dfade
6,3.8364,space,2.2898,0,135,135,64,1,,,5b64b599f7798c0001828516,64391632cb3e4823d65f31a7,2023-04-14_10h01.15.707,PRaM,2021.2.3,Win32,72.07207207,61b8f3437b89212fae0dfade
1,2.7547,space,1.2206,0,136,136,286,1,,,5b64b599f7798c0001828516,64391632cb3e4823d65f31a7,2023-04-14_10h01.15.707,PRaM,2021.2.3,Win32,72.07207207,61b8f3437b89212fae0dfade
1,2.7,space,1.015,0,137,137,9,1,,,5b64b599f7798c0001828516,64391632cb3e4823d65f31a7,2023-04-14_10h01.15.707,PRaM,2021.2.3,Win32,72.07207207,61b8f3437b89212fae0dfade
1,2.4038,space,0.7023,0,138,138,106,1,,,5b64b599f7798c0001828516,64391632cb3e4823d65f31a7,2023-04-14_10h01.15.707,PRaM,2021.2.3,Win32,72.07207207,61b8f3437b89212fae0dfade
6,2.4482,space,0.7867,0,139,139,56,1,,,5b64b599f7798c0001828516,64391632cb3e4823d65f31a7,2023-04-14_10h01.15.707,PRaM,2021.2.3,Win32,72.07207207,61b8f3437b89212fae0dfade
1,2.1967,space,0.5348,0,140,140,113,1,,,5b64b599f7798c0001828516,64391632cb3e4823d65f31a7,2023-04-14_10h01.15.707,PRaM,2021.2.3,Win32,72.07207207,61b8f3437b89212fae0dfade
1,2.8008,space,1.093,0,141,141,198,1,,,5b64b599f7798c0001828516,64391632cb3e4823d65f31a7,2023-04-14_10h01.15.707,PRaM,2021.2.3,Win32,72.07207207,61b8f3437b89212fae0dfade
3,3.2605,space,1.5985,0,142,142,26,1,,,5b64b599f7798c0001828516,64391632cb3e4823d65f31a7,2023-04-14_10h01.15.707,PRaM,2021.2.3,Win32,72.07207207,61b8f3437b89212fae0dfade
2,2.6322,space,0.9523,0,143,143,13,1,,,5b64b599f7798c0001828516,64391632cb3e4823d65f31a7,2023-04-14_10h01.15.707,PRaM,2021.2.3,Win32,72.07207207,61b8f3437b89212fae0dfade
1,2.2849,space,0.6006,0,144,144,227,1,,,5b64b599f7798c0001828516,64391632cb3e4823d65f31a7,2023-04-14_10h01.15.707,PRaM,2021.2.3,Win32,72.07207207,61b8f3437b89212fae0dfade
1,2.2125,space,0.5341,0,145,145,144,1,,,5b64b599f7798c0001828516,64391632cb3e4823d65f31a7,2023-04-14_10h01.15.707,PRaM,2021.2.3,Win32,72.07207207,61b8f3437b89212fae0dfade
8,2.6659,space,1.0217,0,146,146,137,1,,,5b64b599f7798c0001828516,64391632cb3e4823d65f31a7,2023-04-14_10h01.15.707,PRaM,2021.2.3,Win32,72.07207207,61b8f3437b89212fae0dfade
7,1.8526,space,0.1856,0,147,147,134,1,,,5b64b599f7798c0001828516,64391632cb3e4823d65f31a7,2023-04-14_10h01.15.707,PRaM,2021.2.3,Win32,72.07207207,61b8f3437b89212fae0dfade
1,3.6667,space,1.8938,0,148,148,341,1,,,5b64b599f7798c0001828516,64391632cb3e4823d65f31a7,2023-04-14_10h01.15.707,PRaM,2021.2.3,Win32,72.07207207,61b8f3437b89212fae0dfade
7,4.4512,space,2.7988,0,149,149,365,1,,,5b64b599f7798c0001828516,64391632cb3e4823d65f31a7,2023-04-14_10h01.15.707,PRaM,2021.2.3,Win32,72.07207207,61b8f3437b89212fae0dfade
8,4.0344,space,2.4449,0,150,150,366,1,,,5b64b599f7798c0001828516,64391632cb3e4823d65f31a7,2023-04-14_10h01.15.707,PRaM,2021.2.3,Win32,72.07207207,61b8f3437b89212fae0dfade
6,2.403,space,0.8162,0,151,151,19,1,,,5b64b599f7798c0001828516,64391632cb3e4823d65f31a7,2023-04-14_10h01.15.707,PRaM,2021.2.3,Win32,72.07207207,61b8f3437b89212fae0dfade
2,3.2395,space,1.8564,0,152,152,224,1,,,5b64b599f7798c0001828516,64391632cb3e4823d65f31a7,2023-04-14_10h01.15.707,PRaM,2021.2.3,Win32,72.07207207,61b8f3437b89212fae0dfade
7,2.0416,space,0.388,0,153,153,88,1,,,5b64b599f7798c0001828516,64391632cb3e4823d65f31a7,2023-04-14_10h01.15.707,PRaM,2021.2.3,Win32,72.07207207,61b8f3437b89212fae0dfade
,,space,4.4053,0,154,154,98,1,,,5b64b599f7798c0001828516,64391632cb3e4823d65f31a7,2023-04-14_10h01.15.707,PRaM,2021.2.3,Win32,72.07207207,61b8f3437b89212fae0dfade
7,2.8138,space,1.1227,0,155,155,140,1,,,5b64b599f7798c0001828516,64391632cb3e4823d65f31a7,2023-04-14_10h01.15.707,PRaM,2021.2.3,Win32,72.07207207,61b8f3437b89212fae0dfade
1,7.4255,space,5.8182,0,156,156,234,1,,,5b64b599f7798c0001828516,64391632cb3e4823d65f31a7,2023-04-14_10h01.15.707,PRaM,2021.2.3,Win32,72.07207207,61b8f3437b89212fae0dfade
1,2.2,space,0.5779,0,157,157,215,1,,,5b64b599f7798c0001828516,64391632cb3e4823d65f31a7,2023-04-14_10h01.15.707,PRaM,2021.2.3,Win32,72.07207207,61b8f3437b89212fae0dfade
1,6.5843,space,4.8723,0,158,158,189,1,,,5b64b599f7798c0001828516,64391632cb3e4823d65f31a7,2023-04-14_10h01.15.707,PRaM,2021.2.3,Win32,72.07207207,61b8f3437b89212fae0dfade
1,3.7806,space,2.1108,0,159,159,241,1,,,5b64b599f7798c0001828516,64391632cb3e4823d65f31a7,2023-04-14_10h01.15.707,PRaM,2021.2.3,Win32,72.07207207,61b8f3437b89212fae0dfade
8,3.8879,space,2.1982,0,160,160,186,1,,,5b64b599f7798c0001828516,64391632cb3e4823d65f31a7,2023-04-14_10h01.15.707,PRaM,2021.2.3,Win32,72.07207207,61b8f3437b89212fae0dfade
2,3.0803,space,1.4168,0,161,161,5,1,,,5b64b599f7798c0001828516,64391632cb3e4823d65f31a7,2023-04-14_10h01.15.707,PRaM,2021.2.3,Win32,72.07207207,61b8f3437b89212fae0dfade
1,2.5074,space,0.8139,0,162,162,77,1,,,5b64b599f7798c0001828516,64391632cb3e4823d65f31a7,2023-04-14_10h01.15.707,PRaM,2021.2.3,Win32,72.07207207,61b8f3437b89212fae0dfade
3,3.5289,space,1.7938,0,163,163,174,1,,,5b64b599f7798c0001828516,64391632cb3e4823d65f31a7,2023-04-14_10h01.15.707,PRaM,2021.2.3,Win32,72.07207207,61b8f3437b89212fae0dfade
6,2.9463,space,1.1982,0,164,164,163,1,,,5b64b599f7798c0001828516,64391632cb3e4823d65f31a7,2023-04-14_10h01.15.707,PRaM,2021.2.3,Win32,72.07207207,61b8f3437b89212fae0dfade
3,3.858,space,2.2005,0,165,165,348,1,,,5b64b599f7798c0001828516,64391632cb3e4823d65f31a7,2023-04-14_10h01.15.707,PRaM,2021.2.3,Win32,72.07207207,61b8f3437b89212fae0dfade
5,21.6949,space,19.9531,0,166,166,180,1,,,5b64b599f7798c0001828516,64391632cb3e4823d65f31a7,2023-04-14_10h01.15.707,PRaM,2021.2.3,Win32,72.07207207,61b8f3437b89212fae0dfade
3,2.0006,space,0.2626,0,167,167,287,1,,,5b64b599f7798c0001828516,64391632cb3e4823d65f31a7,2023-04-14_10h01.15.707,PRaM,2021.2.3,Win32,72.07207207,61b8f3437b89212fae0dfade
2,1.6287,space,2.0167,0,168,168,289,1,,,5b64b599f7798c0001828516,64391632cb3e4823d65f31a7,2023-04-14_10h01.15.707,PRaM,2021.2.3,Win32,72.07207207,61b8f3437b89212fae0dfade
1,2.0298,space,0.3518,0,169,169,95,1,,,5b64b599f7798c0001828516,64391632cb3e4823d65f31a7,2023-04-14_10h01.15.707,PRaM,2021.2.3,Win32,72.07207207,61b8f3437b89212fae0dfade
6,2.5283,space,0.8409,0,170,170,16,1,,,5b64b599f7798c0001828516,64391632cb3e4823d65f31a7,2023-04-14_10h01.15.707,PRaM,2021.2.3,Win32,72.07207207,61b8f3437b89212fae0dfade
2,3.3772,space,1.5803,0,171,171,169,1,,,5b64b599f7798c0001828516,64391632cb3e4823d65f31a7,2023-04-14_10h01.15.707,PRaM,2021.2.3,Win32,72.07207207,61b8f3437b89212fae0dfade
6,2.6086,space,0.8324,0,172,172,358,1,,,5b64b599f7798c0001828516,64391632cb3e4823d65f31a7,2023-04-14_10h01.15.707,PRaM,2021.2.3,Win32,72.07207207,61b8f3437b89212fae0dfade
1,3.0637,space,1.4176,0,173,173,217,1,,,5b64b599f7798c0001828516,64391632cb3e4823d65f31a7,2023-04-14_10h01.15.707,PRaM,2021.2.3,Win32,72.07207207,61b8f3437b89212fae0dfade
1,2.3702,space,0.6679,0,174,174,237,1,,,5b64b599f7798c0001828516,64391632cb3e4823d65f31a7,2023-04-14_10h01.15.707,PRaM,2021.2.3,Win32,72.07207207,61b8f3437b89212fae0dfade
1,2.5863,space,0.7732,0,175,175,78,1,,,5b64b599f7798c0001828516,64391632cb3e4823d65f31a7,2023-04-14_10h01.15.707,PRaM,2021.2.3,Win32,72.07207207,61b8f3437b89212fae0dfade
6,2.0965,space,0.3116,0,176,176,280,1,,,5b64b599f7798c0001828516,64391632cb3e4823d65f31a7,2023-04-14_10h01.15.707,PRaM,2021.2.3,Win32,72.07207207,61b8f3437b89212fae0dfade
1,2.6608,space,1.0205,0,177,177,330,1,,,5b64b599f7798c0001828516,64391632cb3e4823d65f31a7,2023-04-14_10h01.15.707,PRaM,2021.2.3,Win32,72.07207207,61b8f3437b89212fae0dfade
2,2.2706,space,0.4986,0,178,178,124,1,,,5b64b599f7798c0001828516,64391632cb3e4823d65f31a7,2023-04-14_10h01.15.707,PRaM,2021.2.3,Win32,72.07207207,61b8f3437b89212fae0dfade
2,4.6423,space,2.8572,0,179,179,135,1,,,5b64b599f7798c0001828516,64391632cb3e4823d65f31a7,2023-04-14_10h01.15.707,PRaM,2021.2.3,Win32,72.07207207,61b8f3437b89212fae0dfade
7,2.1274,space,0.537,0,180,180,230,1,,,5b64b599f7798c0001828516,64391632cb3e4823d65f31a7,2023-04-14_10h01.15.707,PRaM,2021.2.3,Win32,72.07207207,61b8f3437b89212fae0dfade
7,3.6932,space,1.9956,0,181,181,356,1,,,5b64b599f7798c0001828516,64391632cb3e4823d65f31a7,2023-04-14_10h01.15.707,PRaM,2021.2.3,Win32,72.07207207,61b8f3437b89212fae0dfade
2,2.2917,space,0.6103,0,182,182,170,1,,,5b64b599f7798c0001828516,64391632cb3e4823d65f31a7,2023-04-14_10h01.15.707,PRaM,2021.2.3,Win32,72.07207207,61b8f3437b89212fae0dfade
6,2.5347,space,0.8432,0,183,183,165,1,,,5b64b599f7798c0001828516,64391632cb3e4823d65f31a7,2023-04-14_10h01.15.707,PRaM,2021.2.3,Win32,72.07207207,61b8f3437b89212fae0dfade
5,3.3641,space,1.528,0,184,184,127,1,,,5b64b599f7798c0001828516,64391632cb3e4823d65f31a7,2023-04-14_10h01.15.707,PRaM,2021.2.3,Win32,72.07207207,61b8f3437b89212fae0dfade
6,2.4229,space,0.7402,0,185,185,226,1,,,5b64b599f7798c0001828516,64391632cb3e4823d65f31a7,2023-04-14_10h01.15.707,PRaM,2021.2.3,Win32,72.07207207,61b8f3437b89212fae0dfade
2,2.1158,space,0.3518,0,186,186,303,1,,,5b64b599f7798c0001828516,64391632cb3e4823d65f31a7,2023-04-14_10h01.15.707,PRaM,2021.2.3,Win32,72.07207207,61b8f3437b89212fae0dfade
4,2.6152,space,0.9399,0,187,187,370,1,,,5b64b599f7798c0001828516,64391632cb3e4823d65f31a7,2023-04-14_10h01.15.707,PRaM,2021.2.3,Win32,72.07207207,61b8f3437b89212fae0dfade
7,2.0784,space,0.3029,0,188,188,38,1,,,5b64b599f7798c0001828516,64391632cb3e4823d65f31a7,2023-04-14_10h01.15.707,PRaM,2021.2.3,Win32,72.07207207,61b8f3437b89212fae0dfade
2,1.9446,space,0.1878,0,189,189,258,1,,,5b64b599f7798c0001828516,64391632cb3e4823d65f31a7,2023-04-14_10h01.15.707,PRaM,2021.2.3,Win32,72.07207207,61b8f3437b89212fae0dfade
2,2.025,space,0.3139,0,190,190,34,1,,,5b64b599f7798c0001828516,64391632cb3e4823d65f31a7,2023-04-14_10h01.15.707,PRaM,2021.2.3,Win32,72.07207207,61b8f3437b89212fae0dfade
1,2.1212,space,0.4158,0,191,191,299,1,,,5b64b599f7798c0001828516,64391632cb3e4823d65f31a7,2023-04-14_10h01.15.707,PRaM,2021.2.3,Win32,72.07207207,61b8f3437b89212fae0dfade
1,2.1636,space,0.4259,0,192,192,55,1,,,5b64b599f7798c0001828516,64391632cb3e4823d65f31a7,2023-04-14_10h01.15.707,PRaM,2021.2.3,Win32,72.07207207,61b8f3437b89212fae0dfade
6,2.1821,space,0.4107,0,193,193,45,1,,,5b64b599f7798c0001828516,64391632cb3e4823d65f31a7,2023-04-14_10h01.15.707,PRaM,2021.2.3,Win32,72.07207207,61b8f3437b89212fae0dfade
7,2.3939,space,0.6772,0,194,194,255,1,,,5b64b599f7798c0001828516,64391632cb3e4823d65f31a7,2023-04-14_10h01.15.707,PRaM,2021.2.3,Win32,72.07207207,61b8f3437b89212fae0dfade
2,1.6206,space,1.2915,0,195,195,50,1,,,5b64b599f7798c0001828516,64391632cb3e4823d65f31a7,2023-04-14_10h01.15.707,PRaM,2021.2.3,Win32,72.07207207,61b8f3437b89212fae0dfade
4,3.398,space,1.7602,0,196,196,126,1,,,5b64b599f7798c0001828516,64391632cb3e4823d65f31a7,2023-04-14_10h01.15.707,PRaM,2021.2.3,Win32,72.07207207,61b8f3437b89212fae0dfade
2,3.1908,space,1.4712,0,197,197,377,1,,,5b64b599f7798c0001828516,64391632cb3e4823d65f31a7,2023-04-14_10h01.15.707,PRaM,2021.2.3,Win32,72.07207207,61b8f3437b89212fae0dfade
1,2.5415,space,0.8545,0,198,198,167,1,,,5b64b599f7798c0001828516,64391632cb3e4823d65f31a7,2023-04-14_10h01.15.707,PRaM,2021.2.3,Win32,72.07207207,61b8f3437b89212fae0dfade
7,3.1853,space,1.4444,0,199,199,236,1,,,5b64b599f7798c0001828516,64391632cb3e4823d65f31a7,2023-04-14_10h01.15.707,PRaM,2021.2.3,Win32,72.07207207,61b8f3437b89212fae0dfade
6,2.2458,space,0.5189,0,200,200,0,1,,,5b64b599f7798c0001828516,64391632cb3e4823d65f31a7,2023-04-14_10h01.15.707,PRaM,2021.2.3,Win32,72.07207207,61b8f3437b89212fae0dfade
6,2.1518,space,0.4838,0,201,201,20,1,,,5b64b599f7798c0001828516,64391632cb3e4823d65f31a7,2023-04-14_10h01.15.707,PRaM,2021.2.3,Win32,72.07207207,61b8f3437b89212fae0dfade
1,3.0812,space,1.364,0,202,202,122,1,,,5b64b599f7798c0001828516,64391632cb3e4823d65f31a7,2023-04-14_10h01.15.707,PRaM,2021.2.3,Win32,72.07207207,61b8f3437b89212fae0dfade
9,2.2451,space,0.4813,0,203,203,17,1,,,5b64b599f7798c0001828516,64391632cb3e4823d65f31a7,2023-04-14_10h01.15.707,PRaM,2021.2.3,Win32,72.07207207,61b8f3437b89212fae0dfade
8,3.7514,space,2.003,0,204,204,242,1,,,5b64b599f7798c0001828516,64391632cb3e4823d65f31a7,2023-04-14_10h01.15.707,PRaM,2021.2.3,Win32,72.07207207,61b8f3437b89212fae0dfade
6,2.1714,space,0.367,0,205,205,102,1,,,5b64b599f7798c0001828516,64391632cb3e4823d65f31a7,2023-04-14_10h01.15.707,PRaM,2021.2.3,Win32,72.07207207,61b8f3437b89212fae0dfade
7,2.2316,space,0.4826,0,206,206,357,1,,,5b64b599f7798c0001828516,64391632cb3e4823d65f31a7,2023-04-14_10h01.15.707,PRaM,2021.2.3,Win32,72.07207207,61b8f3437b89212fae0dfade
1,2.6021,space,0.8937,0,207,207,176,1,,,5b64b599f7798c0001828516,64391632cb3e4823d65f31a7,2023-04-14_10h01.15.707,PRaM,2021.2.3,Win32,72.07207207,61b8f3437b89212fae0dfade
7,1.8584,space,0.0159,0,208,208,119,1,,,5b64b599f7798c0001828516,64391632cb3e4823d65f31a7,2023-04-14_10h01.15.707,PRaM,2021.2.3,Win32,72.07207207,61b8f3437b89212fae0dfade
8,3.0392,space,1.3366,0,209,209,285,1,,,5b64b599f7798c0001828516,64391632cb3e4823d65f31a7,2023-04-14_10h01.15.707,PRaM,2021.2.3,Win32,72.07207207,61b8f3437b89212fae0dfade
2,2.6148,space,0.8495,0,210,210,73,1,,,5b64b599f7798c0001828516,64391632cb3e4823d65f31a7,2023-04-14_10h01.15.707,PRaM,2021.2.3,Win32,72.07207207,61b8f3437b89212fae0dfade
7,2.1126,space,0.3617,0,211,211,61,1,,,5b64b599f7798c0001828516,64391632cb3e4823d65f31a7,2023-04-14_10h01.15.707,PRaM,2021.2.3,Win32,72.07207207,61b8f3437b89212fae0dfade
1,1.9075,space,0.2552,0,212,212,290,1,,,5b64b599f7798c0001828516,64391632cb3e4823d65f31a7,2023-04-14_10h01.15.707,PRaM,2021.2.3,Win32,72.07207207,61b8f3437b89212fae0dfade
8,2.0903,space,0.4469,0,213,213,53,1,,,5b64b599f7798c0001828516,64391632cb3e4823d65f31a7,2023-04-14_10h01.15.707,PRaM,2021.2.3,Win32,72.07207207,61b8f3437b89212fae0dfade
2,8.0178,space,6.2496,0,214,214,125,1,,,5b64b599f7798c0001828516,64391632cb3e4823d65f31a7,2023-04-14_10h01.15.707,PRaM,2021.2.3,Win32,72.07207207,61b8f3437b89212fae0dfade
1,2.6013,space,0.9491,0,215,215,89,1,,,5b64b599f7798c0001828516,64391632cb3e4823d65f31a7,2023-04-14_10h01.15.707,PRaM,2021.2.3,Win32,72.07207207,61b8f3437b89212fae0dfade
5,3.0621,space,1.2139,0,216,216,345,1,,,5b64b599f7798c0001828516,64391632cb3e4823d65f31a7,2023-04-14_10h01.15.707,PRaM,2021.2.3,Win32,72.07207207,61b8f3437b89212fae0dfade
8,2.0925,space,0.4832,0,217,217,264,1,,,5b64b599f7798c0001828516,64391632cb3e4823d65f31a7,2023-04-14_10h01.15.707,PRaM,2021.2.3,Win32,72.07207207,61b8f3437b89212fae0dfade
7,2.2612,space,0.4924,0,218,218,60,1,,,5b64b599f7798c0001828516,64391632cb3e4823d65f31a7,2023-04-14_10h01.15.707,PRaM,2021.2.3,Win32,72.07207207,61b8f3437b89212fae0dfade
2,2.296,space,0.4875,0,219,219,128,1,,,5b64b599f7798c0001828516,64391632cb3e4823d65f31a7,2023-04-14_10h01.15.707,PRaM,2021.2.3,Win32,72.07207207,61b8f3437b89212fae0dfade
8,2.178,space,0.3724,0,220,220,166,1,,,5b64b599f7798c0001828516,64391632cb3e4823d65f31a7,2023-04-14_10h01.15.707,PRaM,2021.2.3,Win32,72.07207207,61b8f3437b89212fae0dfade
7,1.9934,space,0.1897,0,221,221,84,1,,,5b64b599f7798c0001828516,64391632cb3e4823d65f31a7,2023-04-14_10h01.15.707,PRaM,2021.2.3,Win32,72.07207207,61b8f3437b89212fae0dfade
6,2.1369,space,0.4306,0,222,222,43,1,,,5b64b599f7798c0001828516,64391632cb3e4823d65f31a7,2023-04-14_10h01.15.707,PRaM,2021.2.3,Win32,72.07207207,61b8f3437b89212fae0dfade
7,1.8225,space,0.0168,0,223,223,112,1,,,5b64b599f7798c0001828516,64391632cb3e4823d65f31a7,2023-04-14_10h01.15.707,PRaM,2021.2.3,Win32,72.07207207,61b8f3437b89212fae0dfade
1,2.0571,space,0.2665,0,224,224,263,1,,,5b64b599f7798c0001828516,64391632cb3e4823d65f31a7,2023-04-14_10h01.15.707,PRaM,2021.2.3,Win32,72.07207207,61b8f3437b89212fae0dfade
7,4.3645,space,2.6159,0,225,225,192,1,,,5b64b599f7798c0001828516,64391632cb3e4823d65f31a7,2023-04-14_10h01.15.707,PRaM,2021.2.3,Win32,72.07207207,61b8f3437b89212fae0dfade
7,3.5597,space,1.7464,0,226,226,181,1,,,5b64b599f7798c0001828516,64391632cb3e4823d65f31a7,2023-04-14_10h01.15.707,PRaM,2021.2.3,Win32,72.07207207,61b8f3437b89212fae0dfade
6,2.0594,space,0.3559,0,227,227,86,1,,,5b64b599f7798c0001828516,64391632cb3e4823d65f31a7,2023-04-14_10h01.15.707,PRaM,2021.2.3,Win32,72.07207207,61b8f3437b89212fae0dfade
4,3.0578,space,1.4154,0,228,228,361,1,,,5b64b599f7798c0001828516,64391632cb3e4823d65f31a7,2023-04-14_10h01.15.707,PRaM,2021.2.3,Win32,72.07207207,61b8f3437b89212fae0dfade
3,2.6528,space,1.0675,0,229,229,18,1,,,5b64b599f7798c0001828516,64391632cb3e4823d65f31a7,2023-04-14_10h01.15.707,PRaM,2021.2.3,Win32,72.07207207,61b8f3437b89212fae0dfade
1,2.0046,space,0.3081,0,230,230,71,1,,,5b64b599f7798c0001828516,64391632cb3e4823d65f31a7,2023-04-14_10h01.15.707,PRaM,2021.2.3,Win32,72.07207207,61b8f3437b89212fae0dfade
3,3.8812,space,2.0987,0,231,231,342,1,,,5b64b599f7798c0001828516,64391632cb3e4823d65f31a7,2023-04-14_10h01.15.707,PRaM,2021.2.3,Win32,72.07207207,61b8f3437b89212fae0dfade
3,14.1816,space,12.3986,0,232,232,324,1,,,5b64b599f7798c0001828516,64391632cb3e4823d65f31a7,2023-04-14_10h01.15.707,PRaM,2021.2.3,Win32,72.07207207,61b8f3437b89212fae0dfade
6,1.9348,space,0.0166,0,233,233,51,1,,,5b64b599f7798c0001828516,64391632cb3e4823d65f31a7,2023-04-14_10h01.15.707,PRaM,2021.2.3,Win32,72.07207207,61b8f3437b89212fae0dfade
3,2.2026,space,0.3119,0,234,234,312,1,,,5b64b599f7798c0001828516,64391632cb3e4823d65f31a7,2023-04-14_10h01.15.707,PRaM,2021.2.3,Win32,72.07207207,61b8f3437b89212fae0dfade
2,1.7739,space,1.1557,0,235,235,131,1,,,5b64b599f7798c0001828516,64391632cb3e4823d65f31a7,2023-04-14_10h01.15.707,PRaM,2021.2.3,Win32,72.07207207,61b8f3437b89212fae0dfade
7,2.1255,space,0.4885,0,236,236,7,1,,,5b64b599f7798c0001828516,64391632cb3e4823d65f31a7,2023-04-14_10h01.15.707,PRaM,2021.2.3,Win32,72.07207207,61b8f3437b89212fae0dfade
2,2.1362,space,0.3773,0,237,237,360,1,,,5b64b599f7798c0001828516,64391632cb3e4823d65f31a7,2023-04-14_10h01.15.707,PRaM,2021.2.3,Win32,72.07207207,61b8f3437b89212fae0dfade
2,1.8391,space,0.8624,0,238,238,65,1,,,5b64b599f7798c0001828516,64391632cb3e4823d65f31a7,2023-04-14_10h01.15.707,PRaM,2021.2.3,Win32,72.07207207,61b8f3437b89212fae0dfade
1,1.7357,space,0.9355,0,239,239,339,1,,,5b64b599f7798c0001828516,64391632cb3e4823d65f31a7,2023-04-14_10h01.15.707,PRaM,2021.2.3,Win32,72.07207207,61b8f3437b89212fae0dfade
1,2.1638,space,0.4847,0,240,240,15,1,,,5b64b599f7798c0001828516,64391632cb3e4823d65f31a7,2023-04-14_10h01.15.707,PRaM,2021.2.3,Win32,72.07207207,61b8f3437b89212fae0dfade
7,1.8389,space,0.1858,0,241,241,352,1,,,5b64b599f7798c0001828516,64391632cb3e4823d65f31a7,2023-04-14_10h01.15.707,PRaM,2021.2.3,Win32,72.07207207,61b8f3437b89212fae0dfade
1,2.6476,space,0.9539,0,242,242,315,1,,,5b64b599f7798c0001828516,64391632cb3e4823d65f31a7,2023-04-14_10h01.15.707,PRaM,2021.2.3,Win32,72.07207207,61b8f3437b89212fae0dfade
8,2.8979,space,1.2098,0,243,243,301,1,,,5b64b599f7798c0001828516,64391632cb3e4823d65f31a7,2023-04-14_10h01.15.707,PRaM,2021.2.3,Win32,72.07207207,61b8f3437b89212fae0dfade
3,2.8708,space,0.9664,0,244,244,81,1,,,5b64b599f7798c0001828516,64391632cb3e4823d65f31a7,2023-04-14_10h01.15.707,PRaM,2021.2.3,Win32,72.07207207,61b8f3437b89212fae0dfade
1,2.1076,space,0.3082,0,245,245,92,1,,,5b64b599f7798c0001828516,64391632cb3e4823d65f31a7,2023-04-14_10h01.15.707,PRaM,2021.2.3,Win32,72.07207207,61b8f3437b89212fae0dfade
5,4.5038,space,2.6475,0,246,246,175,1,,,5b64b599f7798c0001828516,64391632cb3e4823d65f31a7,2023-04-14_10h01.15.707,PRaM,2021.2.3,Win32,72.07207207,61b8f3437b89212fae0dfade
8,2.475,space,0.9422,0,247,247,105,1,,,5b64b599f7798c0001828516,64391632cb3e4823d65f31a7,2023-04-14_10h01.15.707,PRaM,2021.2.3,Win32,72.07207207,61b8f3437b89212fae0dfade
2,1.7409,space,0.0164,0,248,248,203,1,,,5b64b599f7798c0001828516,64391632cb3e4823d65f31a7,2023-04-14_10h01.15.707,PRaM,2021.2.3,Win32,72.07207207,61b8f3437b89212fae0dfade
6,2.6524,space,0.9343,0,249,249,114,1,,,5b64b599f7798c0001828516,64391632cb3e4823d65f31a7,2023-04-14_10h01.15.707,PRaM,2021.2.3,Win32,72.07207207,61b8f3437b89212fae0dfade
7,2.8685,space,1.0595,0,250,250,223,1,,,5b64b599f7798c0001828516,64391632cb3e4823d65f31a7,2023-04-14_10h01.15.707,PRaM,2021.2.3,Win32,72.07207207,61b8f3437b89212fae0dfade
1,2.292,space,0.5766,0,251,251,214,1,,,5b64b599f7798c0001828516,64391632cb3e4823d65f31a7,2023-04-14_10h01.15.707,PRaM,2021.2.3,Win32,72.07207207,61b8f3437b89212fae0dfade
8,1.9173,space,0.1378,0,252,252,115,1,,,5b64b599f7798c0001828516,64391632cb3e4823d65f31a7,2023-04-14_10h01.15.707,PRaM,2021.2.3,Win32,72.07207207,61b8f3437b89212fae0dfade
1,2.4151,space,0.7165,0,253,253,248,1,,,5b64b599f7798c0001828516,64391632cb3e4823d65f31a7,2023-04-14_10h01.15.707,PRaM,2021.2.3,Win32,72.07207207,61b8f3437b89212fae0dfade
5,5.4723,space,3.7472,0,254,254,132,1,,,5b64b599f7798c0001828516,64391632cb3e4823d65f31a7,2023-04-14_10h01.15.707,PRaM,2021.2.3,Win32,72.07207207,61b8f3437b89212fae0dfade
6,1.8595,space,0.0713,0,255,255,168,1,,,5b64b599f7798c0001828516,64391632cb3e4823d65f31a7,2023-04-14_10h01.15.707,PRaM,2021.2.3,Win32,72.07207207,61b8f3437b89212fae0dfade
5,2.5756,space,0.8897,0,256,256,373,1,,,5b64b599f7798c0001828516,64391632cb3e4823d65f31a7,2023-04-14_10h01.15.707,PRaM,2021.2.3,Win32,72.07207207,61b8f3437b89212fae0dfade
2,2.0415,space,0.2533,0,257,257,27,1,,,5b64b599f7798c0001828516,64391632cb3e4823d65f31a7,2023-04-14_10h01.15.707,PRaM,2021.2.3,Win32,72.07207207,61b8f3437b89212fae0dfade
6,2.7277,space,1.096,0,258,258,328,1,,,5b64b599f7798c0001828516,64391632cb3e4823d65f31a7,2023-04-14_10h01.15.707,PRaM,2021.2.3,Win32,72.07207207,61b8f3437b89212fae0dfade
1,3.6899,space,1.8639,0,259,259,54,1,,,5b64b599f7798c0001828516,64391632cb3e4823d65f31a7,2023-04-14_10h01.15.707,PRaM,2021.2.3,Win32,72.07207207,61b8f3437b89212fae0dfade
6,2.7146,space,1.0716,0,260,260,76,1,,,5b64b599f7798c0001828516,64391632cb3e4823d65f31a7,2023-04-14_10h01.15.707,PRaM,2021.2.3,Win32,72.07207207,61b8f3437b89212fae0dfade
6,2.3038,space,0.4331,0,261,261,216,1,,,5b64b599f7798c0001828516,64391632cb3e4823d65f31a7,2023-04-14_10h01.15.707,PRaM,2021.2.3,Win32,72.07207207,61b8f3437b89212fae0dfade
6,2.4211,space,0.6426,0,262,262,29,1,,,5b64b599f7798c0001828516,64391632cb3e4823d65f31a7,2023-04-14_10h01.15.707,PRaM,2021.2.3,Win32,72.07207207,61b8f3437b89212fae0dfade
7,2.1794,space,0.4286,0,263,263,199,1,,,5b64b599f7798c0001828516,64391632cb3e4823d65f31a7,2023-04-14_10h01.15.707,PRaM,2021.2.3,Win32,72.07207207,61b8f3437b89212fae0dfade
1,3.2437,space,1.5156,0,264,264,245,1,,,5b64b599f7798c0001828516,64391632cb3e4823d65f31a7,2023-04-14_10h01.15.707,PRaM,2021.2.3,Win32,72.07207207,61b8f3437b89212fae0dfade
,,space,0.7104,0,265,265,231,1,,,5b64b599f7798c0001828516,64391632cb3e4823d65f31a7,2023-04-14_10h01.15.707,PRaM,2021.2.3,Win32,72.07207207,61b8f3437b89212fae0dfade
5,5.1683,space,3.5064,0,266,266,267,1,,,5b64b599f7798c0001828516,64391632cb3e4823d65f31a7,2023-04-14_10h01.15.707,PRaM,2021.2.3,Win32,72.07207207,61b8f3437b89212fae0dfade
2,1.8804,space,0.1858,0,267,267,306,1,,,5b64b599f7798c0001828516,64391632cb3e4823d65f31a7,2023-04-14_10h01.15.707,PRaM,2021.2.3,Win32,72.07207207,61b8f3437b89212fae0dfade
3,2.5178,space,0.828,0,268,268,100,1,,,5b64b599f7798c0001828516,64391632cb3e4823d65f31a7,2023-04-14_10h01.15.707,PRaM,2021.2.3,Win32,72.07207207,61b8f3437b89212fae0dfade
6,1.9926,space,0.1924,0,269,269,274,1,,,5b64b599f7798c0001828516,64391632cb3e4823d65f31a7,2023-04-14_10h01.15.707,PRaM,2021.2.3,Win32,72.07207207,61b8f3437b89212fae0dfade
4,2.6015,space,0.8945,0,270,270,314,1,,,5b64b599f7798c0001828516,64391632cb3e4823d65f31a7,2023-04-14_10h01.15.707,PRaM,2021.2.3,Win32,72.07207207,61b8f3437b89212fae0dfade
7,2.3276,space,0.6253,0,271,271,221,1,,,5b64b599f7798c0001828516,64391632cb3e4823d65f31a7,2023-04-14_10h01.15.707,PRaM,2021.2.3,Win32,72.07207207,61b8f3437b89212fae0dfade
7,1.5433,space,0.5298,0,272,272,142,1,,,5b64b599f7798c0001828516,64391632cb3e4823d65f31a7,2023-04-14_10h01.15.707,PRaM,2021.2.3,Win32,72.07207207,61b8f3437b89212fae0dfade
1,3.1615,space,1.4376,0,273,273,272,1,,,5b64b599f7798c0001828516,64391632cb3e4823d65f31a7,2023-04-14_10h01.15.707,PRaM,2021.2.3,Win32,72.07207207,61b8f3437b89212fae0dfade
3,2.776,space,1.0663,0,274,274,6,1,,,5b64b599f7798c0001828516,64391632cb3e4823d65f31a7,2023-04-14_10h01.15.707,PRaM,2021.2.3,Win32,72.07207207,61b8f3437b89212fae0dfade
6,4.4469,space,2.7598,0,275,275,261,1,,,5b64b599f7798c0001828516,64391632cb3e4823d65f31a7,2023-04-14_10h01.15.707,PRaM,2021.2.3,Win32,72.07207207,61b8f3437b89212fae0dfade
6,9.3061,space,7.6446,0,276,276,347,1,,,5b64b599f7798c0001828516,64391632cb3e4823d65f31a7,2023-04-14_10h01.15.707,PRaM,2021.2.3,Win32,72.07207207,61b8f3437b89212fae0dfade
2,2.0841,space,0.3663,0,277,277,141,1,,,5b64b599f7798c0001828516,64391632cb3e4823d65f31a7,2023-04-14_10h01.15.707,PRaM,2021.2.3,Win32,72.07207207,61b8f3437b89212fae0dfade
1,1.8421,space,0.1359,0,278,278,87,1,,,5b64b599f7798c0001828516,64391632cb3e4823d65f31a7,2023-04-14_10h01.15.707,PRaM,2021.2.3,Win32,72.07207207,61b8f3437b89212fae0dfade
7,2.2151,space,0.5575,0,279,279,297,1,,,5b64b599f7798c0001828516,64391632cb3e4823d65f31a7,2023-04-14_10h01.15.707,PRaM,2021.2.3,Win32,72.07207207,61b8f3437b89212fae0dfade
2,2.3219,space,0.6006,0,280,280,2,1,,,5b64b599f7798c0001828516,64391632cb3e4823d65f31a7,2023-04-14_10h01.15.707,PRaM,2021.2.3,Win32,72.07207207,61b8f3437b89212fae0dfade
7,2.1535,space,0.4357,0,281,281,75,1,,,5b64b599f7798c0001828516,64391632cb3e4823d65f31a7,2023-04-14_10h01.15.707,PRaM,2021.2.3,Win32,72.07207207,61b8f3437b89212fae0dfade
1,2.0907,space,0.3685,0,282,282,212,1,,,5b64b599f7798c0001828516,64391632cb3e4823d65f31a7,2023-04-14_10h01.15.707,PRaM,2021.2.3,Win32,72.07207207,61b8f3437b89212fae0dfade
2,2.266,space,0.4775,0,283,283,362,1,,,5b64b599f7798c0001828516,64391632cb3e4823d65f31a7,2023-04-14_10h01.15.707,PRaM,2021.2.3,Win32,72.07207207,61b8f3437b89212fae0dfade
1,6.82,space,5.1745,0,284,284,268,1,,,5b64b599f7798c0001828516,64391632cb3e4823d65f31a7,2023-04-14_10h01.15.707,PRaM,2021.2.3,Win32,72.07207207,61b8f3437b89212fae0dfade
1,5.588,space,3.8181,0,285,285,275,1,,,5b64b599f7798c0001828516,64391632cb3e4823d65f31a7,2023-04-14_10h01.15.707,PRaM,2021.2.3,Win32,72.07207207,61b8f3437b89212fae0dfade
,,space,5.2299,0,286,286,1,1,,,5b64b599f7798c0001828516,64391632cb3e4823d65f31a7,2023-04-14_10h01.15.707,PRaM,2021.2.3,Win32,72.07207207,61b8f3437b89212fae0dfade
6,2.5113,space,0.882,0,287,287,213,1,,,5b64b599f7798c0001828516,64391632cb3e4823d65f31a7,2023-04-14_10h01.15.707,PRaM,2021.2.3,Win32,72.07207207,61b8f3437b89212fae0dfade
8,2.4254,space,0.6675,0,288,288,197,1,,,5b64b599f7798c0001828516,64391632cb3e4823d65f31a7,2023-04-14_10h01.15.707,PRaM,2021.2.3,Win32,72.07207207,61b8f3437b89212fae0dfade
2,2.2187,space,0.4302,0,289,289,172,1,,,5b64b599f7798c0001828516,64391632cb3e4823d65f31a7,2023-04-14_10h01.15.707,PRaM,2021.2.3,Win32,72.07207207,61b8f3437b89212fae0dfade
1,2.5262,space,0.9074,0,290,290,367,1,,,5b64b599f7798c0001828516,64391632cb3e4823d65f31a7,2023-04-14_10h01.15.707,PRaM,2021.2.3,Win32,72.07207207,61b8f3437b89212fae0dfade
1,3.9401,space,2.2672,0,291,291,205,1,,,5b64b599f7798c0001828516,64391632cb3e4823d65f31a7,2023-04-14_10h01.15.707,PRaM,2021.2.3,Win32,72.07207207,61b8f3437b89212fae0dfade
1,2.3283,space,0.6521,0,292,292,185,1,,,5b64b599f7798c0001828516,64391632cb3e4823d65f31a7,2023-04-14_10h01.15.707,PRaM,2021.2.3,Win32,72.07207207,61b8f3437b89212fae0dfade
6,2.7756,space,0.9925,0,293,293,152,1,,,5b64b599f7798c0001828516,64391632cb3e4823d65f31a7,2023-04-14_10h01.15.707,PRaM,2021.2.3,Win32,72.07207207,61b8f3437b89212fae0dfade
2,3.7457,space,2.0247,0,294,294,171,1,,,5b64b599f7798c0001828516,64391632cb3e4823d65f31a7,2023-04-14_10h01.15.707,PRaM,2021.2.3,Win32,72.07207207,61b8f3437b89212fae0dfade
7,2.5541,space,0.9038,0,295,295,279,1,,,5b64b599f7798c0001828516,64391632cb3e4823d65f31a7,2023-04-14_10h01.15.707,PRaM,2021.2.3,Win32,72.07207207,61b8f3437b89212fae0dfade
7,2.3486,space,0.5345,0,296,296,159,1,,,5b64b599f7798c0001828516,64391632cb3e4823d65f31a7,2023-04-14_10h01.15.707,PRaM,2021.2.3,Win32,72.07207207,61b8f3437b89212fae0dfade
2,2.059,space,0.3565,0,297,297,273,1,,,5b64b599f7798c0001828516,64391632cb3e4823d65f31a7,2023-04-14_10h01.15.707,PRaM,2021.2.3,Win32,72.07207207,61b8f3437b89212fae0dfade
1,3.7954,space,2.1761,0,298,298,162,1,,,5b64b599f7798c0001828516,64391632cb3e4823d65f31a7,2023-04-14_10h01.15.707,PRaM,2021.2.3,Win32,72.07207207,61b8f3437b89212fae0dfade
1,2.022,space,0.3654,0,299,299,229,1,,,5b64b599f7798c0001828516,64391632cb3e4823d65f31a7,2023-04-14_10h01.15.707,PRaM,2021.2.3,Win32,72.07207207,61b8f3437b89212fae0dfade
4,3.6552,space,1.9524,0,300,300,139,1,,,5b64b599f7798c0001828516,64391632cb3e4823d65f31a7,2023-04-14_10h01.15.707,PRaM,2021.2.3,Win32,72.07207207,61b8f3437b89212fae0dfade
2,2.2478,space,0.4248,0,301,301,364,1,,,5b64b599f7798c0001828516,64391632cb3e4823d65f31a7,2023-04-14_10h01.15.707,PRaM,2021.2.3,Win32,72.07207207,61b8f3437b89212fae0dfade
6,4.2944,space,2.3897,0,302,302,334,1,,,5b64b599f7798c0001828516,64391632cb3e4823d65f31a7,2023-04-14_10h01.15.707,PRaM,2021.2.3,Win32,72.07207207,61b8f3437b89212fae0dfade
2,14.2323,space,12.4761,0,303,303,8,1,,,5b64b599f7798c0001828516,64391632cb3e4823d65f31a7,2023-04-14_10h01.15.707,PRaM,2021.2.3,Win32,72.07207207,61b8f3437b89212fae0dfade
1,2.1991,space,0.4159,0,304,304,155,1,,,5b64b599f7798c0001828516,64391632cb3e4823d65f31a7,2023-04-14_10h01.15.707,PRaM,2021.2.3,Win32,72.07207207,61b8f3437b89212fae0dfade
7,2.6163,space,0.8404,0,305,305,372,1,,,5b64b599f7798c0001828516,64391632cb3e4823d65f31a7,2023-04-14_10h01.15.707,PRaM,2021.2.3,Win32,72.07207207,61b8f3437b89212fae0dfade
2,2.1975,space,0.4287,0,306,306,36,1,,,5b64b599f7798c0001828516,64391632cb3e4823d65f31a7,2023-04-14_10h01.15.707,PRaM,2021.2.3,Win32,72.07207207,61b8f3437b89212fae0dfade
1,3.7494,space,1.9638,0,307,307,138,1,,,5b64b599f7798c0001828516,64391632cb3e4823d65f31a7,2023-04-14_10h01.15.707,PRaM,2021.2.3,Win32,72.07207207,61b8f3437b89212fae0dfade
1,2.1832,space,0.5302,0,308,308,220,1,,,5b64b599f7798c0001828516,64391632cb3e4823d65f31a7,2023-04-14_10h01.15.707,PRaM,2021.2.3,Win32,72.07207207,61b8f3437b89212fae0dfade
1,1.796,space,0.1344,0,309,309,376,1,,,5b64b599f7798c0001828516,64391632cb3e4823d65f31a7,2023-04-14_10h01.15.707,PRaM,2021.2.3,Win32,72.07207207,61b8f3437b89212fae0dfade
4,4.9801,space,3.3018,0,310,310,40,1,,,5b64b599f7798c0001828516,64391632cb3e4823d65f31a7,2023-04-14_10h01.15.707,PRaM,2021.2.3,Win32,72.07207207,61b8f3437b89212fae0dfade
2,2.2528,space,0.5379,0,311,311,368,1,,,5b64b599f7798c0001828516,64391632cb3e4823d65f31a7,2023-04-14_10h01.15.707,PRaM,2021.2.3,Win32,72.07207207,61b8f3437b89212fae0dfade
3,4.7882,space,2.9986,0,312,312,179,1,,,5b64b599f7798c0001828516,64391632cb3e4823d65f31a7,2023-04-14_10h01.15.707,PRaM,2021.2.3,Win32,72.07207207,61b8f3437b89212fae0dfade
3,1.895,space,0.1936,0,313,313,24,1,,,5b64b599f7798c0001828516,64391632cb3e4823d65f31a7,2023-04-14_10h01.15.707,PRaM,2021.2.3,Win32,72.07207207,61b8f3437b89212fae0dfade
2,1.8894,space,0.1278,0,314,314,329,1,,,5b64b599f7798c0001828516,64391632cb3e4823d65f31a7,2023-04-14_10h01.15.707,PRaM,2021.2.3,Win32,72.07207207,61b8f3437b89212fae0dfade
6,2.0247,space,0.3727,0,315,315,177,1,,,5b64b599f7798c0001828516,64391632cb3e4823d65f31a7,2023-04-14_10h01.15.707,PRaM,2021.2.3,Win32,72.07207207,61b8f3437b89212fae0dfade
7,1.4777,space,1.0662,0,316,316,202,1,,,5b64b599f7798c0001828516,64391632cb3e4823d65f31a7,2023-04-14_10h01.15.707,PRaM,2021.2.3,Win32,72.07207207,61b8f3437b89212fae0dfade
6,1.5766,space,0.8125,0,317,317,30,1,,,5b64b599f7798c0001828516,64391632cb3e4823d65f31a7,2023-04-14_10h01.15.707,PRaM,2021.2.3,Win32,72.07207207,61b8f3437b89212fae0dfade
3,1.7663,space,0.0848,0,318,318,161,1,,,5b64b599f7798c0001828516,64391632cb3e4823d65f31a7,2023-04-14_10h01.15.707,PRaM,2021.2.3,Win32,72.07207207,61b8f3437b89212fae0dfade
2,6.9741,space,5.3444,0,319,319,37,1,,,5b64b599f7798c0001828516,64391632cb3e4823d65f31a7,2023-04-14_10h01.15.707,PRaM,2021.2.3,Win32,72.07207207,61b8f3437b89212fae0dfade
2,1.8184,space,0.3529,0,320,320,41,1,,,5b64b599f7798c0001828516,64391632cb3e4823d65f31a7,2023-04-14_10h01.15.707,PRaM,2021.2.3,Win32,72.07207207,61b8f3437b89212fae0dfade
1,2.6046,space,1.0676,0,321,321,235,1,,,5b64b599f7798c0001828516,64391632cb3e4823d65f31a7,2023-04-14_10h01.15.707,PRaM,2021.2.3,Win32,72.07207207,61b8f3437b89212fae0dfade
6,2.2075,space,0.7957,0,322,322,256,1,,,5b64b599f7798c0001828516,64391632cb3e4823d65f31a7,2023-04-14_10h01.15.707,PRaM,2021.2.3,Win32,72.07207207,61b8f3437b89212fae0dfade
,,space,0.7148,0,323,323,49,1,,,5b64b599f7798c0001828516,64391632cb3e4823d65f31a7,2023-04-14_10h01.15.707,PRaM,2021.2.3,Win32,72.07207207,61b8f3437b89212fae0dfade
1,3.6768,space,2.4007,0,324,324,260,1,,,5b64b599f7798c0001828516,64391632cb3e4823d65f31a7,2023-04-14_10h01.15.707,PRaM,2021.2.3,Win32,72.07207207,61b8f3437b89212fae0dfade
1,1.9519,space,0.5367,0,325,325,308,1,,,5b64b599f7798c0001828516,64391632cb3e4823d65f31a7,2023-04-14_10h01.15.707,PRaM,2021.2.3,Win32,72.07207207,61b8f3437b89212fae0dfade
1,4.6623,space,3.1794,0,326,326,195,1,,,5b64b599f7798c0001828516,64391632cb3e4823d65f31a7,2023-04-14_10h01.15.707,PRaM,2021.2.3,Win32,72.07207207,61b8f3437b89212fae0dfade
6,1.8578,space,0.1303,0,327,327,340,1,,,5b64b599f7798c0001828516,64391632cb3e4823d65f31a7,2023-04-14_10h01.15.707,PRaM,2021.2.3,Win32,72.07207207,61b8f3437b89212fae0dfade
5,2.7462,space,1.066,0,328,328,233,1,,,5b64b599f7798c0001828516,64391632cb3e4823d65f31a7,2023-04-14_10h01.15.707,PRaM,2021.2.3,Win32,72.07207207,61b8f3437b89212fae0dfade
2,2.6683,space,0.9771,0,329,329,359,1,,,5b64b599f7798c0001828516,64391632cb3e4823d65f31a7,2023-04-14_10h01.15.707,PRaM,2021.2.3,Win32,72.07207207,61b8f3437b89212fae0dfade
1,2.1152,space,0.4658,0,330,330,353,1,,,5b64b599f7798c0001828516,64391632cb3e4823d65f31a7,2023-04-14_10h01.15.707,PRaM,2021.2.3,Win32,72.07207207,61b8f3437b89212fae0dfade
1,1.7699,space,0.0724,0,331,331,82,1,,,5b64b599f7798c0001828516,64391632cb3e4823d65f31a7,2023-04-14_10h01.15.707,PRaM,2021.2.3,Win32,72.07207207,61b8f3437b89212fae0dfade
7,2.401,space,0.6592,0,332,332,208,1,,,5b64b599f7798c0001828516,64391632cb3e4823d65f31a7,2023-04-14_10h01.15.707,PRaM,2021.2.3,Win32,72.07207207,61b8f3437b89212fae0dfade
2,1.9572,space,0.1925,0,333,333,190,1,,,5b64b599f7798c0001828516,64391632cb3e4823d65f31a7,2023-04-14_10h01.15.707,PRaM,2021.2.3,Win32,72.07207207,61b8f3437b89212fae0dfade
1,2.2141,space,0.5348,0,334,334,262,1,,,5b64b599f7798c0001828516,64391632cb3e4823d65f31a7,2023-04-14_10h01.15.707,PRaM,2021.2.3,Win32,72.07207207,61b8f3437b89212fae0dfade
1,2.9952,space,1.3242,0,335,335,318,1,,,5b64b599f7798c0001828516,64391632cb3e4823d65f31a7,2023-04-14_10h01.15.707,PRaM,2021.2.3,Win32,72.07207207,61b8f3437b89212fae0dfade
8,2.73,space,1.1177,0,336,336,239,1,,,5b64b599f7798c0001828516,64391632cb3e4823d65f31a7,2023-04-14_10h01.15.707,PRaM,2021.2.3,Win32,72.07207207,61b8f3437b89212fae0dfade
2,2.1472,space,0.415,0,337,337,253,1,,,5b64b599f7798c0001828516,64391632cb3e4823d65f31a7,2023-04-14_10h01.15.707,PRaM,2021.2.3,Win32,72.07207207,61b8f3437b89212fae0dfade
8,2.5786,space,0.8693,0,338,338,351,1,,,5b64b599f7798c0001828516,64391632cb3e4823d65f31a7,2023-04-14_10h01.15.707,PRaM,2021.2.3,Win32,72.07207207,61b8f3437b89212fae0dfade
6,2.4517,space,0.7347,0,339,339,211,1,,,5b64b599f7798c0001828516,64391632cb3e4823d65f31a7,2023-04-14_10h01.15.707,PRaM,2021.2.3,Win32,72.07207207,61b8f3437b89212fae0dfade
6,2.4582,space,0.7757,0,340,340,12,1,,,5b64b599f7798c0001828516,64391632cb3e4823d65f31a7,2023-04-14_10h01.15.707,PRaM,2021.2.3,Win32,72.07207207,61b8f3437b89212fae0dfade
8,2.3138,space,0.7546,0,341,341,120,1,,,5b64b599f7798c0001828516,64391632cb3e4823d65f31a7,2023-04-14_10h01.15.707,PRaM,2021.2.3,Win32,72.07207207,61b8f3437b89212fae0dfade
6,2.6403,space,0.9272,0,342,342,269,1,,,5b64b599f7798c0001828516,64391632cb3e4823d65f31a7,2023-04-14_10h01.15.707,PRaM,2021.2.3,Win32,72.07207207,61b8f3437b89212fae0dfade
7,2.1733,space,0.4722,0,343,343,302,1,,,5b64b599f7798c0001828516,64391632cb3e4823d65f31a7,2023-04-14_10h01.15.707,PRaM,2021.2.3,Win32,72.07207207,61b8f3437b89212fae0dfade
6,1.6056,space,0.9246,0,344,344,337,1,,,5b64b599f7798c0001828516,64391632cb3e4823d65f31a7,2023-04-14_10h01.15.707,PRaM,2021.2.3,Win32,72.07207207,61b8f3437b89212fae0dfade
2,2.1915,space,0.426,0,345,345,317,1,,,5b64b599f7798c0001828516,64391632cb3e4823d65f31a7,2023-04-14_10h01.15.707,PRaM,2021.2.3,Win32,72.07207207,61b8f3437b89212fae0dfade
1,6.9161,space,5.2545,0,346,346,346,1,,,5b64b599f7798c0001828516,64391632cb3e4823d65f31a7,2023-04-14_10h01.15.707,PRaM,2021.2.3,Win32,72.07207207,61b8f3437b89212fae0dfade
7,2.2883,space,0.5336,0,347,347,281,1,,,5b64b599f7798c0001828516,64391632cb3e4823d65f31a7,2023-04-14_10h01.15.707,PRaM,2021.2.3,Win32,72.07207207,61b8f3437b89212fae0dfade
7,1.4801,space,0.9442,0,348,348,182,1,,,5b64b599f7798c0001828516,64391632cb3e4823d65f31a7,2023-04-14_10h01.15.707,PRaM,2021.2.3,Win32,72.07207207,61b8f3437b89212fae0dfade
1,6.9272,space,5.1003,0,349,349,70,1,,,5b64b599f7798c0001828516,64391632cb3e4823d65f31a7,2023-04-14_10h01.15.707,PRaM,2021.2.3,Win32,72.07207207,61b8f3437b89212fae0dfade
1,1.9471,space,0.2706,0,350,350,193,1,,,5b64b599f7798c0001828516,64391632cb3e4823d65f31a7,2023-04-14_10h01.15.707,PRaM,2021.2.3,Win32,72.07207207,61b8f3437b89212fae0dfade
2,5.3579,space,3.6783,0,351,351,375,1,,,5b64b599f7798c0001828516,64391632cb3e4823d65f31a7,2023-04-14_10h01.15.707,PRaM,2021.2.3,Win32,72.07207207,61b8f3437b89212fae0dfade
6,2.1691,space,0.4681,0,352,352,355,1,,,5b64b599f7798c0001828516,64391632cb3e4823d65f31a7,2023-04-14_10h01.15.707,PRaM,2021.2.3,Win32,72.07207207,61b8f3437b89212fae0dfade
2,2.7666,space,1.528,0,353,353,310,1,,,5b64b599f7798c0001828516,64391632cb3e4823d65f31a7,2023-04-14_10h01.15.707,PRaM,2021.2.3,Win32,72.07207207,61b8f3437b89212fae0dfade
6,3.2317,space,1.5451,0,354,354,321,1,,,5b64b599f7798c0001828516,64391632cb3e4823d65f31a7,2023-04-14_10h01.15.707,PRaM,2021.2.3,Win32,72.07207207,61b8f3437b89212fae0dfade
1,2.5678,space,1.2744,0,355,355,240,1,,,5b64b599f7798c0001828516,64391632cb3e4823d65f31a7,2023-04-14_10h01.15.707,PRaM,2021.2.3,Win32,72.07207207,61b8f3437b89212fae0dfade
1,2.8299,space,1.1442,0,356,356,266,1,,,5b64b599f7798c0001828516,64391632cb3e4823d65f31a7,2023-04-14_10h01.15.707,PRaM,2021.2.3,Win32,72.07207207,61b8f3437b89212fae0dfade
5,2.2635,space,0.5421,0,357,357,291,1,,,5b64b599f7798c0001828516,64391632cb3e4823d65f31a7,2023-04-14_10h01.15.707,PRaM,2021.2.3,Win32,72.07207207,61b8f3437b89212fae0dfade
6,1.3763,space,0.4724,0,358,358,298,1,,,5b64b599f7798c0001828516,64391632cb3e4823d65f31a7,2023-04-14_10h01.15.707,PRaM,2021.2.3,Win32,72.07207207,61b8f3437b89212fae0dfade
3,2.2177,space,0.5331,0,359,359,28,1,,,5b64b599f7798c0001828516,64391632cb3e4823d65f31a7,2023-04-14_10h01.15.707,PRaM,2021.2.3,Win32,72.07207207,61b8f3437b89212fae0dfade
8,2.3478,space,0.68,0,360,360,320,1,,,5b64b599f7798c0001828516,64391632cb3e4823d65f31a7,2023-04-14_10h01.15.707,PRaM,2021.2.3,Win32,72.07207207,61b8f3437b89212fae0dfade
1,2.8692,space,1.14,0,361,361,188,1,,,5b64b599f7798c0001828516,64391632cb3e4823d65f31a7,2023-04-14_10h01.15.707,PRaM,2021.2.3,Win32,72.07207207,61b8f3437b89212fae0dfade
6,5.2702,space,3.5875,0,362,362,344,1,,,5b64b599f7798c0001828516,64391632cb3e4823d65f31a7,2023-04-14_10h01.15.707,PRaM,2021.2.3,Win32,72.07207207,61b8f3437b89212fae0dfade
7,1.9811,space,0.3079,0,363,363,335,1,,,5b64b599f7798c0001828516,64391632cb3e4823d65f31a7,2023-04-14_10h01.15.707,PRaM,2021.2.3,Win32,72.07207207,61b8f3437b89212fae0dfade
7,2.3064,space,0.5161,0,364,364,294,1,,,5b64b599f7798c0001828516,64391632cb3e4823d65f31a7,2023-04-14_10h01.15.707,PRaM,2021.2.3,Win32,72.07207207,61b8f3437b89212fae0dfade
1,2.0897,space,0.4143,0,365,365,257,1,,,5b64b599f7798c0001828516,64391632cb3e4823d65f31a7,2023-04-14_10h01.15.707,PRaM,2021.2.3,Win32,72.07207207,61b8f3437b89212fae0dfade
2,3.0207,space,1.4022,0,366,366,292,1,,,5b64b599f7798c0001828516,64391632cb3e4823d65f31a7,2023-04-14_10h01.15.707,PRaM,2021.2.3,Win32,72.07207207,61b8f3437b89212fae0dfade
1,2.5943,space,1.0019,0,367,367,11,1,,,5b64b599f7798c0001828516,64391632cb3e4823d65f31a7,2023-04-14_10h01.15.707,PRaM,2021.2.3,Win32,72.07207207,61b8f3437b89212fae0dfade
1,4.1729,space,2.4821,0,368,368,333,1,,,5b64b599f7798c0001828516,64391632cb3e4823d65f31a7,2023-04-14_10h01.15.707,PRaM,2021.2.3,Win32,72.07207207,61b8f3437b89212fae0dfade
1,2.3387,space,0.6842,0,369,369,103,1,,,5b64b599f7798c0001828516,64391632cb3e4823d65f31a7,2023-04-14_10h01.15.707,PRaM,2021.2.3,Win32,72.07207207,61b8f3437b89212fae0dfade
6,2.166,space,0.4913,0,370,370,207,1,,,5b64b599f7798c0001828516,64391632cb3e4823d65f31a7,2023-04-14_10h01.15.707,PRaM,2021.2.3,Win32,72.07207207,61b8f3437b89212fae0dfade
6,2.7563,space,1.1804,0,371,371,204,1,,,5b64b599f7798c0001828516,64391632cb3e4823d65f31a7,2023-04-14_10h01.15.707,PRaM,2021.2.3,Win32,72.07207207,61b8f3437b89212fae0dfade
4,4.83,space,3.131,0,372,372,69,1,,,5b64b599f7798c0001828516,64391632cb3e4823d65f31a7,2023-04-14_10h01.15.707,PRaM,2021.2.3,Win32,72.07207207,61b8f3437b89212fae0dfade
6,2.2327,space,0.5439,0,373,373,164,1,,,5b64b599f7798c0001828516,64391632cb3e4823d65f31a7,2023-04-14_10h01.15.707,PRaM,2021.2.3,Win32,72.07207207,61b8f3437b89212fae0dfade
7,1.7854,space,0.0889,0,374,374,59,1,,,5b64b599f7798c0001828516,64391632cb3e4823d65f31a7,2023-04-14_10h01.15.707,PRaM,2021.2.3,Win32,72.07207207,61b8f3437b89212fae0dfade
2,5.2086,space,3.5867,0,375,375,94,1,,,5b64b599f7798c0001828516,64391632cb3e4823d65f31a7,2023-04-14_10h01.15.707,PRaM,2021.2.3,Win32,72.07207207,61b8f3437b89212fae0dfade
6,2.053,space,0.3427,0,376,376,14,1,,,5b64b599f7798c0001828516,64391632cb3e4823d65f31a7,2023-04-14_10h01.15.707,PRaM,2021.2.3,Win32,72.07207207,61b8f3437b89212fae0dfade
1,1.9829,space,0.3352,0,377,377,251,1,,,5b64b599f7798c0001828516,64391632cb3e4823d65f31a7,2023-04-14_10h01.15.707,PRaM,2021.2.3,Win32,72.07207207,61b8f3437b89212fae0dfade
