Rating.response,Rating.rt,EndTrial.keys,EndTrial.rt,trials.thisRepN,trials.thisTrialN,trials.thisN,trials.thisIndex,trials.ran,Pos1,Pos2,participant,session,date,expName,psychopyVersion,OS,frameRate,study_id
2,3.224,space,4.523,0,0,0,116,1,,,5b88002a7bb9e90001f0703f,6439162c336d88e0677eb167,2023-04-14_10h00.42.065,PRaM,2021.2.3,Win32,59.84440455,61b8f3437b89212fae0dfade
3,2.939,space,1.5325,0,1,1,266,1,,,5b88002a7bb9e90001f0703f,6439162c336d88e0677eb167,2023-04-14_10h00.42.065,PRaM,2021.2.3,Win32,59.84440455,61b8f3437b89212fae0dfade
1,2.8079,space,1.7807,0,2,2,212,1,,,5b88002a7bb9e90001f0703f,6439162c336d88e0677eb167,2023-04-14_10h00.42.065,PRaM,2021.2.3,Win32,59.84440455,61b8f3437b89212fae0dfade
1,2.5608,space,1.5014,0,3,3,195,1,,,5b88002a7bb9e90001f0703f,6439162c336d88e0677eb167,2023-04-14_10h00.42.065,PRaM,2021.2.3,Win32,59.84440455,61b8f3437b89212fae0dfade
1,2.1592,space,0.8371,0,4,4,89,1,,,5b88002a7bb9e90001f0703f,6439162c336d88e0677eb167,2023-04-14_10h00.42.065,PRaM,2021.2.3,Win32,59.84440455,61b8f3437b89212fae0dfade
6,2.0423,space,0.5215,0,5,5,361,1,,,5b88002a7bb9e90001f0703f,6439162c336d88e0677eb167,2023-04-14_10h00.42.065,PRaM,2021.2.3,Win32,59.84440455,61b8f3437b89212fae0dfade
8,1.8452,space,0.2527,0,6,6,285,1,,,5b88002a7bb9e90001f0703f,6439162c336d88e0677eb167,2023-04-14_10h00.42.065,PRaM,2021.2.3,Win32,59.84440455,61b8f3437b89212fae0dfade
2,2.4118,space,0.8355,0,7,7,176,1,,,5b88002a7bb9e90001f0703f,6439162c336d88e0677eb167,2023-04-14_10h00.42.065,PRaM,2021.2.3,Win32,59.84440455,61b8f3437b89212fae0dfade
1,2.0192,space,0.5031,0,8,8,108,1,,,5b88002a7bb9e90001f0703f,6439162c336d88e0677eb167,2023-04-14_10h00.42.065,PRaM,2021.2.3,Win32,59.84440455,61b8f3437b89212fae0dfade
1,2.0587,space,0.5792,0,9,9,293,1,,,5b88002a7bb9e90001f0703f,6439162c336d88e0677eb167,2023-04-14_10h00.42.065,PRaM,2021.2.3,Win32,59.84440455,61b8f3437b89212fae0dfade
7,2.0093,space,0.5069,0,10,10,186,1,,,5b88002a7bb9e90001f0703f,6439162c336d88e0677eb167,2023-04-14_10h00.42.065,PRaM,2021.2.3,Win32,59.84440455,61b8f3437b89212fae0dfade
2,2.1871,space,0.5461,0,11,11,153,1,,,5b88002a7bb9e90001f0703f,6439162c336d88e0677eb167,2023-04-14_10h00.42.065,PRaM,2021.2.3,Win32,59.84440455,61b8f3437b89212fae0dfade
1,2.68,space,1.1336,0,12,12,143,1,,,5b88002a7bb9e90001f0703f,6439162c336d88e0677eb167,2023-04-14_10h00.42.065,PRaM,2021.2.3,Win32,59.84440455,61b8f3437b89212fae0dfade
1,1.8893,space,0.2879,0,13,13,55,1,,,5b88002a7bb9e90001f0703f,6439162c336d88e0677eb167,2023-04-14_10h00.42.065,PRaM,2021.2.3,Win32,59.84440455,61b8f3437b89212fae0dfade
6,1.6859,space,0.0319,0,14,14,52,1,,,5b88002a7bb9e90001f0703f,6439162c336d88e0677eb167,2023-04-14_10h00.42.065,PRaM,2021.2.3,Win32,59.84440455,61b8f3437b89212fae0dfade
5,1.9731,space,0.4698,0,15,15,327,1,,,5b88002a7bb9e90001f0703f,6439162c336d88e0677eb167,2023-04-14_10h00.42.065,PRaM,2021.2.3,Win32,59.84440455,61b8f3437b89212fae0dfade
2,2.1418,space,0.4833,0,16,16,113,1,,,5b88002a7bb9e90001f0703f,6439162c336d88e0677eb167,2023-04-14_10h00.42.065,PRaM,2021.2.3,Win32,59.84440455,61b8f3437b89212fae0dfade
4,2.3851,space,0.7354,0,17,17,357,1,,,5b88002a7bb9e90001f0703f,6439162c336d88e0677eb167,2023-04-14_10h00.42.065,PRaM,2021.2.3,Win32,59.84440455,61b8f3437b89212fae0dfade
6,2.4185,space,0.8426,0,18,18,246,1,,,5b88002a7bb9e90001f0703f,6439162c336d88e0677eb167,2023-04-14_10h00.42.065,PRaM,2021.2.3,Win32,59.84440455,61b8f3437b89212fae0dfade
1,1.8739,space,0.2421,0,19,19,70,1,,,5b88002a7bb9e90001f0703f,6439162c336d88e0677eb167,2023-04-14_10h00.42.065,PRaM,2021.2.3,Win32,59.84440455,61b8f3437b89212fae0dfade
7,1.8528,space,0.2293,0,20,20,117,1,,,5b88002a7bb9e90001f0703f,6439162c336d88e0677eb167,2023-04-14_10h00.42.065,PRaM,2021.2.3,Win32,59.84440455,61b8f3437b89212fae0dfade
4,3.4604,space,1.8661,0,21,21,330,1,,,5b88002a7bb9e90001f0703f,6439162c336d88e0677eb167,2023-04-14_10h00.42.065,PRaM,2021.2.3,Win32,59.84440455,61b8f3437b89212fae0dfade
8,1.8192,space,0.2007,0,22,22,331,1,,,5b88002a7bb9e90001f0703f,6439162c336d88e0677eb167,2023-04-14_10h00.42.065,PRaM,2021.2.3,Win32,59.84440455,61b8f3437b89212fae0dfade
4,3.9263,space,2.3339,0,23,23,98,1,,,5b88002a7bb9e90001f0703f,6439162c336d88e0677eb167,2023-04-14_10h00.42.065,PRaM,2021.2.3,Win32,59.84440455,61b8f3437b89212fae0dfade
2,2.6466,space,0.8987,0,24,24,262,1,,,5b88002a7bb9e90001f0703f,6439162c336d88e0677eb167,2023-04-14_10h00.42.065,PRaM,2021.2.3,Win32,59.84440455,61b8f3437b89212fae0dfade
3,1.8567,space,0.4509,0,25,25,299,1,,,5b88002a7bb9e90001f0703f,6439162c336d88e0677eb167,2023-04-14_10h00.42.065,PRaM,2021.2.3,Win32,59.84440455,61b8f3437b89212fae0dfade
2,1.8469,space,0.2739,0,26,26,210,1,,,5b88002a7bb9e90001f0703f,6439162c336d88e0677eb167,2023-04-14_10h00.42.065,PRaM,2021.2.3,Win32,59.84440455,61b8f3437b89212fae0dfade
6,2.7089,space,1.0368,0,27,27,271,1,,,5b88002a7bb9e90001f0703f,6439162c336d88e0677eb167,2023-04-14_10h00.42.065,PRaM,2021.2.3,Win32,59.84440455,61b8f3437b89212fae0dfade
4,3.205,space,1.5987,0,28,28,342,1,,,5b88002a7bb9e90001f0703f,6439162c336d88e0677eb167,2023-04-14_10h00.42.065,PRaM,2021.2.3,Win32,59.84440455,61b8f3437b89212fae0dfade
7,2.222,space,0.6067,0,29,29,277,1,,,5b88002a7bb9e90001f0703f,6439162c336d88e0677eb167,2023-04-14_10h00.42.065,PRaM,2021.2.3,Win32,59.84440455,61b8f3437b89212fae0dfade
5,1.9933,space,0.3865,0,30,30,40,1,,,5b88002a7bb9e90001f0703f,6439162c336d88e0677eb167,2023-04-14_10h00.42.065,PRaM,2021.2.3,Win32,59.84440455,61b8f3437b89212fae0dfade
4,2.869,space,1.1898,0,31,31,69,1,,,5b88002a7bb9e90001f0703f,6439162c336d88e0677eb167,2023-04-14_10h00.42.065,PRaM,2021.2.3,Win32,59.84440455,61b8f3437b89212fae0dfade
5,2.5363,space,0.8451,0,32,32,364,1,,,5b88002a7bb9e90001f0703f,6439162c336d88e0677eb167,2023-04-14_10h00.42.065,PRaM,2021.2.3,Win32,59.84440455,61b8f3437b89212fae0dfade
6,2.5206,space,0.742,0,33,33,288,1,,,5b88002a7bb9e90001f0703f,6439162c336d88e0677eb167,2023-04-14_10h00.42.065,PRaM,2021.2.3,Win32,59.84440455,61b8f3437b89212fae0dfade
5,2.3589,space,0.784,0,34,34,72,1,,,5b88002a7bb9e90001f0703f,6439162c336d88e0677eb167,2023-04-14_10h00.42.065,PRaM,2021.2.3,Win32,59.84440455,61b8f3437b89212fae0dfade
5,1.958,space,0.3526,0,35,35,205,1,,,5b88002a7bb9e90001f0703f,6439162c336d88e0677eb167,2023-04-14_10h00.42.065,PRaM,2021.2.3,Win32,59.84440455,61b8f3437b89212fae0dfade
1,2.1355,space,0.5166,0,36,36,109,1,,,5b88002a7bb9e90001f0703f,6439162c336d88e0677eb167,2023-04-14_10h00.42.065,PRaM,2021.2.3,Win32,59.84440455,61b8f3437b89212fae0dfade
4,2.4534,space,0.8857,0,37,37,104,1,,,5b88002a7bb9e90001f0703f,6439162c336d88e0677eb167,2023-04-14_10h00.42.065,PRaM,2021.2.3,Win32,59.84440455,61b8f3437b89212fae0dfade
5,3.2043,space,1.4906,0,38,38,6,1,,,5b88002a7bb9e90001f0703f,6439162c336d88e0677eb167,2023-04-14_10h00.42.065,PRaM,2021.2.3,Win32,59.84440455,61b8f3437b89212fae0dfade
8,2.9368,space,1.2728,0,39,39,267,1,,,5b88002a7bb9e90001f0703f,6439162c336d88e0677eb167,2023-04-14_10h00.42.065,PRaM,2021.2.3,Win32,59.84440455,61b8f3437b89212fae0dfade
1,4.2971,space,2.6978,0,40,40,27,1,,,5b88002a7bb9e90001f0703f,6439162c336d88e0677eb167,2023-04-14_10h00.42.065,PRaM,2021.2.3,Win32,59.84440455,61b8f3437b89212fae0dfade
4,2.3386,space,0.6824,0,41,41,249,1,,,5b88002a7bb9e90001f0703f,6439162c336d88e0677eb167,2023-04-14_10h00.42.065,PRaM,2021.2.3,Win32,59.84440455,61b8f3437b89212fae0dfade
1,2.4222,space,0.7781,0,42,42,67,1,,,5b88002a7bb9e90001f0703f,6439162c336d88e0677eb167,2023-04-14_10h00.42.065,PRaM,2021.2.3,Win32,59.84440455,61b8f3437b89212fae0dfade
2,2.754,space,1.1839,0,43,43,44,1,,,5b88002a7bb9e90001f0703f,6439162c336d88e0677eb167,2023-04-14_10h00.42.065,PRaM,2021.2.3,Win32,59.84440455,61b8f3437b89212fae0dfade
5,2.5304,space,0.8772,0,44,44,7,1,,,5b88002a7bb9e90001f0703f,6439162c336d88e0677eb167,2023-04-14_10h00.42.065,PRaM,2021.2.3,Win32,59.84440455,61b8f3437b89212fae0dfade
1,1.7765,space,0.1667,0,45,45,11,1,,,5b88002a7bb9e90001f0703f,6439162c336d88e0677eb167,2023-04-14_10h00.42.065,PRaM,2021.2.3,Win32,59.84440455,61b8f3437b89212fae0dfade
2,2.1859,space,0.5786,0,46,46,125,1,,,5b88002a7bb9e90001f0703f,6439162c336d88e0677eb167,2023-04-14_10h00.42.065,PRaM,2021.2.3,Win32,59.84440455,61b8f3437b89212fae0dfade
5,1.7749,space,0.1236,0,47,47,332,1,,,5b88002a7bb9e90001f0703f,6439162c336d88e0677eb167,2023-04-14_10h00.42.065,PRaM,2021.2.3,Win32,59.84440455,61b8f3437b89212fae0dfade
4,3.5089,space,1.8815,0,48,48,242,1,,,5b88002a7bb9e90001f0703f,6439162c336d88e0677eb167,2023-04-14_10h00.42.065,PRaM,2021.2.3,Win32,59.84440455,61b8f3437b89212fae0dfade
7,2.4739,space,0.8478,0,49,49,59,1,,,5b88002a7bb9e90001f0703f,6439162c336d88e0677eb167,2023-04-14_10h00.42.065,PRaM,2021.2.3,Win32,59.84440455,61b8f3437b89212fae0dfade
5,2.1744,space,0.5055,0,50,50,135,1,,,5b88002a7bb9e90001f0703f,6439162c336d88e0677eb167,2023-04-14_10h00.42.065,PRaM,2021.2.3,Win32,59.84440455,61b8f3437b89212fae0dfade
5,2.1236,space,0.4117,0,51,51,213,1,,,5b88002a7bb9e90001f0703f,6439162c336d88e0677eb167,2023-04-14_10h00.42.065,PRaM,2021.2.3,Win32,59.84440455,61b8f3437b89212fae0dfade
2,1.8539,space,0.2055,0,52,52,79,1,,,5b88002a7bb9e90001f0703f,6439162c336d88e0677eb167,2023-04-14_10h00.42.065,PRaM,2021.2.3,Win32,59.84440455,61b8f3437b89212fae0dfade
3,3.0574,space,1.366,0,53,53,373,1,,,5b88002a7bb9e90001f0703f,6439162c336d88e0677eb167,2023-04-14_10h00.42.065,PRaM,2021.2.3,Win32,59.84440455,61b8f3437b89212fae0dfade
2,2.0521,space,0.388,0,54,54,235,1,,,5b88002a7bb9e90001f0703f,6439162c336d88e0677eb167,2023-04-14_10h00.42.065,PRaM,2021.2.3,Win32,59.84440455,61b8f3437b89212fae0dfade
1,3.5742,space,1.9691,0,55,55,295,1,,,5b88002a7bb9e90001f0703f,6439162c336d88e0677eb167,2023-04-14_10h00.42.065,PRaM,2021.2.3,Win32,59.84440455,61b8f3437b89212fae0dfade
6,2.252,space,0.5688,0,56,56,200,1,,,5b88002a7bb9e90001f0703f,6439162c336d88e0677eb167,2023-04-14_10h00.42.065,PRaM,2021.2.3,Win32,59.84440455,61b8f3437b89212fae0dfade
6,2.5114,space,0.871,0,57,57,159,1,,,5b88002a7bb9e90001f0703f,6439162c336d88e0677eb167,2023-04-14_10h00.42.065,PRaM,2021.2.3,Win32,59.84440455,61b8f3437b89212fae0dfade
7,2.9041,space,1.2366,0,58,58,147,1,,,5b88002a7bb9e90001f0703f,6439162c336d88e0677eb167,2023-04-14_10h00.42.065,PRaM,2021.2.3,Win32,59.84440455,61b8f3437b89212fae0dfade
6,1.7781,space,0.1588,0,59,59,351,1,,,5b88002a7bb9e90001f0703f,6439162c336d88e0677eb167,2023-04-14_10h00.42.065,PRaM,2021.2.3,Win32,59.84440455,61b8f3437b89212fae0dfade
4,2.6762,space,1.001,0,60,60,185,1,,,5b88002a7bb9e90001f0703f,6439162c336d88e0677eb167,2023-04-14_10h00.42.065,PRaM,2021.2.3,Win32,59.84440455,61b8f3437b89212fae0dfade
3,2.2785,space,0.6223,0,61,61,322,1,,,5b88002a7bb9e90001f0703f,6439162c336d88e0677eb167,2023-04-14_10h00.42.065,PRaM,2021.2.3,Win32,59.84440455,61b8f3437b89212fae0dfade
6,2.563,space,0.9037,0,62,62,294,1,,,5b88002a7bb9e90001f0703f,6439162c336d88e0677eb167,2023-04-14_10h00.42.065,PRaM,2021.2.3,Win32,59.84440455,61b8f3437b89212fae0dfade
2,3.5395,space,1.8481,0,63,63,9,1,,,5b88002a7bb9e90001f0703f,6439162c336d88e0677eb167,2023-04-14_10h00.42.065,PRaM,2021.2.3,Win32,59.84440455,61b8f3437b89212fae0dfade
1,2.7925,space,1.0987,0,64,64,275,1,,,5b88002a7bb9e90001f0703f,6439162c336d88e0677eb167,2023-04-14_10h00.42.065,PRaM,2021.2.3,Win32,59.84440455,61b8f3437b89212fae0dfade
5,2.0692,space,0.4364,0,65,65,252,1,,,5b88002a7bb9e90001f0703f,6439162c336d88e0677eb167,2023-04-14_10h00.42.065,PRaM,2021.2.3,Win32,59.84440455,61b8f3437b89212fae0dfade
6,1.7218,space,0.0219,0,66,66,305,1,,,5b88002a7bb9e90001f0703f,6439162c336d88e0677eb167,2023-04-14_10h00.42.065,PRaM,2021.2.3,Win32,59.84440455,61b8f3437b89212fae0dfade
8,1.767,space,0.0646,0,67,67,291,1,,,5b88002a7bb9e90001f0703f,6439162c336d88e0677eb167,2023-04-14_10h00.42.065,PRaM,2021.2.3,Win32,59.84440455,61b8f3437b89212fae0dfade
2,2.0447,space,0.3333,0,68,68,129,1,,,5b88002a7bb9e90001f0703f,6439162c336d88e0677eb167,2023-04-14_10h00.42.065,PRaM,2021.2.3,Win32,59.84440455,61b8f3437b89212fae0dfade
5,1.9403,space,0.2525,0,69,69,370,1,,,5b88002a7bb9e90001f0703f,6439162c336d88e0677eb167,2023-04-14_10h00.42.065,PRaM,2021.2.3,Win32,59.84440455,61b8f3437b89212fae0dfade
2,2.1046,space,0.4727,0,70,70,87,1,,,5b88002a7bb9e90001f0703f,6439162c336d88e0677eb167,2023-04-14_10h00.42.065,PRaM,2021.2.3,Win32,59.84440455,61b8f3437b89212fae0dfade
7,1.903,space,0.2332,0,71,71,355,1,,,5b88002a7bb9e90001f0703f,6439162c336d88e0677eb167,2023-04-14_10h00.42.065,PRaM,2021.2.3,Win32,59.84440455,61b8f3437b89212fae0dfade
2,2.0413,space,0.4547,0,72,72,1,1,,,5b88002a7bb9e90001f0703f,6439162c336d88e0677eb167,2023-04-14_10h00.42.065,PRaM,2021.2.3,Win32,59.84440455,61b8f3437b89212fae0dfade
5,2.3302,space,0.6773,0,73,73,99,1,,,5b88002a7bb9e90001f0703f,6439162c336d88e0677eb167,2023-04-14_10h00.42.065,PRaM,2021.2.3,Win32,59.84440455,61b8f3437b89212fae0dfade
7,4.6075,space,2.8872,0,74,74,107,1,,,5b88002a7bb9e90001f0703f,6439162c336d88e0677eb167,2023-04-14_10h00.42.065,PRaM,2021.2.3,Win32,59.84440455,61b8f3437b89212fae0dfade
5,2.1068,space,0.4299,0,75,75,310,1,,,5b88002a7bb9e90001f0703f,6439162c336d88e0677eb167,2023-04-14_10h00.42.065,PRaM,2021.2.3,Win32,59.84440455,61b8f3437b89212fae0dfade
3,3.4087,space,1.8026,0,76,76,161,1,,,5b88002a7bb9e90001f0703f,6439162c336d88e0677eb167,2023-04-14_10h00.42.065,PRaM,2021.2.3,Win32,59.84440455,61b8f3437b89212fae0dfade
2,2.165,space,0.4521,0,77,77,121,1,,,5b88002a7bb9e90001f0703f,6439162c336d88e0677eb167,2023-04-14_10h00.42.065,PRaM,2021.2.3,Win32,59.84440455,61b8f3437b89212fae0dfade
7,2.2254,space,0.5574,0,78,78,348,1,,,5b88002a7bb9e90001f0703f,6439162c336d88e0677eb167,2023-04-14_10h00.42.065,PRaM,2021.2.3,Win32,59.84440455,61b8f3437b89212fae0dfade
1,2.0678,space,0.409,0,79,79,94,1,,,5b88002a7bb9e90001f0703f,6439162c336d88e0677eb167,2023-04-14_10h00.42.065,PRaM,2021.2.3,Win32,59.84440455,61b8f3437b89212fae0dfade
2,1.954,space,0.2683,0,80,80,374,1,,,5b88002a7bb9e90001f0703f,6439162c336d88e0677eb167,2023-04-14_10h00.42.065,PRaM,2021.2.3,Win32,59.84440455,61b8f3437b89212fae0dfade
6,2.0562,space,0.385,0,81,81,38,1,,,5b88002a7bb9e90001f0703f,6439162c336d88e0677eb167,2023-04-14_10h00.42.065,PRaM,2021.2.3,Win32,59.84440455,61b8f3437b89212fae0dfade
5,2.0036,space,0.3275,0,82,82,263,1,,,5b88002a7bb9e90001f0703f,6439162c336d88e0677eb167,2023-04-14_10h00.42.065,PRaM,2021.2.3,Win32,59.84440455,61b8f3437b89212fae0dfade
1,2.1526,space,0.4687,0,83,83,231,1,,,5b88002a7bb9e90001f0703f,6439162c336d88e0677eb167,2023-04-14_10h00.42.065,PRaM,2021.2.3,Win32,59.84440455,61b8f3437b89212fae0dfade
3,2.8881,space,1.1423,0,84,84,365,1,,,5b88002a7bb9e90001f0703f,6439162c336d88e0677eb167,2023-04-14_10h00.42.065,PRaM,2021.2.3,Win32,59.84440455,61b8f3437b89212fae0dfade
2,2.0882,space,0.3701,0,85,85,54,1,,,5b88002a7bb9e90001f0703f,6439162c336d88e0677eb167,2023-04-14_10h00.42.065,PRaM,2021.2.3,Win32,59.84440455,61b8f3437b89212fae0dfade
3,2.3811,space,0.7096,0,86,86,286,1,,,5b88002a7bb9e90001f0703f,6439162c336d88e0677eb167,2023-04-14_10h00.42.065,PRaM,2021.2.3,Win32,59.84440455,61b8f3437b89212fae0dfade
5,2.0738,space,0.334,0,87,87,62,1,,,5b88002a7bb9e90001f0703f,6439162c336d88e0677eb167,2023-04-14_10h00.42.065,PRaM,2021.2.3,Win32,59.84440455,61b8f3437b89212fae0dfade
5,2.0697,space,0.3761,0,88,88,175,1,,,5b88002a7bb9e90001f0703f,6439162c336d88e0677eb167,2023-04-14_10h00.42.065,PRaM,2021.2.3,Win32,59.84440455,61b8f3437b89212fae0dfade
7,1.9477,space,0.2269,0,89,89,347,1,,,5b88002a7bb9e90001f0703f,6439162c336d88e0677eb167,2023-04-14_10h00.42.065,PRaM,2021.2.3,Win32,59.84440455,61b8f3437b89212fae0dfade
6,3.4521,space,1.806,0,90,90,217,1,,,5b88002a7bb9e90001f0703f,6439162c336d88e0677eb167,2023-04-14_10h00.42.065,PRaM,2021.2.3,Win32,59.84440455,61b8f3437b89212fae0dfade
2,1.9705,space,0.2337,0,91,91,35,1,,,5b88002a7bb9e90001f0703f,6439162c336d88e0677eb167,2023-04-14_10h00.42.065,PRaM,2021.2.3,Win32,59.84440455,61b8f3437b89212fae0dfade
3,2.3695,space,0.7096,0,92,92,88,1,,,5b88002a7bb9e90001f0703f,6439162c336d88e0677eb167,2023-04-14_10h00.42.065,PRaM,2021.2.3,Win32,59.84440455,61b8f3437b89212fae0dfade
3,1.6873,space,0.0249,0,93,93,93,1,,,5b88002a7bb9e90001f0703f,6439162c336d88e0677eb167,2023-04-14_10h00.42.065,PRaM,2021.2.3,Win32,59.84440455,61b8f3437b89212fae0dfade
1,2.3383,space,0.7108,0,94,94,49,1,,,5b88002a7bb9e90001f0703f,6439162c336d88e0677eb167,2023-04-14_10h00.42.065,PRaM,2021.2.3,Win32,59.84440455,61b8f3437b89212fae0dfade
3,2.1453,space,0.5439,0,95,95,287,1,,,5b88002a7bb9e90001f0703f,6439162c336d88e0677eb167,2023-04-14_10h00.42.065,PRaM,2021.2.3,Win32,59.84440455,61b8f3437b89212fae0dfade
5,1.8399,space,0.203,0,96,96,119,1,,,5b88002a7bb9e90001f0703f,6439162c336d88e0677eb167,2023-04-14_10h00.42.065,PRaM,2021.2.3,Win32,59.84440455,61b8f3437b89212fae0dfade
5,1.4184,space,2.348,0,97,97,367,1,,,5b88002a7bb9e90001f0703f,6439162c336d88e0677eb167,2023-04-14_10h00.42.065,PRaM,2021.2.3,Win32,59.84440455,61b8f3437b89212fae0dfade
3,3.0205,space,1.2821,0,98,98,180,1,,,5b88002a7bb9e90001f0703f,6439162c336d88e0677eb167,2023-04-14_10h00.42.065,PRaM,2021.2.3,Win32,59.84440455,61b8f3437b89212fae0dfade
6,1.4709,space,1.3124,0,99,99,279,1,,,5b88002a7bb9e90001f0703f,6439162c336d88e0677eb167,2023-04-14_10h00.42.065,PRaM,2021.2.3,Win32,59.84440455,61b8f3437b89212fae0dfade
2,2.851,space,1.158,0,100,100,218,1,,,5b88002a7bb9e90001f0703f,6439162c336d88e0677eb167,2023-04-14_10h00.42.065,PRaM,2021.2.3,Win32,59.84440455,61b8f3437b89212fae0dfade
1,1.514,space,0.8821,0,101,101,188,1,,,5b88002a7bb9e90001f0703f,6439162c336d88e0677eb167,2023-04-14_10h00.42.065,PRaM,2021.2.3,Win32,59.84440455,61b8f3437b89212fae0dfade
2,3.3136,space,1.7244,0,102,102,97,1,,,5b88002a7bb9e90001f0703f,6439162c336d88e0677eb167,2023-04-14_10h00.42.065,PRaM,2021.2.3,Win32,59.84440455,61b8f3437b89212fae0dfade
6,1.6254,space,0.9507,0,103,103,301,1,,,5b88002a7bb9e90001f0703f,6439162c336d88e0677eb167,2023-04-14_10h00.42.065,PRaM,2021.2.3,Win32,59.84440455,61b8f3437b89212fae0dfade
2,1.6454,space,0.1392,0,104,104,41,1,,,5b88002a7bb9e90001f0703f,6439162c336d88e0677eb167,2023-04-14_10h00.42.065,PRaM,2021.2.3,Win32,59.84440455,61b8f3437b89212fae0dfade
4,2.1787,space,0.5432,0,105,105,83,1,,,5b88002a7bb9e90001f0703f,6439162c336d88e0677eb167,2023-04-14_10h00.42.065,PRaM,2021.2.3,Win32,59.84440455,61b8f3437b89212fae0dfade
1,1.6705,space,0.0169,0,106,106,82,1,,,5b88002a7bb9e90001f0703f,6439162c336d88e0677eb167,2023-04-14_10h00.42.065,PRaM,2021.2.3,Win32,59.84440455,61b8f3437b89212fae0dfade
4,1.9958,space,0.3511,0,107,107,248,1,,,5b88002a7bb9e90001f0703f,6439162c336d88e0677eb167,2023-04-14_10h00.42.065,PRaM,2021.2.3,Win32,59.84440455,61b8f3437b89212fae0dfade
2,2.3193,space,0.6342,0,108,108,101,1,,,5b88002a7bb9e90001f0703f,6439162c336d88e0677eb167,2023-04-14_10h00.42.065,PRaM,2021.2.3,Win32,59.84440455,61b8f3437b89212fae0dfade
3,3.5859,space,1.9531,0,109,109,220,1,,,5b88002a7bb9e90001f0703f,6439162c336d88e0677eb167,2023-04-14_10h00.42.065,PRaM,2021.2.3,Win32,59.84440455,61b8f3437b89212fae0dfade
2,3.2527,space,1.5846,0,110,110,292,1,,,5b88002a7bb9e90001f0703f,6439162c336d88e0677eb167,2023-04-14_10h00.42.065,PRaM,2021.2.3,Win32,59.84440455,61b8f3437b89212fae0dfade
6,1.8893,space,0.2262,0,111,111,152,1,,,5b88002a7bb9e90001f0703f,6439162c336d88e0677eb167,2023-04-14_10h00.42.065,PRaM,2021.2.3,Win32,59.84440455,61b8f3437b89212fae0dfade
6,1.7376,space,0.038,0,112,112,178,1,,,5b88002a7bb9e90001f0703f,6439162c336d88e0677eb167,2023-04-14_10h00.42.065,PRaM,2021.2.3,Win32,59.84440455,61b8f3437b89212fae0dfade
5,1.829,space,0.0766,0,113,113,182,1,,,5b88002a7bb9e90001f0703f,6439162c336d88e0677eb167,2023-04-14_10h00.42.065,PRaM,2021.2.3,Win32,59.84440455,61b8f3437b89212fae0dfade
2,3.118,space,1.4866,0,114,114,318,1,,,5b88002a7bb9e90001f0703f,6439162c336d88e0677eb167,2023-04-14_10h00.42.065,PRaM,2021.2.3,Win32,59.84440455,61b8f3437b89212fae0dfade
3,2.6149,space,0.8829,0,115,115,132,1,,,5b88002a7bb9e90001f0703f,6439162c336d88e0677eb167,2023-04-14_10h00.42.065,PRaM,2021.2.3,Win32,59.84440455,61b8f3437b89212fae0dfade
2,2.7734,space,1.1705,0,116,116,309,1,,,5b88002a7bb9e90001f0703f,6439162c336d88e0677eb167,2023-04-14_10h00.42.065,PRaM,2021.2.3,Win32,59.84440455,61b8f3437b89212fae0dfade
1,2.2354,space,0.55,0,117,117,243,1,,,5b88002a7bb9e90001f0703f,6439162c336d88e0677eb167,2023-04-14_10h00.42.065,PRaM,2021.2.3,Win32,59.84440455,61b8f3437b89212fae0dfade
1,1.7717,space,0.0896,0,118,118,316,1,,,5b88002a7bb9e90001f0703f,6439162c336d88e0677eb167,2023-04-14_10h00.42.065,PRaM,2021.2.3,Win32,59.84440455,61b8f3437b89212fae0dfade
2,2.0196,space,0.3549,0,119,119,233,1,,,5b88002a7bb9e90001f0703f,6439162c336d88e0677eb167,2023-04-14_10h00.42.065,PRaM,2021.2.3,Win32,59.84440455,61b8f3437b89212fae0dfade
1,2.5034,space,0.8704,0,120,120,250,1,,,5b88002a7bb9e90001f0703f,6439162c336d88e0677eb167,2023-04-14_10h00.42.065,PRaM,2021.2.3,Win32,59.84440455,61b8f3437b89212fae0dfade
1,3.3085,space,1.6477,0,121,121,184,1,,,5b88002a7bb9e90001f0703f,6439162c336d88e0677eb167,2023-04-14_10h00.42.065,PRaM,2021.2.3,Win32,59.84440455,61b8f3437b89212fae0dfade
2,2.387,space,0.7222,0,122,122,269,1,,,5b88002a7bb9e90001f0703f,6439162c336d88e0677eb167,2023-04-14_10h00.42.065,PRaM,2021.2.3,Win32,59.84440455,61b8f3437b89212fae0dfade
4,1.4434,space,1.8012,0,123,123,341,1,,,5b88002a7bb9e90001f0703f,6439162c336d88e0677eb167,2023-04-14_10h00.42.065,PRaM,2021.2.3,Win32,59.84440455,61b8f3437b89212fae0dfade
3,1.694,space,0.0681,0,124,124,68,1,,,5b88002a7bb9e90001f0703f,6439162c336d88e0677eb167,2023-04-14_10h00.42.065,PRaM,2021.2.3,Win32,59.84440455,61b8f3437b89212fae0dfade
5,2.2296,space,0.5943,0,125,125,21,1,,,5b88002a7bb9e90001f0703f,6439162c336d88e0677eb167,2023-04-14_10h00.42.065,PRaM,2021.2.3,Win32,59.84440455,61b8f3437b89212fae0dfade
4,1.9543,space,0.2811,0,126,126,150,1,,,5b88002a7bb9e90001f0703f,6439162c336d88e0677eb167,2023-04-14_10h00.42.065,PRaM,2021.2.3,Win32,59.84440455,61b8f3437b89212fae0dfade
7,2.1953,space,0.59,0,127,127,278,1,,,5b88002a7bb9e90001f0703f,6439162c336d88e0677eb167,2023-04-14_10h00.42.065,PRaM,2021.2.3,Win32,59.84440455,61b8f3437b89212fae0dfade
2,2.1529,space,0.5056,0,128,128,34,1,,,5b88002a7bb9e90001f0703f,6439162c336d88e0677eb167,2023-04-14_10h00.42.065,PRaM,2021.2.3,Win32,59.84440455,61b8f3437b89212fae0dfade
5,1.702,space,2.1716,0,129,129,26,1,,,5b88002a7bb9e90001f0703f,6439162c336d88e0677eb167,2023-04-14_10h00.42.065,PRaM,2021.2.3,Win32,59.84440455,61b8f3437b89212fae0dfade
2,2.9359,space,1.276,0,130,130,155,1,,,5b88002a7bb9e90001f0703f,6439162c336d88e0677eb167,2023-04-14_10h00.42.065,PRaM,2021.2.3,Win32,59.84440455,61b8f3437b89212fae0dfade
8,1.8705,space,0.1848,0,131,131,197,1,,,5b88002a7bb9e90001f0703f,6439162c336d88e0677eb167,2023-04-14_10h00.42.065,PRaM,2021.2.3,Win32,59.84440455,61b8f3437b89212fae0dfade
5,2.6369,space,0.9544,0,132,132,144,1,,,5b88002a7bb9e90001f0703f,6439162c336d88e0677eb167,2023-04-14_10h00.42.065,PRaM,2021.2.3,Win32,59.84440455,61b8f3437b89212fae0dfade
6,1.7774,space,0.1026,0,133,133,12,1,,,5b88002a7bb9e90001f0703f,6439162c336d88e0677eb167,2023-04-14_10h00.42.065,PRaM,2021.2.3,Win32,59.84440455,61b8f3437b89212fae0dfade
1,2.4184,space,0.7728,0,134,134,36,1,,,5b88002a7bb9e90001f0703f,6439162c336d88e0677eb167,2023-04-14_10h00.42.065,PRaM,2021.2.3,Win32,59.84440455,61b8f3437b89212fae0dfade
5,1.9404,space,0.267,0,135,135,280,1,,,5b88002a7bb9e90001f0703f,6439162c336d88e0677eb167,2023-04-14_10h00.42.065,PRaM,2021.2.3,Win32,59.84440455,61b8f3437b89212fae0dfade
7,1.786,space,0.1254,0,136,136,209,1,,,5b88002a7bb9e90001f0703f,6439162c336d88e0677eb167,2023-04-14_10h00.42.065,PRaM,2021.2.3,Win32,59.84440455,61b8f3437b89212fae0dfade
5,1.9348,space,0.2393,0,137,137,228,1,,,5b88002a7bb9e90001f0703f,6439162c336d88e0677eb167,2023-04-14_10h00.42.065,PRaM,2021.2.3,Win32,59.84440455,61b8f3437b89212fae0dfade
2,2.3293,space,0.647,0,138,138,100,1,,,5b88002a7bb9e90001f0703f,6439162c336d88e0677eb167,2023-04-14_10h00.42.065,PRaM,2021.2.3,Win32,59.84440455,61b8f3437b89212fae0dfade
1,2.1196,space,0.4838,0,139,139,300,1,,,5b88002a7bb9e90001f0703f,6439162c336d88e0677eb167,2023-04-14_10h00.42.065,PRaM,2021.2.3,Win32,59.84440455,61b8f3437b89212fae0dfade
1,1.8633,space,0.2421,0,140,140,50,1,,,5b88002a7bb9e90001f0703f,6439162c336d88e0677eb167,2023-04-14_10h00.42.065,PRaM,2021.2.3,Win32,59.84440455,61b8f3437b89212fae0dfade
1,1.6387,space,1.82,0,141,141,241,1,,,5b88002a7bb9e90001f0703f,6439162c336d88e0677eb167,2023-04-14_10h00.42.065,PRaM,2021.2.3,Win32,59.84440455,61b8f3437b89212fae0dfade
7,1.8795,space,0.1659,0,142,142,53,1,,,5b88002a7bb9e90001f0703f,6439162c336d88e0677eb167,2023-04-14_10h00.42.065,PRaM,2021.2.3,Win32,59.84440455,61b8f3437b89212fae0dfade
1,2.0845,space,0.4396,0,143,143,251,1,,,5b88002a7bb9e90001f0703f,6439162c336d88e0677eb167,2023-04-14_10h00.42.065,PRaM,2021.2.3,Win32,59.84440455,61b8f3437b89212fae0dfade
6,2.0852,space,0.4202,0,144,144,51,1,,,5b88002a7bb9e90001f0703f,6439162c336d88e0677eb167,2023-04-14_10h00.42.065,PRaM,2021.2.3,Win32,59.84440455,61b8f3437b89212fae0dfade
2,1.5879,space,0.4962,0,145,145,247,1,,,5b88002a7bb9e90001f0703f,6439162c336d88e0677eb167,2023-04-14_10h00.42.065,PRaM,2021.2.3,Win32,59.84440455,61b8f3437b89212fae0dfade
4,1.7537,space,0.0404,0,146,146,336,1,,,5b88002a7bb9e90001f0703f,6439162c336d88e0677eb167,2023-04-14_10h00.42.065,PRaM,2021.2.3,Win32,59.84440455,61b8f3437b89212fae0dfade
5,2.3303,space,0.615,0,147,147,352,1,,,5b88002a7bb9e90001f0703f,6439162c336d88e0677eb167,2023-04-14_10h00.42.065,PRaM,2021.2.3,Win32,59.84440455,61b8f3437b89212fae0dfade
7,2.1406,space,0.4832,0,148,148,154,1,,,5b88002a7bb9e90001f0703f,6439162c336d88e0677eb167,2023-04-14_10h00.42.065,PRaM,2021.2.3,Win32,59.84440455,61b8f3437b89212fae0dfade
5,1.6881,space,0.0094,0,149,149,356,1,,,5b88002a7bb9e90001f0703f,6439162c336d88e0677eb167,2023-04-14_10h00.42.065,PRaM,2021.2.3,Win32,59.84440455,61b8f3437b89212fae0dfade
1,1.8594,space,0.1503,0,150,150,13,1,,,5b88002a7bb9e90001f0703f,6439162c336d88e0677eb167,2023-04-14_10h00.42.065,PRaM,2021.2.3,Win32,59.84440455,61b8f3437b89212fae0dfade
1,1.6085,space,0.4981,0,151,151,353,1,,,5b88002a7bb9e90001f0703f,6439162c336d88e0677eb167,2023-04-14_10h00.42.065,PRaM,2021.2.3,Win32,59.84440455,61b8f3437b89212fae0dfade
3,1.7789,space,0.1527,0,152,152,170,1,,,5b88002a7bb9e90001f0703f,6439162c336d88e0677eb167,2023-04-14_10h00.42.065,PRaM,2021.2.3,Win32,59.84440455,61b8f3437b89212fae0dfade
7,1.7364,space,0.0505,0,153,153,14,1,,,5b88002a7bb9e90001f0703f,6439162c336d88e0677eb167,2023-04-14_10h00.42.065,PRaM,2021.2.3,Win32,59.84440455,61b8f3437b89212fae0dfade
6,1.938,space,0.2514,0,154,154,151,1,,,5b88002a7bb9e90001f0703f,6439162c336d88e0677eb167,2023-04-14_10h00.42.065,PRaM,2021.2.3,Win32,59.84440455,61b8f3437b89212fae0dfade
6,1.7695,space,0.084,0,155,155,142,1,,,5b88002a7bb9e90001f0703f,6439162c336d88e0677eb167,2023-04-14_10h00.42.065,PRaM,2021.2.3,Win32,59.84440455,61b8f3437b89212fae0dfade
7,1.6126,space,0.3213,0,156,156,296,1,,,5b88002a7bb9e90001f0703f,6439162c336d88e0677eb167,2023-04-14_10h00.42.065,PRaM,2021.2.3,Win32,59.84440455,61b8f3437b89212fae0dfade
6,1.3212,space,0.1117,0,157,157,297,1,,,5b88002a7bb9e90001f0703f,6439162c336d88e0677eb167,2023-04-14_10h00.42.065,PRaM,2021.2.3,Win32,59.84440455,61b8f3437b89212fae0dfade
4,1.8543,space,0.1552,0,158,158,371,1,,,5b88002a7bb9e90001f0703f,6439162c336d88e0677eb167,2023-04-14_10h00.42.065,PRaM,2021.2.3,Win32,59.84440455,61b8f3437b89212fae0dfade
2,1.8963,space,0.2503,0,159,159,77,1,,,5b88002a7bb9e90001f0703f,6439162c336d88e0677eb167,2023-04-14_10h00.42.065,PRaM,2021.2.3,Win32,59.84440455,61b8f3437b89212fae0dfade
5,2.2946,space,0.6265,0,160,160,156,1,,,5b88002a7bb9e90001f0703f,6439162c336d88e0677eb167,2023-04-14_10h00.42.065,PRaM,2021.2.3,Win32,59.84440455,61b8f3437b89212fae0dfade
3,2.1573,space,0.4676,0,161,161,47,1,,,5b88002a7bb9e90001f0703f,6439162c336d88e0677eb167,2023-04-14_10h00.42.065,PRaM,2021.2.3,Win32,59.84440455,61b8f3437b89212fae0dfade
5,1.8398,space,0.2052,0,162,162,33,1,,,5b88002a7bb9e90001f0703f,6439162c336d88e0677eb167,2023-04-14_10h00.42.065,PRaM,2021.2.3,Win32,59.84440455,61b8f3437b89212fae0dfade
4,2.4061,space,0.7888,0,163,163,190,1,,,5b88002a7bb9e90001f0703f,6439162c336d88e0677eb167,2023-04-14_10h00.42.065,PRaM,2021.2.3,Win32,59.84440455,61b8f3437b89212fae0dfade
3,2.0097,space,0.3691,0,164,164,48,1,,,5b88002a7bb9e90001f0703f,6439162c336d88e0677eb167,2023-04-14_10h00.42.065,PRaM,2021.2.3,Win32,59.84440455,61b8f3437b89212fae0dfade
7,1.7306,space,0.0913,0,165,165,333,1,,,5b88002a7bb9e90001f0703f,6439162c336d88e0677eb167,2023-04-14_10h00.42.065,PRaM,2021.2.3,Win32,59.84440455,61b8f3437b89212fae0dfade
7,1.9118,space,0.2849,0,166,166,268,1,,,5b88002a7bb9e90001f0703f,6439162c336d88e0677eb167,2023-04-14_10h00.42.065,PRaM,2021.2.3,Win32,59.84440455,61b8f3437b89212fae0dfade
3,2.4028,space,0.757,0,167,167,308,1,,,5b88002a7bb9e90001f0703f,6439162c336d88e0677eb167,2023-04-14_10h00.42.065,PRaM,2021.2.3,Win32,59.84440455,61b8f3437b89212fae0dfade
2,1.9429,space,0.2292,0,168,168,238,1,,,5b88002a7bb9e90001f0703f,6439162c336d88e0677eb167,2023-04-14_10h00.42.065,PRaM,2021.2.3,Win32,59.84440455,61b8f3437b89212fae0dfade
5,2.3236,space,0.6597,0,169,169,313,1,,,5b88002a7bb9e90001f0703f,6439162c336d88e0677eb167,2023-04-14_10h00.42.065,PRaM,2021.2.3,Win32,59.84440455,61b8f3437b89212fae0dfade
4,1.7622,space,0.0614,0,170,170,145,1,,,5b88002a7bb9e90001f0703f,6439162c336d88e0677eb167,2023-04-14_10h00.42.065,PRaM,2021.2.3,Win32,59.84440455,61b8f3437b89212fae0dfade
7,1.6026,space,0.4517,0,171,171,196,1,,,5b88002a7bb9e90001f0703f,6439162c336d88e0677eb167,2023-04-14_10h00.42.065,PRaM,2021.2.3,Win32,59.84440455,61b8f3437b89212fae0dfade
3,1.8758,space,0.1928,0,172,172,376,1,,,5b88002a7bb9e90001f0703f,6439162c336d88e0677eb167,2023-04-14_10h00.42.065,PRaM,2021.2.3,Win32,59.84440455,61b8f3437b89212fae0dfade
2,1.9595,space,0.2363,0,173,173,160,1,,,5b88002a7bb9e90001f0703f,6439162c336d88e0677eb167,2023-04-14_10h00.42.065,PRaM,2021.2.3,Win32,59.84440455,61b8f3437b89212fae0dfade
6,1.8149,space,0.1534,0,174,174,179,1,,,5b88002a7bb9e90001f0703f,6439162c336d88e0677eb167,2023-04-14_10h00.42.065,PRaM,2021.2.3,Win32,59.84440455,61b8f3437b89212fae0dfade
7,1.5711,space,0.4328,0,175,175,17,1,,,5b88002a7bb9e90001f0703f,6439162c336d88e0677eb167,2023-04-14_10h00.42.065,PRaM,2021.2.3,Win32,59.84440455,61b8f3437b89212fae0dfade
5,1.4943,space,0.2074,0,176,176,362,1,,,5b88002a7bb9e90001f0703f,6439162c336d88e0677eb167,2023-04-14_10h00.42.065,PRaM,2021.2.3,Win32,59.84440455,61b8f3437b89212fae0dfade
7,2.0791,space,0.387,0,177,177,319,1,,,5b88002a7bb9e90001f0703f,6439162c336d88e0677eb167,2023-04-14_10h00.42.065,PRaM,2021.2.3,Win32,59.84440455,61b8f3437b89212fae0dfade
2,2.5591,space,0.8724,0,178,178,65,1,,,5b88002a7bb9e90001f0703f,6439162c336d88e0677eb167,2023-04-14_10h00.42.065,PRaM,2021.2.3,Win32,59.84440455,61b8f3437b89212fae0dfade
6,1.7456,space,0.0863,0,179,179,302,1,,,5b88002a7bb9e90001f0703f,6439162c336d88e0677eb167,2023-04-14_10h00.42.065,PRaM,2021.2.3,Win32,59.84440455,61b8f3437b89212fae0dfade
4,2.4076,space,0.7704,0,180,180,343,1,,,5b88002a7bb9e90001f0703f,6439162c336d88e0677eb167,2023-04-14_10h00.42.065,PRaM,2021.2.3,Win32,59.84440455,61b8f3437b89212fae0dfade
2,1.5483,space,0.3727,0,181,181,91,1,,,5b88002a7bb9e90001f0703f,6439162c336d88e0677eb167,2023-04-14_10h00.42.065,PRaM,2021.2.3,Win32,59.84440455,61b8f3437b89212fae0dfade
7,1.842,space,0.1861,0,182,182,75,1,,,5b88002a7bb9e90001f0703f,6439162c336d88e0677eb167,2023-04-14_10h00.42.065,PRaM,2021.2.3,Win32,59.84440455,61b8f3437b89212fae0dfade
8,1.4197,space,0.1555,0,183,183,335,1,,,5b88002a7bb9e90001f0703f,6439162c336d88e0677eb167,2023-04-14_10h00.42.065,PRaM,2021.2.3,Win32,59.84440455,61b8f3437b89212fae0dfade
6,1.7141,space,0.0701,0,184,184,112,1,,,5b88002a7bb9e90001f0703f,6439162c336d88e0677eb167,2023-04-14_10h00.42.065,PRaM,2021.2.3,Win32,59.84440455,61b8f3437b89212fae0dfade
5,1.4252,space,0.3038,0,185,185,29,1,,,5b88002a7bb9e90001f0703f,6439162c336d88e0677eb167,2023-04-14_10h00.42.065,PRaM,2021.2.3,Win32,59.84440455,61b8f3437b89212fae0dfade
6,2.1614,space,0.5226,0,186,186,76,1,,,5b88002a7bb9e90001f0703f,6439162c336d88e0677eb167,2023-04-14_10h00.42.065,PRaM,2021.2.3,Win32,59.84440455,61b8f3437b89212fae0dfade
5,1.853,space,0.1679,0,187,187,60,1,,,5b88002a7bb9e90001f0703f,6439162c336d88e0677eb167,2023-04-14_10h00.42.065,PRaM,2021.2.3,Win32,59.84440455,61b8f3437b89212fae0dfade
7,1.6136,space,0.4026,0,188,188,42,1,,,5b88002a7bb9e90001f0703f,6439162c336d88e0677eb167,2023-04-14_10h00.42.065,PRaM,2021.2.3,Win32,59.84440455,61b8f3437b89212fae0dfade
8,2.007,space,0.5437,0,189,189,345,1,,,5b88002a7bb9e90001f0703f,6439162c336d88e0677eb167,2023-04-14_10h00.42.065,PRaM,2021.2.3,Win32,59.84440455,61b8f3437b89212fae0dfade
5,1.9278,space,0.2515,0,190,190,204,1,,,5b88002a7bb9e90001f0703f,6439162c336d88e0677eb167,2023-04-14_10h00.42.065,PRaM,2021.2.3,Win32,59.84440455,61b8f3437b89212fae0dfade
8,1.9014,space,0.2563,0,191,191,208,1,,,5b88002a7bb9e90001f0703f,6439162c336d88e0677eb167,2023-04-14_10h00.42.065,PRaM,2021.2.3,Win32,59.84440455,61b8f3437b89212fae0dfade
5,2.6953,space,0.9829,0,192,192,183,1,,,5b88002a7bb9e90001f0703f,6439162c336d88e0677eb167,2023-04-14_10h00.42.065,PRaM,2021.2.3,Win32,59.84440455,61b8f3437b89212fae0dfade
2,2.1384,space,0.4487,0,193,193,257,1,,,5b88002a7bb9e90001f0703f,6439162c336d88e0677eb167,2023-04-14_10h00.42.065,PRaM,2021.2.3,Win32,59.84440455,61b8f3437b89212fae0dfade
4,2.3929,space,0.7071,0,194,194,358,1,,,5b88002a7bb9e90001f0703f,6439162c336d88e0677eb167,2023-04-14_10h00.42.065,PRaM,2021.2.3,Win32,59.84440455,61b8f3437b89212fae0dfade
6,2.6332,space,0.9364,0,195,195,298,1,,,5b88002a7bb9e90001f0703f,6439162c336d88e0677eb167,2023-04-14_10h00.42.065,PRaM,2021.2.3,Win32,59.84440455,61b8f3437b89212fae0dfade
6,1.7077,space,0.4168,0,196,196,126,1,,,5b88002a7bb9e90001f0703f,6439162c336d88e0677eb167,2023-04-14_10h00.42.065,PRaM,2021.2.3,Win32,59.84440455,61b8f3437b89212fae0dfade
5,1.3194,space,0.0818,0,197,197,177,1,,,5b88002a7bb9e90001f0703f,6439162c336d88e0677eb167,2023-04-14_10h00.42.065,PRaM,2021.2.3,Win32,59.84440455,61b8f3437b89212fae0dfade
5,2.357,space,0.671,0,198,198,141,1,,,5b88002a7bb9e90001f0703f,6439162c336d88e0677eb167,2023-04-14_10h00.42.065,PRaM,2021.2.3,Win32,59.84440455,61b8f3437b89212fae0dfade
2,1.7199,space,0.0681,0,199,199,78,1,,,5b88002a7bb9e90001f0703f,6439162c336d88e0677eb167,2023-04-14_10h00.42.065,PRaM,2021.2.3,Win32,59.84440455,61b8f3437b89212fae0dfade
9,2.5585,space,0.903,0,200,200,320,1,,,5b88002a7bb9e90001f0703f,6439162c336d88e0677eb167,2023-04-14_10h00.42.065,PRaM,2021.2.3,Win32,59.84440455,61b8f3437b89212fae0dfade
1,2.702,space,1.0608,0,201,201,329,1,,,5b88002a7bb9e90001f0703f,6439162c336d88e0677eb167,2023-04-14_10h00.42.065,PRaM,2021.2.3,Win32,59.84440455,61b8f3437b89212fae0dfade
3,2.1941,space,0.4682,0,202,202,272,1,,,5b88002a7bb9e90001f0703f,6439162c336d88e0677eb167,2023-04-14_10h00.42.065,PRaM,2021.2.3,Win32,59.84440455,61b8f3437b89212fae0dfade
7,1.8972,space,0.2082,0,203,203,222,1,,,5b88002a7bb9e90001f0703f,6439162c336d88e0677eb167,2023-04-14_10h00.42.065,PRaM,2021.2.3,Win32,59.84440455,61b8f3437b89212fae0dfade
2,2.1731,space,0.4577,0,204,204,203,1,,,5b88002a7bb9e90001f0703f,6439162c336d88e0677eb167,2023-04-14_10h00.42.065,PRaM,2021.2.3,Win32,59.84440455,61b8f3437b89212fae0dfade
4,1.8579,space,0.1857,0,205,205,25,1,,,5b88002a7bb9e90001f0703f,6439162c336d88e0677eb167,2023-04-14_10h00.42.065,PRaM,2021.2.3,Win32,59.84440455,61b8f3437b89212fae0dfade
1,1.811,space,0.1205,0,206,206,71,1,,,5b88002a7bb9e90001f0703f,6439162c336d88e0677eb167,2023-04-14_10h00.42.065,PRaM,2021.2.3,Win32,59.84440455,61b8f3437b89212fae0dfade
1,1.7881,space,0.1251,0,207,207,253,1,,,5b88002a7bb9e90001f0703f,6439162c336d88e0677eb167,2023-04-14_10h00.42.065,PRaM,2021.2.3,Win32,59.84440455,61b8f3437b89212fae0dfade
1,1.1645,space,0.1756,0,208,208,256,1,,,5b88002a7bb9e90001f0703f,6439162c336d88e0677eb167,2023-04-14_10h00.42.065,PRaM,2021.2.3,Win32,59.84440455,61b8f3437b89212fae0dfade
1,1.3316,space,0.1012,0,209,209,260,1,,,5b88002a7bb9e90001f0703f,6439162c336d88e0677eb167,2023-04-14_10h00.42.065,PRaM,2021.2.3,Win32,59.84440455,61b8f3437b89212fae0dfade
3,1.913,space,0.2016,0,210,210,232,1,,,5b88002a7bb9e90001f0703f,6439162c336d88e0677eb167,2023-04-14_10h00.42.065,PRaM,2021.2.3,Win32,59.84440455,61b8f3437b89212fae0dfade
2,1.645,space,0.5093,0,211,211,224,1,,,5b88002a7bb9e90001f0703f,6439162c336d88e0677eb167,2023-04-14_10h00.42.065,PRaM,2021.2.3,Win32,59.84440455,61b8f3437b89212fae0dfade
2,1.5174,space,0.206,0,212,212,15,1,,,5b88002a7bb9e90001f0703f,6439162c336d88e0677eb167,2023-04-14_10h00.42.065,PRaM,2021.2.3,Win32,59.84440455,61b8f3437b89212fae0dfade
1,1.5255,space,0.2037,0,213,213,5,1,,,5b88002a7bb9e90001f0703f,6439162c336d88e0677eb167,2023-04-14_10h00.42.065,PRaM,2021.2.3,Win32,59.84440455,61b8f3437b89212fae0dfade
4,2.0292,space,0.3511,0,214,214,215,1,,,5b88002a7bb9e90001f0703f,6439162c336d88e0677eb167,2023-04-14_10h00.42.065,PRaM,2021.2.3,Win32,59.84440455,61b8f3437b89212fae0dfade
2,1.8596,space,0.1767,0,215,215,57,1,,,5b88002a7bb9e90001f0703f,6439162c336d88e0677eb167,2023-04-14_10h00.42.065,PRaM,2021.2.3,Win32,59.84440455,61b8f3437b89212fae0dfade
5,2.0049,space,0.2995,0,216,216,244,1,,,5b88002a7bb9e90001f0703f,6439162c336d88e0677eb167,2023-04-14_10h00.42.065,PRaM,2021.2.3,Win32,59.84440455,61b8f3437b89212fae0dfade
3,3.7993,space,2.0921,0,217,217,344,1,,,5b88002a7bb9e90001f0703f,6439162c336d88e0677eb167,2023-04-14_10h00.42.065,PRaM,2021.2.3,Win32,59.84440455,61b8f3437b89212fae0dfade
4,1.9524,space,0.1699,0,218,218,80,1,,,5b88002a7bb9e90001f0703f,6439162c336d88e0677eb167,2023-04-14_10h00.42.065,PRaM,2021.2.3,Win32,59.84440455,61b8f3437b89212fae0dfade
2,1.5377,space,0.3226,0,219,219,206,1,,,5b88002a7bb9e90001f0703f,6439162c336d88e0677eb167,2023-04-14_10h00.42.065,PRaM,2021.2.3,Win32,59.84440455,61b8f3437b89212fae0dfade
1,1.672,space,0.006,0,220,220,354,1,,,5b88002a7bb9e90001f0703f,6439162c336d88e0677eb167,2023-04-14_10h00.42.065,PRaM,2021.2.3,Win32,59.84440455,61b8f3437b89212fae0dfade
5,1.6582,space,0.3238,0,221,221,363,1,,,5b88002a7bb9e90001f0703f,6439162c336d88e0677eb167,2023-04-14_10h00.42.065,PRaM,2021.2.3,Win32,59.84440455,61b8f3437b89212fae0dfade
4,3.4168,space,1.7397,0,222,222,124,1,,,5b88002a7bb9e90001f0703f,6439162c336d88e0677eb167,2023-04-14_10h00.42.065,PRaM,2021.2.3,Win32,59.84440455,61b8f3437b89212fae0dfade
4,1.5725,space,0.269,0,223,223,201,1,,,5b88002a7bb9e90001f0703f,6439162c336d88e0677eb167,2023-04-14_10h00.42.065,PRaM,2021.2.3,Win32,59.84440455,61b8f3437b89212fae0dfade
2,2.2446,space,0.7839,0,224,224,169,1,,,5b88002a7bb9e90001f0703f,6439162c336d88e0677eb167,2023-04-14_10h00.42.065,PRaM,2021.2.3,Win32,59.84440455,61b8f3437b89212fae0dfade
6,1.654,space,0.3618,0,225,225,123,1,,,5b88002a7bb9e90001f0703f,6439162c336d88e0677eb167,2023-04-14_10h00.42.065,PRaM,2021.2.3,Win32,59.84440455,61b8f3437b89212fae0dfade
7,2.1255,space,0.5506,0,226,226,115,1,,,5b88002a7bb9e90001f0703f,6439162c336d88e0677eb167,2023-04-14_10h00.42.065,PRaM,2021.2.3,Win32,59.84440455,61b8f3437b89212fae0dfade
2,2.1284,space,0.4385,0,227,227,111,1,,,5b88002a7bb9e90001f0703f,6439162c336d88e0677eb167,2023-04-14_10h00.42.065,PRaM,2021.2.3,Win32,59.84440455,61b8f3437b89212fae0dfade
8,1.587,space,0.2382,0,228,228,350,1,,,5b88002a7bb9e90001f0703f,6439162c336d88e0677eb167,2023-04-14_10h00.42.065,PRaM,2021.2.3,Win32,59.84440455,61b8f3437b89212fae0dfade
6,1.3981,space,0.0452,0,229,229,140,1,,,5b88002a7bb9e90001f0703f,6439162c336d88e0677eb167,2023-04-14_10h00.42.065,PRaM,2021.2.3,Win32,59.84440455,61b8f3437b89212fae0dfade
6,1.7208,space,0.0352,0,230,230,290,1,,,5b88002a7bb9e90001f0703f,6439162c336d88e0677eb167,2023-04-14_10h00.42.065,PRaM,2021.2.3,Win32,59.84440455,61b8f3437b89212fae0dfade
6,1.3397,space,0.0913,0,231,231,173,1,,,5b88002a7bb9e90001f0703f,6439162c336d88e0677eb167,2023-04-14_10h00.42.065,PRaM,2021.2.3,Win32,59.84440455,61b8f3437b89212fae0dfade
4,1.4899,space,0.2045,0,232,232,281,1,,,5b88002a7bb9e90001f0703f,6439162c336d88e0677eb167,2023-04-14_10h00.42.065,PRaM,2021.2.3,Win32,59.84440455,61b8f3437b89212fae0dfade
2,5.8062,space,4.0774,0,233,233,31,1,,,5b88002a7bb9e90001f0703f,6439162c336d88e0677eb167,2023-04-14_10h00.42.065,PRaM,2021.2.3,Win32,59.84440455,61b8f3437b89212fae0dfade
1,3.0393,space,1.3711,0,234,234,81,1,,,5b88002a7bb9e90001f0703f,6439162c336d88e0677eb167,2023-04-14_10h00.42.065,PRaM,2021.2.3,Win32,59.84440455,61b8f3437b89212fae0dfade
2,3.8286,space,2.1502,0,235,235,324,1,,,5b88002a7bb9e90001f0703f,6439162c336d88e0677eb167,2023-04-14_10h00.42.065,PRaM,2021.2.3,Win32,59.84440455,61b8f3437b89212fae0dfade
7,2.1025,space,0.4111,0,236,236,226,1,,,5b88002a7bb9e90001f0703f,6439162c336d88e0677eb167,2023-04-14_10h00.42.065,PRaM,2021.2.3,Win32,59.84440455,61b8f3437b89212fae0dfade
6,1.661,space,0.432,0,237,237,181,1,,,5b88002a7bb9e90001f0703f,6439162c336d88e0677eb167,2023-04-14_10h00.42.065,PRaM,2021.2.3,Win32,59.84440455,61b8f3437b89212fae0dfade
5,1.7979,space,0.1034,0,238,238,339,1,,,5b88002a7bb9e90001f0703f,6439162c336d88e0677eb167,2023-04-14_10h00.42.065,PRaM,2021.2.3,Win32,59.84440455,61b8f3437b89212fae0dfade
6,2.0554,space,0.3571,0,239,239,120,1,,,5b88002a7bb9e90001f0703f,6439162c336d88e0677eb167,2023-04-14_10h00.42.065,PRaM,2021.2.3,Win32,59.84440455,61b8f3437b89212fae0dfade
6,1.904,space,0.2126,0,240,240,134,1,,,5b88002a7bb9e90001f0703f,6439162c336d88e0677eb167,2023-04-14_10h00.42.065,PRaM,2021.2.3,Win32,59.84440455,61b8f3437b89212fae0dfade
5,2.4919,space,0.7743,0,241,241,368,1,,,5b88002a7bb9e90001f0703f,6439162c336d88e0677eb167,2023-04-14_10h00.42.065,PRaM,2021.2.3,Win32,59.84440455,61b8f3437b89212fae0dfade
7,1.53,space,0.3352,0,242,242,139,1,,,5b88002a7bb9e90001f0703f,6439162c336d88e0677eb167,2023-04-14_10h00.42.065,PRaM,2021.2.3,Win32,59.84440455,61b8f3437b89212fae0dfade
2,2.3678,space,0.6826,0,243,243,199,1,,,5b88002a7bb9e90001f0703f,6439162c336d88e0677eb167,2023-04-14_10h00.42.065,PRaM,2021.2.3,Win32,59.84440455,61b8f3437b89212fae0dfade
7,2.0944,space,0.399,0,244,244,254,1,,,5b88002a7bb9e90001f0703f,6439162c336d88e0677eb167,2023-04-14_10h00.42.065,PRaM,2021.2.3,Win32,59.84440455,61b8f3437b89212fae0dfade
5,2.7081,space,1.0172,0,245,245,214,1,,,5b88002a7bb9e90001f0703f,6439162c336d88e0677eb167,2023-04-14_10h00.42.065,PRaM,2021.2.3,Win32,59.84440455,61b8f3437b89212fae0dfade
3,1.6713,space,0.4505,0,246,246,157,1,,,5b88002a7bb9e90001f0703f,6439162c336d88e0677eb167,2023-04-14_10h00.42.065,PRaM,2021.2.3,Win32,59.84440455,61b8f3437b89212fae0dfade
2,4.4509,space,2.7723,0,247,247,85,1,,,5b88002a7bb9e90001f0703f,6439162c336d88e0677eb167,2023-04-14_10h00.42.065,PRaM,2021.2.3,Win32,59.84440455,61b8f3437b89212fae0dfade
2,1.6416,space,0.3905,0,248,248,168,1,,,5b88002a7bb9e90001f0703f,6439162c336d88e0677eb167,2023-04-14_10h00.42.065,PRaM,2021.2.3,Win32,59.84440455,61b8f3437b89212fae0dfade
1,1.9278,space,0.2383,0,249,249,164,1,,,5b88002a7bb9e90001f0703f,6439162c336d88e0677eb167,2023-04-14_10h00.42.065,PRaM,2021.2.3,Win32,59.84440455,61b8f3437b89212fae0dfade
3,1.6845,space,0.0019,0,250,250,312,1,,,5b88002a7bb9e90001f0703f,6439162c336d88e0677eb167,2023-04-14_10h00.42.065,PRaM,2021.2.3,Win32,59.84440455,61b8f3437b89212fae0dfade
2,2.4884,space,0.787,0,251,251,237,1,,,5b88002a7bb9e90001f0703f,6439162c336d88e0677eb167,2023-04-14_10h00.42.065,PRaM,2021.2.3,Win32,59.84440455,61b8f3437b89212fae0dfade
5,1.6814,space,0.35,0,252,252,328,1,,,5b88002a7bb9e90001f0703f,6439162c336d88e0677eb167,2023-04-14_10h00.42.065,PRaM,2021.2.3,Win32,59.84440455,61b8f3437b89212fae0dfade
2,2.4752,space,0.7504,0,253,253,193,1,,,5b88002a7bb9e90001f0703f,6439162c336d88e0677eb167,2023-04-14_10h00.42.065,PRaM,2021.2.3,Win32,59.84440455,61b8f3437b89212fae0dfade
3,1.9427,space,0.2667,0,254,254,148,1,,,5b88002a7bb9e90001f0703f,6439162c336d88e0677eb167,2023-04-14_10h00.42.065,PRaM,2021.2.3,Win32,59.84440455,61b8f3437b89212fae0dfade
2,2.942,space,1.2019,0,255,255,130,1,,,5b88002a7bb9e90001f0703f,6439162c336d88e0677eb167,2023-04-14_10h00.42.065,PRaM,2021.2.3,Win32,59.84440455,61b8f3437b89212fae0dfade
7,1.8255,space,0.1712,0,256,256,192,1,,,5b88002a7bb9e90001f0703f,6439162c336d88e0677eb167,2023-04-14_10h00.42.065,PRaM,2021.2.3,Win32,59.84440455,61b8f3437b89212fae0dfade
2,1.5595,space,0.3636,0,257,257,284,1,,,5b88002a7bb9e90001f0703f,6439162c336d88e0677eb167,2023-04-14_10h00.42.065,PRaM,2021.2.3,Win32,59.84440455,61b8f3437b89212fae0dfade
7,1.4377,space,0.2722,0,258,258,276,1,,,5b88002a7bb9e90001f0703f,6439162c336d88e0677eb167,2023-04-14_10h00.42.065,PRaM,2021.2.3,Win32,59.84440455,61b8f3437b89212fae0dfade
5,1.7515,space,0.4605,0,259,259,311,1,,,5b88002a7bb9e90001f0703f,6439162c336d88e0677eb167,2023-04-14_10h00.42.065,PRaM,2021.2.3,Win32,59.84440455,61b8f3437b89212fae0dfade
1,2.4044,space,0.7331,0,260,260,95,1,,,5b88002a7bb9e90001f0703f,6439162c336d88e0677eb167,2023-04-14_10h00.42.065,PRaM,2021.2.3,Win32,59.84440455,61b8f3437b89212fae0dfade
5,2.028,space,0.3526,0,261,261,45,1,,,5b88002a7bb9e90001f0703f,6439162c336d88e0677eb167,2023-04-14_10h00.42.065,PRaM,2021.2.3,Win32,59.84440455,61b8f3437b89212fae0dfade
5,1.3974,space,0.1594,0,262,262,102,1,,,5b88002a7bb9e90001f0703f,6439162c336d88e0677eb167,2023-04-14_10h00.42.065,PRaM,2021.2.3,Win32,59.84440455,61b8f3437b89212fae0dfade
2,1.8192,space,0.1316,0,263,263,171,1,,,5b88002a7bb9e90001f0703f,6439162c336d88e0677eb167,2023-04-14_10h00.42.065,PRaM,2021.2.3,Win32,59.84440455,61b8f3437b89212fae0dfade
7,1.6193,space,0.336,0,264,264,216,1,,,5b88002a7bb9e90001f0703f,6439162c336d88e0677eb167,2023-04-14_10h00.42.065,PRaM,2021.2.3,Win32,59.84440455,61b8f3437b89212fae0dfade
9,1.4036,space,0.2005,0,265,265,323,1,,,5b88002a7bb9e90001f0703f,6439162c336d88e0677eb167,2023-04-14_10h00.42.065,PRaM,2021.2.3,Win32,59.84440455,61b8f3437b89212fae0dfade
5,1.7532,space,0.0503,0,266,266,158,1,,,5b88002a7bb9e90001f0703f,6439162c336d88e0677eb167,2023-04-14_10h00.42.065,PRaM,2021.2.3,Win32,59.84440455,61b8f3437b89212fae0dfade
5,1.457,space,0.3691,0,267,267,187,1,,,5b88002a7bb9e90001f0703f,6439162c336d88e0677eb167,2023-04-14_10h00.42.065,PRaM,2021.2.3,Win32,59.84440455,61b8f3437b89212fae0dfade
7,1.2728,space,0.0986,0,268,268,326,1,,,5b88002a7bb9e90001f0703f,6439162c336d88e0677eb167,2023-04-14_10h00.42.065,PRaM,2021.2.3,Win32,59.84440455,61b8f3437b89212fae0dfade
1,1.9012,space,0.2244,0,269,269,10,1,,,5b88002a7bb9e90001f0703f,6439162c336d88e0677eb167,2023-04-14_10h00.42.065,PRaM,2021.2.3,Win32,59.84440455,61b8f3437b89212fae0dfade
1,4.7824,space,3.1068,0,270,270,189,1,,,5b88002a7bb9e90001f0703f,6439162c336d88e0677eb167,2023-04-14_10h00.42.065,PRaM,2021.2.3,Win32,59.84440455,61b8f3437b89212fae0dfade
5,2.0365,space,0.3529,0,271,271,32,1,,,5b88002a7bb9e90001f0703f,6439162c336d88e0677eb167,2023-04-14_10h00.42.065,PRaM,2021.2.3,Win32,59.84440455,61b8f3437b89212fae0dfade
1,1.3904,space,0.194,0,272,272,28,1,,,5b88002a7bb9e90001f0703f,6439162c336d88e0677eb167,2023-04-14_10h00.42.065,PRaM,2021.2.3,Win32,59.84440455,61b8f3437b89212fae0dfade
1,1.5587,space,0.2393,0,273,273,317,1,,,5b88002a7bb9e90001f0703f,6439162c336d88e0677eb167,2023-04-14_10h00.42.065,PRaM,2021.2.3,Win32,59.84440455,61b8f3437b89212fae0dfade
3,1.9125,space,0.2613,0,274,274,191,1,,,5b88002a7bb9e90001f0703f,6439162c336d88e0677eb167,2023-04-14_10h00.42.065,PRaM,2021.2.3,Win32,59.84440455,61b8f3437b89212fae0dfade
2,2.0578,space,0.3545,0,275,275,106,1,,,5b88002a7bb9e90001f0703f,6439162c336d88e0677eb167,2023-04-14_10h00.42.065,PRaM,2021.2.3,Win32,59.84440455,61b8f3437b89212fae0dfade
6,1.3861,space,0.1506,0,276,276,0,1,,,5b88002a7bb9e90001f0703f,6439162c336d88e0677eb167,2023-04-14_10h00.42.065,PRaM,2021.2.3,Win32,59.84440455,61b8f3437b89212fae0dfade
5,2.2519,space,0.5082,0,277,277,165,1,,,5b88002a7bb9e90001f0703f,6439162c336d88e0677eb167,2023-04-14_10h00.42.065,PRaM,2021.2.3,Win32,59.84440455,61b8f3437b89212fae0dfade
6,1.7383,space,0.0368,0,278,278,194,1,,,5b88002a7bb9e90001f0703f,6439162c336d88e0677eb167,2023-04-14_10h00.42.065,PRaM,2021.2.3,Win32,59.84440455,61b8f3437b89212fae0dfade
6,1.7946,space,0.0691,0,279,279,304,1,,,5b88002a7bb9e90001f0703f,6439162c336d88e0677eb167,2023-04-14_10h00.42.065,PRaM,2021.2.3,Win32,59.84440455,61b8f3437b89212fae0dfade
1,1.7451,space,0.0423,0,280,280,23,1,,,5b88002a7bb9e90001f0703f,6439162c336d88e0677eb167,2023-04-14_10h00.42.065,PRaM,2021.2.3,Win32,59.84440455,61b8f3437b89212fae0dfade
5,1.4645,space,0.1026,0,281,281,19,1,,,5b88002a7bb9e90001f0703f,6439162c336d88e0677eb167,2023-04-14_10h00.42.065,PRaM,2021.2.3,Win32,59.84440455,61b8f3437b89212fae0dfade
1,2.3571,space,0.735,0,282,282,234,1,,,5b88002a7bb9e90001f0703f,6439162c336d88e0677eb167,2023-04-14_10h00.42.065,PRaM,2021.2.3,Win32,59.84440455,61b8f3437b89212fae0dfade
3,1.6107,space,0.3014,0,283,283,369,1,,,5b88002a7bb9e90001f0703f,6439162c336d88e0677eb167,2023-04-14_10h00.42.065,PRaM,2021.2.3,Win32,59.84440455,61b8f3437b89212fae0dfade
6,1.7078,space,0.0029,0,284,284,261,1,,,5b88002a7bb9e90001f0703f,6439162c336d88e0677eb167,2023-04-14_10h00.42.065,PRaM,2021.2.3,Win32,59.84440455,61b8f3437b89212fae0dfade
2,1.5354,space,0.2703,0,285,285,172,1,,,5b88002a7bb9e90001f0703f,6439162c336d88e0677eb167,2023-04-14_10h00.42.065,PRaM,2021.2.3,Win32,59.84440455,61b8f3437b89212fae0dfade
7,1.619,space,0.4357,0,286,286,74,1,,,5b88002a7bb9e90001f0703f,6439162c336d88e0677eb167,2023-04-14_10h00.42.065,PRaM,2021.2.3,Win32,59.84440455,61b8f3437b89212fae0dfade
8,1.2409,space,0.4776,0,287,287,372,1,,,5b88002a7bb9e90001f0703f,6439162c336d88e0677eb167,2023-04-14_10h00.42.065,PRaM,2021.2.3,Win32,59.84440455,61b8f3437b89212fae0dfade
5,1.7383,space,0.0565,0,288,288,46,1,,,5b88002a7bb9e90001f0703f,6439162c336d88e0677eb167,2023-04-14_10h00.42.065,PRaM,2021.2.3,Win32,59.84440455,61b8f3437b89212fae0dfade
1,2.1208,space,0.423,0,289,289,359,1,,,5b88002a7bb9e90001f0703f,6439162c336d88e0677eb167,2023-04-14_10h00.42.065,PRaM,2021.2.3,Win32,59.84440455,61b8f3437b89212fae0dfade
4,2.1352,space,0.4504,0,290,290,282,1,,,5b88002a7bb9e90001f0703f,6439162c336d88e0677eb167,2023-04-14_10h00.42.065,PRaM,2021.2.3,Win32,59.84440455,61b8f3437b89212fae0dfade
5,1.6358,space,0.4014,0,291,291,198,1,,,5b88002a7bb9e90001f0703f,6439162c336d88e0677eb167,2023-04-14_10h00.42.065,PRaM,2021.2.3,Win32,59.84440455,61b8f3437b89212fae0dfade
1,1.9432,space,0.2861,0,292,292,37,1,,,5b88002a7bb9e90001f0703f,6439162c336d88e0677eb167,2023-04-14_10h00.42.065,PRaM,2021.2.3,Win32,59.84440455,61b8f3437b89212fae0dfade
1,1.486,space,0.1911,0,293,293,229,1,,,5b88002a7bb9e90001f0703f,6439162c336d88e0677eb167,2023-04-14_10h00.42.065,PRaM,2021.2.3,Win32,59.84440455,61b8f3437b89212fae0dfade
5,1.6438,space,0.3406,0,294,294,346,1,,,5b88002a7bb9e90001f0703f,6439162c336d88e0677eb167,2023-04-14_10h00.42.065,PRaM,2021.2.3,Win32,59.84440455,61b8f3437b89212fae0dfade
4,1.9704,space,0.2374,0,295,295,105,1,,,5b88002a7bb9e90001f0703f,6439162c336d88e0677eb167,2023-04-14_10h00.42.065,PRaM,2021.2.3,Win32,59.84440455,61b8f3437b89212fae0dfade
7,1.47,space,0.3067,0,296,296,20,1,,,5b88002a7bb9e90001f0703f,6439162c336d88e0677eb167,2023-04-14_10h00.42.065,PRaM,2021.2.3,Win32,59.84440455,61b8f3437b89212fae0dfade
6,2.0928,space,0.3856,0,297,297,3,1,,,5b88002a7bb9e90001f0703f,6439162c336d88e0677eb167,2023-04-14_10h00.42.065,PRaM,2021.2.3,Win32,59.84440455,61b8f3437b89212fae0dfade
5,1.9116,space,0.2196,0,298,298,314,1,,,5b88002a7bb9e90001f0703f,6439162c336d88e0677eb167,2023-04-14_10h00.42.065,PRaM,2021.2.3,Win32,59.84440455,61b8f3437b89212fae0dfade
1,2.2012,space,0.5018,0,299,299,103,1,,,5b88002a7bb9e90001f0703f,6439162c336d88e0677eb167,2023-04-14_10h00.42.065,PRaM,2021.2.3,Win32,59.84440455,61b8f3437b89212fae0dfade
5,2.0889,space,0.3851,0,300,300,340,1,,,5b88002a7bb9e90001f0703f,6439162c336d88e0677eb167,2023-04-14_10h00.42.065,PRaM,2021.2.3,Win32,59.84440455,61b8f3437b89212fae0dfade
4,2.394,space,0.6889,0,301,301,321,1,,,5b88002a7bb9e90001f0703f,6439162c336d88e0677eb167,2023-04-14_10h00.42.065,PRaM,2021.2.3,Win32,59.84440455,61b8f3437b89212fae0dfade
7,1.9743,space,0.3013,0,302,302,166,1,,,5b88002a7bb9e90001f0703f,6439162c336d88e0677eb167,2023-04-14_10h00.42.065,PRaM,2021.2.3,Win32,59.84440455,61b8f3437b89212fae0dfade
5,1.5713,space,0.2932,0,303,303,4,1,,,5b88002a7bb9e90001f0703f,6439162c336d88e0677eb167,2023-04-14_10h00.42.065,PRaM,2021.2.3,Win32,59.84440455,61b8f3437b89212fae0dfade
1,1.5933,space,0.3201,0,304,304,2,1,,,5b88002a7bb9e90001f0703f,6439162c336d88e0677eb167,2023-04-14_10h00.42.065,PRaM,2021.2.3,Win32,59.84440455,61b8f3437b89212fae0dfade
6,1.6449,space,0.3869,0,305,305,66,1,,,5b88002a7bb9e90001f0703f,6439162c336d88e0677eb167,2023-04-14_10h00.42.065,PRaM,2021.2.3,Win32,59.84440455,61b8f3437b89212fae0dfade
7,1.796,space,0.0606,0,306,306,239,1,,,5b88002a7bb9e90001f0703f,6439162c336d88e0677eb167,2023-04-14_10h00.42.065,PRaM,2021.2.3,Win32,59.84440455,61b8f3437b89212fae0dfade
8,1.4449,space,0.1276,0,307,307,325,1,,,5b88002a7bb9e90001f0703f,6439162c336d88e0677eb167,2023-04-14_10h00.42.065,PRaM,2021.2.3,Win32,59.84440455,61b8f3437b89212fae0dfade
1,1.9393,space,0.252,0,308,308,128,1,,,5b88002a7bb9e90001f0703f,6439162c336d88e0677eb167,2023-04-14_10h00.42.065,PRaM,2021.2.3,Win32,59.84440455,61b8f3437b89212fae0dfade
1,1.3034,space,0.0872,0,309,309,8,1,,,5b88002a7bb9e90001f0703f,6439162c336d88e0677eb167,2023-04-14_10h00.42.065,PRaM,2021.2.3,Win32,59.84440455,61b8f3437b89212fae0dfade
4,1.6544,space,0.3678,0,310,310,149,1,,,5b88002a7bb9e90001f0703f,6439162c336d88e0677eb167,2023-04-14_10h00.42.065,PRaM,2021.2.3,Win32,59.84440455,61b8f3437b89212fae0dfade
6,1.9508,space,0.2888,0,311,311,64,1,,,5b88002a7bb9e90001f0703f,6439162c336d88e0677eb167,2023-04-14_10h00.42.065,PRaM,2021.2.3,Win32,59.84440455,61b8f3437b89212fae0dfade
6,1.0303,space,0.201,0,312,312,61,1,,,5b88002a7bb9e90001f0703f,6439162c336d88e0677eb167,2023-04-14_10h00.42.065,PRaM,2021.2.3,Win32,59.84440455,61b8f3437b89212fae0dfade
5,3.2014,space,1.4904,0,313,313,22,1,,,5b88002a7bb9e90001f0703f,6439162c336d88e0677eb167,2023-04-14_10h00.42.065,PRaM,2021.2.3,Win32,59.84440455,61b8f3437b89212fae0dfade
1,1.8061,space,0.0845,0,314,314,122,1,,,5b88002a7bb9e90001f0703f,6439162c336d88e0677eb167,2023-04-14_10h00.42.065,PRaM,2021.2.3,Win32,59.84440455,61b8f3437b89212fae0dfade
3,1.7091,space,0.1381,0,315,315,90,1,,,5b88002a7bb9e90001f0703f,6439162c336d88e0677eb167,2023-04-14_10h00.42.065,PRaM,2021.2.3,Win32,59.84440455,61b8f3437b89212fae0dfade
1,1.8288,space,0.1521,0,316,316,131,1,,,5b88002a7bb9e90001f0703f,6439162c336d88e0677eb167,2023-04-14_10h00.42.065,PRaM,2021.2.3,Win32,59.84440455,61b8f3437b89212fae0dfade
1,1.8587,space,0.1942,0,317,317,127,1,,,5b88002a7bb9e90001f0703f,6439162c336d88e0677eb167,2023-04-14_10h00.42.065,PRaM,2021.2.3,Win32,59.84440455,61b8f3437b89212fae0dfade
5,2.223,space,0.5751,0,318,318,274,1,,,5b88002a7bb9e90001f0703f,6439162c336d88e0677eb167,2023-04-14_10h00.42.065,PRaM,2021.2.3,Win32,59.84440455,61b8f3437b89212fae0dfade
5,1.1888,space,0.3505,0,319,319,114,1,,,5b88002a7bb9e90001f0703f,6439162c336d88e0677eb167,2023-04-14_10h00.42.065,PRaM,2021.2.3,Win32,59.84440455,61b8f3437b89212fae0dfade
6,1.4556,space,0.2108,0,320,320,43,1,,,5b88002a7bb9e90001f0703f,6439162c336d88e0677eb167,2023-04-14_10h00.42.065,PRaM,2021.2.3,Win32,59.84440455,61b8f3437b89212fae0dfade
1,1.6734,space,0.0067,0,321,321,240,1,,,5b88002a7bb9e90001f0703f,6439162c336d88e0677eb167,2023-04-14_10h00.42.065,PRaM,2021.2.3,Win32,59.84440455,61b8f3437b89212fae0dfade
3,1.3714,space,0.1052,0,322,322,273,1,,,5b88002a7bb9e90001f0703f,6439162c336d88e0677eb167,2023-04-14_10h00.42.065,PRaM,2021.2.3,Win32,59.84440455,61b8f3437b89212fae0dfade
4,1.9034,space,0.1997,0,323,323,338,1,,,5b88002a7bb9e90001f0703f,6439162c336d88e0677eb167,2023-04-14_10h00.42.065,PRaM,2021.2.3,Win32,59.84440455,61b8f3437b89212fae0dfade
5,2.241,space,0.5836,0,324,324,96,1,,,5b88002a7bb9e90001f0703f,6439162c336d88e0677eb167,2023-04-14_10h00.42.065,PRaM,2021.2.3,Win32,59.84440455,61b8f3437b89212fae0dfade
3,2.3246,space,0.6359,0,325,325,289,1,,,5b88002a7bb9e90001f0703f,6439162c336d88e0677eb167,2023-04-14_10h00.42.065,PRaM,2021.2.3,Win32,59.84440455,61b8f3437b89212fae0dfade
6,1.6442,space,0.3656,0,326,326,255,1,,,5b88002a7bb9e90001f0703f,6439162c336d88e0677eb167,2023-04-14_10h00.42.065,PRaM,2021.2.3,Win32,59.84440455,61b8f3437b89212fae0dfade
1,1.979,space,0.3231,0,327,327,227,1,,,5b88002a7bb9e90001f0703f,6439162c336d88e0677eb167,2023-04-14_10h00.42.065,PRaM,2021.2.3,Win32,59.84440455,61b8f3437b89212fae0dfade
3,4.2054,space,2.5007,0,328,328,306,1,,,5b88002a7bb9e90001f0703f,6439162c336d88e0677eb167,2023-04-14_10h00.42.065,PRaM,2021.2.3,Win32,59.84440455,61b8f3437b89212fae0dfade
6,1.8196,space,0.1004,0,329,329,211,1,,,5b88002a7bb9e90001f0703f,6439162c336d88e0677eb167,2023-04-14_10h00.42.065,PRaM,2021.2.3,Win32,59.84440455,61b8f3437b89212fae0dfade
6,1.1047,space,0.267,0,330,330,84,1,,,5b88002a7bb9e90001f0703f,6439162c336d88e0677eb167,2023-04-14_10h00.42.065,PRaM,2021.2.3,Win32,59.84440455,61b8f3437b89212fae0dfade
4,2.061,space,0.3844,0,331,331,202,1,,,5b88002a7bb9e90001f0703f,6439162c336d88e0677eb167,2023-04-14_10h00.42.065,PRaM,2021.2.3,Win32,59.84440455,61b8f3437b89212fae0dfade
7,2.1059,space,0.4394,0,332,332,307,1,,,5b88002a7bb9e90001f0703f,6439162c336d88e0677eb167,2023-04-14_10h00.42.065,PRaM,2021.2.3,Win32,59.84440455,61b8f3437b89212fae0dfade
6,1.7879,space,0.1031,0,333,333,110,1,,,5b88002a7bb9e90001f0703f,6439162c336d88e0677eb167,2023-04-14_10h00.42.065,PRaM,2021.2.3,Win32,59.84440455,61b8f3437b89212fae0dfade
2,2.1568,space,0.4549,0,334,334,30,1,,,5b88002a7bb9e90001f0703f,6439162c336d88e0677eb167,2023-04-14_10h00.42.065,PRaM,2021.2.3,Win32,59.84440455,61b8f3437b89212fae0dfade
7,1.7721,space,0.1119,0,335,335,118,1,,,5b88002a7bb9e90001f0703f,6439162c336d88e0677eb167,2023-04-14_10h00.42.065,PRaM,2021.2.3,Win32,59.84440455,61b8f3437b89212fae0dfade
5,1.4586,space,0.1524,0,336,336,377,1,,,5b88002a7bb9e90001f0703f,6439162c336d88e0677eb167,2023-04-14_10h00.42.065,PRaM,2021.2.3,Win32,59.84440455,61b8f3437b89212fae0dfade
2,1.6855,space,0.3458,0,337,337,24,1,,,5b88002a7bb9e90001f0703f,6439162c336d88e0677eb167,2023-04-14_10h00.42.065,PRaM,2021.2.3,Win32,59.84440455,61b8f3437b89212fae0dfade
1,1.5099,space,0.1198,0,338,338,39,1,,,5b88002a7bb9e90001f0703f,6439162c336d88e0677eb167,2023-04-14_10h00.42.065,PRaM,2021.2.3,Win32,59.84440455,61b8f3437b89212fae0dfade
1,1.1079,space,0.6171,0,339,339,219,1,,,5b88002a7bb9e90001f0703f,6439162c336d88e0677eb167,2023-04-14_10h00.42.065,PRaM,2021.2.3,Win32,59.84440455,61b8f3437b89212fae0dfade
4,2.3581,space,0.7357,0,340,340,375,1,,,5b88002a7bb9e90001f0703f,6439162c336d88e0677eb167,2023-04-14_10h00.42.065,PRaM,2021.2.3,Win32,59.84440455,61b8f3437b89212fae0dfade
5,1.8964,space,0.2279,0,341,341,270,1,,,5b88002a7bb9e90001f0703f,6439162c336d88e0677eb167,2023-04-14_10h00.42.065,PRaM,2021.2.3,Win32,59.84440455,61b8f3437b89212fae0dfade
2,1.5746,space,0.2088,0,342,342,133,1,,,5b88002a7bb9e90001f0703f,6439162c336d88e0677eb167,2023-04-14_10h00.42.065,PRaM,2021.2.3,Win32,59.84440455,61b8f3437b89212fae0dfade
7,1.4702,space,0.1502,0,343,343,16,1,,,5b88002a7bb9e90001f0703f,6439162c336d88e0677eb167,2023-04-14_10h00.42.065,PRaM,2021.2.3,Win32,59.84440455,61b8f3437b89212fae0dfade
8,1.746,space,0.0346,0,344,344,137,1,,,5b88002a7bb9e90001f0703f,6439162c336d88e0677eb167,2023-04-14_10h00.42.065,PRaM,2021.2.3,Win32,59.84440455,61b8f3437b89212fae0dfade
4,1.6809,space,0.2163,0,345,345,86,1,,,5b88002a7bb9e90001f0703f,6439162c336d88e0677eb167,2023-04-14_10h00.42.065,PRaM,2021.2.3,Win32,59.84440455,61b8f3437b89212fae0dfade
6,1.412,space,0.0182,0,346,346,225,1,,,5b88002a7bb9e90001f0703f,6439162c336d88e0677eb167,2023-04-14_10h00.42.065,PRaM,2021.2.3,Win32,59.84440455,61b8f3437b89212fae0dfade
2,1.6849,space,0.0197,0,347,347,73,1,,,5b88002a7bb9e90001f0703f,6439162c336d88e0677eb167,2023-04-14_10h00.42.065,PRaM,2021.2.3,Win32,59.84440455,61b8f3437b89212fae0dfade
1,1.5023,space,0.1192,0,348,348,63,1,,,5b88002a7bb9e90001f0703f,6439162c336d88e0677eb167,2023-04-14_10h00.42.065,PRaM,2021.2.3,Win32,59.84440455,61b8f3437b89212fae0dfade
7,1.4218,space,0.1006,0,349,349,136,1,,,5b88002a7bb9e90001f0703f,6439162c336d88e0677eb167,2023-04-14_10h00.42.065,PRaM,2021.2.3,Win32,59.84440455,61b8f3437b89212fae0dfade
8,1.3195,space,0.0067,0,350,350,334,1,,,5b88002a7bb9e90001f0703f,6439162c336d88e0677eb167,2023-04-14_10h00.42.065,PRaM,2021.2.3,Win32,59.84440455,61b8f3437b89212fae0dfade
7,1.9352,space,0.2728,0,351,351,221,1,,,5b88002a7bb9e90001f0703f,6439162c336d88e0677eb167,2023-04-14_10h00.42.065,PRaM,2021.2.3,Win32,59.84440455,61b8f3437b89212fae0dfade
1,2.335,space,0.6884,0,352,352,283,1,,,5b88002a7bb9e90001f0703f,6439162c336d88e0677eb167,2023-04-14_10h00.42.065,PRaM,2021.2.3,Win32,59.84440455,61b8f3437b89212fae0dfade
1,1.9447,space,0.2571,0,353,353,58,1,,,5b88002a7bb9e90001f0703f,6439162c336d88e0677eb167,2023-04-14_10h00.42.065,PRaM,2021.2.3,Win32,59.84440455,61b8f3437b89212fae0dfade
5,1.6024,space,0.2556,0,354,354,138,1,,,5b88002a7bb9e90001f0703f,6439162c336d88e0677eb167,2023-04-14_10h00.42.065,PRaM,2021.2.3,Win32,59.84440455,61b8f3437b89212fae0dfade
5,1.1857,space,0.0029,0,355,355,167,1,,,5b88002a7bb9e90001f0703f,6439162c336d88e0677eb167,2023-04-14_10h00.42.065,PRaM,2021.2.3,Win32,59.84440455,61b8f3437b89212fae0dfade
2,1.8411,space,0.1749,0,356,356,360,1,,,5b88002a7bb9e90001f0703f,6439162c336d88e0677eb167,2023-04-14_10h00.42.065,PRaM,2021.2.3,Win32,59.84440455,61b8f3437b89212fae0dfade
5,1.8626,space,0.22,0,357,357,236,1,,,5b88002a7bb9e90001f0703f,6439162c336d88e0677eb167,2023-04-14_10h00.42.065,PRaM,2021.2.3,Win32,59.84440455,61b8f3437b89212fae0dfade
6,1.6853,space,0.0402,0,358,358,174,1,,,5b88002a7bb9e90001f0703f,6439162c336d88e0677eb167,2023-04-14_10h00.42.065,PRaM,2021.2.3,Win32,59.84440455,61b8f3437b89212fae0dfade
1,1.6626,space,0.298,0,359,359,315,1,,,5b88002a7bb9e90001f0703f,6439162c336d88e0677eb167,2023-04-14_10h00.42.065,PRaM,2021.2.3,Win32,59.84440455,61b8f3437b89212fae0dfade
7,2.0591,space,0.4293,0,360,360,366,1,,,5b88002a7bb9e90001f0703f,6439162c336d88e0677eb167,2023-04-14_10h00.42.065,PRaM,2021.2.3,Win32,59.84440455,61b8f3437b89212fae0dfade
1,1.887,space,0.2503,0,361,361,162,1,,,5b88002a7bb9e90001f0703f,6439162c336d88e0677eb167,2023-04-14_10h00.42.065,PRaM,2021.2.3,Win32,59.84440455,61b8f3437b89212fae0dfade
8,1.4758,space,0.0356,0,362,362,207,1,,,5b88002a7bb9e90001f0703f,6439162c336d88e0677eb167,2023-04-14_10h00.42.065,PRaM,2021.2.3,Win32,59.84440455,61b8f3437b89212fae0dfade
1,1.6887,space,0.0342,0,363,363,245,1,,,5b88002a7bb9e90001f0703f,6439162c336d88e0677eb167,2023-04-14_10h00.42.065,PRaM,2021.2.3,Win32,59.84440455,61b8f3437b89212fae0dfade
2,1.5265,space,0.1515,0,364,364,163,1,,,5b88002a7bb9e90001f0703f,6439162c336d88e0677eb167,2023-04-14_10h00.42.065,PRaM,2021.2.3,Win32,59.84440455,61b8f3437b89212fae0dfade
5,1.7377,space,0.0334,0,365,365,146,1,,,5b88002a7bb9e90001f0703f,6439162c336d88e0677eb167,2023-04-14_10h00.42.065,PRaM,2021.2.3,Win32,59.84440455,61b8f3437b89212fae0dfade
1,1.7043,space,0.0349,0,366,366,258,1,,,5b88002a7bb9e90001f0703f,6439162c336d88e0677eb167,2023-04-14_10h00.42.065,PRaM,2021.2.3,Win32,59.84440455,61b8f3437b89212fae0dfade
6,1.6455,space,0.0059,0,367,367,259,1,,,5b88002a7bb9e90001f0703f,6439162c336d88e0677eb167,2023-04-14_10h00.42.065,PRaM,2021.2.3,Win32,59.84440455,61b8f3437b89212fae0dfade
8,1.4463,space,0.2895,0,368,368,264,1,,,5b88002a7bb9e90001f0703f,6439162c336d88e0677eb167,2023-04-14_10h00.42.065,PRaM,2021.2.3,Win32,59.84440455,61b8f3437b89212fae0dfade
6,1.9185,space,0.2683,0,369,369,337,1,,,5b88002a7bb9e90001f0703f,6439162c336d88e0677eb167,2023-04-14_10h00.42.065,PRaM,2021.2.3,Win32,59.84440455,61b8f3437b89212fae0dfade
1,1.6757,space,0.0215,0,370,370,303,1,,,5b88002a7bb9e90001f0703f,6439162c336d88e0677eb167,2023-04-14_10h00.42.065,PRaM,2021.2.3,Win32,59.84440455,61b8f3437b89212fae0dfade
1,1.1586,space,0.4539,0,371,371,18,1,,,5b88002a7bb9e90001f0703f,6439162c336d88e0677eb167,2023-04-14_10h00.42.065,PRaM,2021.2.3,Win32,59.84440455,61b8f3437b89212fae0dfade
5,1.405,space,0.1585,0,372,372,230,1,,,5b88002a7bb9e90001f0703f,6439162c336d88e0677eb167,2023-04-14_10h00.42.065,PRaM,2021.2.3,Win32,59.84440455,61b8f3437b89212fae0dfade
1,1.5854,space,0.3374,0,373,373,92,1,,,5b88002a7bb9e90001f0703f,6439162c336d88e0677eb167,2023-04-14_10h00.42.065,PRaM,2021.2.3,Win32,59.84440455,61b8f3437b89212fae0dfade
1,1.4253,space,0.1668,0,374,374,265,1,,,5b88002a7bb9e90001f0703f,6439162c336d88e0677eb167,2023-04-14_10h00.42.065,PRaM,2021.2.3,Win32,59.84440455,61b8f3437b89212fae0dfade
1,1.5213,space,0.285,0,375,375,223,1,,,5b88002a7bb9e90001f0703f,6439162c336d88e0677eb167,2023-04-14_10h00.42.065,PRaM,2021.2.3,Win32,59.84440455,61b8f3437b89212fae0dfade
5,2.0528,space,0.3373,0,376,376,349,1,,,5b88002a7bb9e90001f0703f,6439162c336d88e0677eb167,2023-04-14_10h00.42.065,PRaM,2021.2.3,Win32,59.84440455,61b8f3437b89212fae0dfade
7,1.4887,space,0.1923,0,377,377,56,1,,,5b88002a7bb9e90001f0703f,6439162c336d88e0677eb167,2023-04-14_10h00.42.065,PRaM,2021.2.3,Win32,59.84440455,61b8f3437b89212fae0dfade
