Rating.response,Rating.rt,EndTrial.keys,EndTrial.rt,trials.thisRepN,trials.thisTrialN,trials.thisN,trials.thisIndex,trials.ran,Pos1,Pos2,participant,session,date,expName,psychopyVersion,OS,frameRate,study_id
2,12.9083,space,11.9004,0,0,0,78,1,,,5b987c55bb32a600018302dc,61b9000aa5902d2cda5af693,2021-12-14_20h35.31.231,PRaM,2021.2.3,MacIntel,29.99580059,61b8f3437b89212fae0dfadf
1,3.7595,space,2.2692,0,1,1,354,1,,,5b987c55bb32a600018302dc,61b9000aa5902d2cda5af693,2021-12-14_20h35.31.231,PRaM,2021.2.3,MacIntel,29.99580059,61b8f3437b89212fae0dfadf
4,4.4197,space,2.8444,0,2,2,307,1,,,5b987c55bb32a600018302dc,61b9000aa5902d2cda5af693,2021-12-14_20h35.31.231,PRaM,2021.2.3,MacIntel,29.99580059,61b8f3437b89212fae0dfadf
2,7.2555,space,5.7516,0,3,3,268,1,,,5b987c55bb32a600018302dc,61b9000aa5902d2cda5af693,2021-12-14_20h35.31.231,PRaM,2021.2.3,MacIntel,29.99580059,61b8f3437b89212fae0dfadf
7,4.7,space,4.1941,0,4,4,18,1,,,5b987c55bb32a600018302dc,61b9000aa5902d2cda5af693,2021-12-14_20h35.31.231,PRaM,2021.2.3,MacIntel,29.99580059,61b8f3437b89212fae0dfadf
2,3.1593,space,1.7018,0,5,5,262,1,,,5b987c55bb32a600018302dc,61b9000aa5902d2cda5af693,2021-12-14_20h35.31.231,PRaM,2021.2.3,MacIntel,29.99580059,61b8f3437b89212fae0dfadf
8,4.7126,space,3.4501,0,6,6,325,1,,,5b987c55bb32a600018302dc,61b9000aa5902d2cda5af693,2021-12-14_20h35.31.231,PRaM,2021.2.3,MacIntel,29.99580059,61b8f3437b89212fae0dfadf
8,3.2388,space,2.2725,0,7,7,118,1,,,5b987c55bb32a600018302dc,61b9000aa5902d2cda5af693,2021-12-14_20h35.31.231,PRaM,2021.2.3,MacIntel,29.99580059,61b8f3437b89212fae0dfadf
1,9.2419,space,8.3616,0,8,8,258,1,,,5b987c55bb32a600018302dc,61b9000aa5902d2cda5af693,2021-12-14_20h35.31.231,PRaM,2021.2.3,MacIntel,29.99580059,61b8f3437b89212fae0dfadf
1,2.5998,space,1.6255,0,9,9,79,1,,,5b987c55bb32a600018302dc,61b9000aa5902d2cda5af693,2021-12-14_20h35.31.231,PRaM,2021.2.3,MacIntel,29.99580059,61b8f3437b89212fae0dfadf
3,4.4914,space,2.9172,0,10,10,94,1,,,5b987c55bb32a600018302dc,61b9000aa5902d2cda5af693,2021-12-14_20h35.31.231,PRaM,2021.2.3,MacIntel,29.99580059,61b8f3437b89212fae0dfadf
2,3.263,space,1.5982,0,11,11,171,1,,,5b987c55bb32a600018302dc,61b9000aa5902d2cda5af693,2021-12-14_20h35.31.231,PRaM,2021.2.3,MacIntel,29.99580059,61b8f3437b89212fae0dfadf
5,3.8071,space,2.3908,0,12,12,349,1,,,5b987c55bb32a600018302dc,61b9000aa5902d2cda5af693,2021-12-14_20h35.31.231,PRaM,2021.2.3,MacIntel,29.99580059,61b8f3437b89212fae0dfadf
8,7.1031,space,5.7202,0,13,13,259,1,,,5b987c55bb32a600018302dc,61b9000aa5902d2cda5af693,2021-12-14_20h35.31.231,PRaM,2021.2.3,MacIntel,29.99580059,61b8f3437b89212fae0dfadf
9,3.4746,space,2.0569,0,14,14,277,1,,,5b987c55bb32a600018302dc,61b9000aa5902d2cda5af693,2021-12-14_20h35.31.231,PRaM,2021.2.3,MacIntel,29.99580059,61b8f3437b89212fae0dfadf
3,4.6464,space,5.0006,0,15,15,159,1,,,5b987c55bb32a600018302dc,61b9000aa5902d2cda5af693,2021-12-14_20h35.31.231,PRaM,2021.2.3,MacIntel,29.99580059,61b8f3437b89212fae0dfadf
1,6.4931,space,4.97,0,16,16,322,1,,,5b987c55bb32a600018302dc,61b9000aa5902d2cda5af693,2021-12-14_20h35.31.231,PRaM,2021.2.3,MacIntel,29.99580059,61b8f3437b89212fae0dfadf
2,8.8731,space,7.9918,0,17,17,303,1,,,5b987c55bb32a600018302dc,61b9000aa5902d2cda5af693,2021-12-14_20h35.31.231,PRaM,2021.2.3,MacIntel,29.99580059,61b8f3437b89212fae0dfadf
5,5.2825,space,3.7913,0,18,18,30,1,,,5b987c55bb32a600018302dc,61b9000aa5902d2cda5af693,2021-12-14_20h35.31.231,PRaM,2021.2.3,MacIntel,29.99580059,61b8f3437b89212fae0dfadf
7,3.447,space,1.8784,0,19,19,370,1,,,5b987c55bb32a600018302dc,61b9000aa5902d2cda5af693,2021-12-14_20h35.31.231,PRaM,2021.2.3,MacIntel,29.99580059,61b8f3437b89212fae0dfadf
4,5.6538,space,4.033,0,20,20,68,1,,,5b987c55bb32a600018302dc,61b9000aa5902d2cda5af693,2021-12-14_20h35.31.231,PRaM,2021.2.3,MacIntel,29.99580059,61b8f3437b89212fae0dfadf
6,2.8044,space,1.3259,0,21,21,80,1,,,5b987c55bb32a600018302dc,61b9000aa5902d2cda5af693,2021-12-14_20h35.31.231,PRaM,2021.2.3,MacIntel,29.99580059,61b8f3437b89212fae0dfadf
4,10.4766,space,9.9981,0,22,22,223,1,,,5b987c55bb32a600018302dc,61b9000aa5902d2cda5af693,2021-12-14_20h35.31.231,PRaM,2021.2.3,MacIntel,29.99580059,61b8f3437b89212fae0dfadf
6,3.0967,space,1.5785,0,23,23,195,1,,,5b987c55bb32a600018302dc,61b9000aa5902d2cda5af693,2021-12-14_20h35.31.231,PRaM,2021.2.3,MacIntel,29.99580059,61b8f3437b89212fae0dfadf
7,4.0262,space,2.4872,0,24,24,270,1,,,5b987c55bb32a600018302dc,61b9000aa5902d2cda5af693,2021-12-14_20h35.31.231,PRaM,2021.2.3,MacIntel,29.99580059,61b8f3437b89212fae0dfadf
7,2.4041,space,1.4277,0,25,25,288,1,,,5b987c55bb32a600018302dc,61b9000aa5902d2cda5af693,2021-12-14_20h35.31.231,PRaM,2021.2.3,MacIntel,29.99580059,61b8f3437b89212fae0dfadf
8,2.0337,space,0.6311,0,26,26,17,1,,,5b987c55bb32a600018302dc,61b9000aa5902d2cda5af693,2021-12-14_20h35.31.231,PRaM,2021.2.3,MacIntel,29.99580059,61b8f3437b89212fae0dfadf
5,9.3948,space,7.7948,0,27,27,363,1,,,5b987c55bb32a600018302dc,61b9000aa5902d2cda5af693,2021-12-14_20h35.31.231,PRaM,2021.2.3,MacIntel,29.99580059,61b8f3437b89212fae0dfadf
5,3.578,space,1.9758,0,28,28,204,1,,,5b987c55bb32a600018302dc,61b9000aa5902d2cda5af693,2021-12-14_20h35.31.231,PRaM,2021.2.3,MacIntel,29.99580059,61b8f3437b89212fae0dfadf
1,4.0207,space,4.2489,0,29,29,190,1,,,5b987c55bb32a600018302dc,61b9000aa5902d2cda5af693,2021-12-14_20h35.31.231,PRaM,2021.2.3,MacIntel,29.99580059,61b8f3437b89212fae0dfadf
1,2.4128,space,0.8966,0,30,30,107,1,,,5b987c55bb32a600018302dc,61b9000aa5902d2cda5af693,2021-12-14_20h35.31.231,PRaM,2021.2.3,MacIntel,29.99580059,61b8f3437b89212fae0dfadf
3,9.8998,space,8.3292,0,31,31,72,1,,,5b987c55bb32a600018302dc,61b9000aa5902d2cda5af693,2021-12-14_20h35.31.231,PRaM,2021.2.3,MacIntel,29.99580059,61b8f3437b89212fae0dfadf
2,6.2077,space,4.5887,0,32,32,253,1,,,5b987c55bb32a600018302dc,61b9000aa5902d2cda5af693,2021-12-14_20h35.31.231,PRaM,2021.2.3,MacIntel,29.99580059,61b8f3437b89212fae0dfadf
4,6.0783,space,7.2912,0,33,33,216,1,,,5b987c55bb32a600018302dc,61b9000aa5902d2cda5af693,2021-12-14_20h35.31.231,PRaM,2021.2.3,MacIntel,29.99580059,61b8f3437b89212fae0dfadf
8,9.4979,space,7.9892,0,34,34,302,1,,,5b987c55bb32a600018302dc,61b9000aa5902d2cda5af693,2021-12-14_20h35.31.231,PRaM,2021.2.3,MacIntel,29.99580059,61b8f3437b89212fae0dfadf
7,20.3593,space,18.8488,0,35,35,219,1,,,5b987c55bb32a600018302dc,61b9000aa5902d2cda5af693,2021-12-14_20h35.31.231,PRaM,2021.2.3,MacIntel,29.99580059,61b8f3437b89212fae0dfadf
1,4.0825,space,4.1071,0,36,36,235,1,,,5b987c55bb32a600018302dc,61b9000aa5902d2cda5af693,2021-12-14_20h35.31.231,PRaM,2021.2.3,MacIntel,29.99580059,61b8f3437b89212fae0dfadf
3,5.6708,space,4.2782,0,37,37,163,1,,,5b987c55bb32a600018302dc,61b9000aa5902d2cda5af693,2021-12-14_20h35.31.231,PRaM,2021.2.3,MacIntel,29.99580059,61b8f3437b89212fae0dfadf
1,3.9564,space,2.4034,0,38,38,247,1,,,5b987c55bb32a600018302dc,61b9000aa5902d2cda5af693,2021-12-14_20h35.31.231,PRaM,2021.2.3,MacIntel,29.99580059,61b8f3437b89212fae0dfadf
7,4.7873,space,3.2935,0,39,39,298,1,,,5b987c55bb32a600018302dc,61b9000aa5902d2cda5af693,2021-12-14_20h35.31.231,PRaM,2021.2.3,MacIntel,29.99580059,61b8f3437b89212fae0dfadf
3,4.7543,space,3.4932,0,40,40,375,1,,,5b987c55bb32a600018302dc,61b9000aa5902d2cda5af693,2021-12-14_20h35.31.231,PRaM,2021.2.3,MacIntel,29.99580059,61b8f3437b89212fae0dfadf
8,4.118,space,2.5338,0,41,41,114,1,,,5b987c55bb32a600018302dc,61b9000aa5902d2cda5af693,2021-12-14_20h35.31.231,PRaM,2021.2.3,MacIntel,29.99580059,61b8f3437b89212fae0dfadf
2,2.6254,space,1.0185,0,42,42,15,1,,,5b987c55bb32a600018302dc,61b9000aa5902d2cda5af693,2021-12-14_20h35.31.231,PRaM,2021.2.3,MacIntel,29.99580059,61b8f3437b89212fae0dfadf
9,5.7781,space,4.9015,0,43,43,186,1,,,5b987c55bb32a600018302dc,61b9000aa5902d2cda5af693,2021-12-14_20h35.31.231,PRaM,2021.2.3,MacIntel,29.99580059,61b8f3437b89212fae0dfadf
5,5.9099,space,4.3892,0,44,44,167,1,,,5b987c55bb32a600018302dc,61b9000aa5902d2cda5af693,2021-12-14_20h35.31.231,PRaM,2021.2.3,MacIntel,29.99580059,61b8f3437b89212fae0dfadf
6,3.3097,space,1.7831,0,45,45,143,1,,,5b987c55bb32a600018302dc,61b9000aa5902d2cda5af693,2021-12-14_20h35.31.231,PRaM,2021.2.3,MacIntel,29.99580059,61b8f3437b89212fae0dfadf
8,3.2834,space,1.8319,0,46,46,75,1,,,5b987c55bb32a600018302dc,61b9000aa5902d2cda5af693,2021-12-14_20h35.31.231,PRaM,2021.2.3,MacIntel,29.99580059,61b8f3437b89212fae0dfadf
8,5.2938,space,4.8112,0,47,47,69,1,,,5b987c55bb32a600018302dc,61b9000aa5902d2cda5af693,2021-12-14_20h35.31.231,PRaM,2021.2.3,MacIntel,29.99580059,61b8f3437b89212fae0dfadf
9,3.8626,space,2.2929,0,48,48,43,1,,,5b987c55bb32a600018302dc,61b9000aa5902d2cda5af693,2021-12-14_20h35.31.231,PRaM,2021.2.3,MacIntel,29.99580059,61b8f3437b89212fae0dfadf
6,4.7712,space,3.1725,0,49,49,150,1,,,5b987c55bb32a600018302dc,61b9000aa5902d2cda5af693,2021-12-14_20h35.31.231,PRaM,2021.2.3,MacIntel,29.99580059,61b8f3437b89212fae0dfadf
1,6.9934,space,5.4139,0,50,50,217,1,,,5b987c55bb32a600018302dc,61b9000aa5902d2cda5af693,2021-12-14_20h35.31.231,PRaM,2021.2.3,MacIntel,29.99580059,61b8f3437b89212fae0dfadf
7,3.6885,space,2.4754,0,51,51,110,1,,,5b987c55bb32a600018302dc,61b9000aa5902d2cda5af693,2021-12-14_20h35.31.231,PRaM,2021.2.3,MacIntel,29.99580059,61b8f3437b89212fae0dfadf
8,2.0834,space,0.4411,0,52,52,115,1,,,5b987c55bb32a600018302dc,61b9000aa5902d2cda5af693,2021-12-14_20h35.31.231,PRaM,2021.2.3,MacIntel,29.99580059,61b8f3437b89212fae0dfadf
6,2.8452,space,3.1488,0,53,53,196,1,,,5b987c55bb32a600018302dc,61b9000aa5902d2cda5af693,2021-12-14_20h35.31.231,PRaM,2021.2.3,MacIntel,29.99580059,61b8f3437b89212fae0dfadf
7,3.6407,space,2.0621,0,54,54,104,1,,,5b987c55bb32a600018302dc,61b9000aa5902d2cda5af693,2021-12-14_20h35.31.231,PRaM,2021.2.3,MacIntel,29.99580059,61b8f3437b89212fae0dfadf
6,5.4897,space,4.0767,0,55,55,224,1,,,5b987c55bb32a600018302dc,61b9000aa5902d2cda5af693,2021-12-14_20h35.31.231,PRaM,2021.2.3,MacIntel,29.99580059,61b8f3437b89212fae0dfadf
8,4.7742,space,3.1699,0,56,56,225,1,,,5b987c55bb32a600018302dc,61b9000aa5902d2cda5af693,2021-12-14_20h35.31.231,PRaM,2021.2.3,MacIntel,29.99580059,61b8f3437b89212fae0dfadf
3,3.5332,space,2.3176,0,57,57,71,1,,,5b987c55bb32a600018302dc,61b9000aa5902d2cda5af693,2021-12-14_20h35.31.231,PRaM,2021.2.3,MacIntel,29.99580059,61b8f3437b89212fae0dfadf
1,5.3057,space,3.9459,0,58,58,55,1,,,5b987c55bb32a600018302dc,61b9000aa5902d2cda5af693,2021-12-14_20h35.31.231,PRaM,2021.2.3,MacIntel,29.99580059,61b8f3437b89212fae0dfadf
5,2.682,space,1.1157,0,59,59,371,1,,,5b987c55bb32a600018302dc,61b9000aa5902d2cda5af693,2021-12-14_20h35.31.231,PRaM,2021.2.3,MacIntel,29.99580059,61b8f3437b89212fae0dfadf
3,6.8845,space,5.5033,0,60,60,368,1,,,5b987c55bb32a600018302dc,61b9000aa5902d2cda5af693,2021-12-14_20h35.31.231,PRaM,2021.2.3,MacIntel,29.99580059,61b8f3437b89212fae0dfadf
6,3.4531,space,1.9167,0,61,61,246,1,,,5b987c55bb32a600018302dc,61b9000aa5902d2cda5af693,2021-12-14_20h35.31.231,PRaM,2021.2.3,MacIntel,29.99580059,61b8f3437b89212fae0dfadf
2,5.1974,space,3.5869,0,62,62,57,1,,,5b987c55bb32a600018302dc,61b9000aa5902d2cda5af693,2021-12-14_20h35.31.231,PRaM,2021.2.3,MacIntel,29.99580059,61b8f3437b89212fae0dfadf
1,2.3794,space,1.273,0,63,63,108,1,,,5b987c55bb32a600018302dc,61b9000aa5902d2cda5af693,2021-12-14_20h35.31.231,PRaM,2021.2.3,MacIntel,29.99580059,61b8f3437b89212fae0dfadf
8,4.8401,space,3.8484,0,64,64,105,1,,,5b987c55bb32a600018302dc,61b9000aa5902d2cda5af693,2021-12-14_20h35.31.231,PRaM,2021.2.3,MacIntel,29.99580059,61b8f3437b89212fae0dfadf
7,4.8166,space,3.0721,0,65,65,230,1,,,5b987c55bb32a600018302dc,61b9000aa5902d2cda5af693,2021-12-14_20h35.31.231,PRaM,2021.2.3,MacIntel,29.99580059,61b8f3437b89212fae0dfadf
4,7.8282,space,6.4635,0,66,66,176,1,,,5b987c55bb32a600018302dc,61b9000aa5902d2cda5af693,2021-12-14_20h35.31.231,PRaM,2021.2.3,MacIntel,29.99580059,61b8f3437b89212fae0dfadf
9,7.3465,space,5.9015,0,67,67,14,1,,,5b987c55bb32a600018302dc,61b9000aa5902d2cda5af693,2021-12-14_20h35.31.231,PRaM,2021.2.3,MacIntel,29.99580059,61b8f3437b89212fae0dfadf
2,4.2194,space,2.5639,0,68,68,8,1,,,5b987c55bb32a600018302dc,61b9000aa5902d2cda5af693,2021-12-14_20h35.31.231,PRaM,2021.2.3,MacIntel,29.99580059,61b8f3437b89212fae0dfadf
2,2.1327,space,0.4673,0,69,69,23,1,,,5b987c55bb32a600018302dc,61b9000aa5902d2cda5af693,2021-12-14_20h35.31.231,PRaM,2021.2.3,MacIntel,29.99580059,61b8f3437b89212fae0dfadf
1,4.9134,space,3.306,0,70,70,231,1,,,5b987c55bb32a600018302dc,61b9000aa5902d2cda5af693,2021-12-14_20h35.31.231,PRaM,2021.2.3,MacIntel,29.99580059,61b8f3437b89212fae0dfadf
1,10.8943,space,9.3814,0,71,71,243,1,,,5b987c55bb32a600018302dc,61b9000aa5902d2cda5af693,2021-12-14_20h35.31.231,PRaM,2021.2.3,MacIntel,29.99580059,61b8f3437b89212fae0dfadf
2,2.5846,space,1.0023,0,72,72,128,1,,,5b987c55bb32a600018302dc,61b9000aa5902d2cda5af693,2021-12-14_20h35.31.231,PRaM,2021.2.3,MacIntel,29.99580059,61b8f3437b89212fae0dfadf
1,4.9399,space,3.4437,0,73,73,232,1,,,5b987c55bb32a600018302dc,61b9000aa5902d2cda5af693,2021-12-14_20h35.31.231,PRaM,2021.2.3,MacIntel,29.99580059,61b8f3437b89212fae0dfadf
3,4.4984,space,3.5282,0,74,74,11,1,,,5b987c55bb32a600018302dc,61b9000aa5902d2cda5af693,2021-12-14_20h35.31.231,PRaM,2021.2.3,MacIntel,29.99580059,61b8f3437b89212fae0dfadf
7,3.1329,space,1.8029,0,75,75,256,1,,,5b987c55bb32a600018302dc,61b9000aa5902d2cda5af693,2021-12-14_20h35.31.231,PRaM,2021.2.3,MacIntel,29.99580059,61b8f3437b89212fae0dfadf
7,5.4949,space,3.8881,0,76,76,181,1,,,5b987c55bb32a600018302dc,61b9000aa5902d2cda5af693,2021-12-14_20h35.31.231,PRaM,2021.2.3,MacIntel,29.99580059,61b8f3437b89212fae0dfadf
6,57.709,space,59.23,0,77,77,347,1,,,5b987c55bb32a600018302dc,61b9000aa5902d2cda5af693,2021-12-14_20h35.31.231,PRaM,2021.2.3,MacIntel,29.99580059,61b8f3437b89212fae0dfadf
5,2.6541,space,1.3682,0,78,78,31,1,,,5b987c55bb32a600018302dc,61b9000aa5902d2cda5af693,2021-12-14_20h35.31.231,PRaM,2021.2.3,MacIntel,29.99580059,61b8f3437b89212fae0dfadf
2,2.6687,space,3.2818,0,79,79,34,1,,,5b987c55bb32a600018302dc,61b9000aa5902d2cda5af693,2021-12-14_20h35.31.231,PRaM,2021.2.3,MacIntel,29.99580059,61b8f3437b89212fae0dfadf
4,2.4331,space,1.0725,0,80,80,286,1,,,5b987c55bb32a600018302dc,61b9000aa5902d2cda5af693,2021-12-14_20h35.31.231,PRaM,2021.2.3,MacIntel,29.99580059,61b8f3437b89212fae0dfadf
6,3.7731,space,2.182,0,81,81,194,1,,,5b987c55bb32a600018302dc,61b9000aa5902d2cda5af693,2021-12-14_20h35.31.231,PRaM,2021.2.3,MacIntel,29.99580059,61b8f3437b89212fae0dfadf
9,3.2252,space,1.6026,0,82,82,273,1,,,5b987c55bb32a600018302dc,61b9000aa5902d2cda5af693,2021-12-14_20h35.31.231,PRaM,2021.2.3,MacIntel,29.99580059,61b8f3437b89212fae0dfadf
8,2.4165,space,2.4656,0,83,83,134,1,,,5b987c55bb32a600018302dc,61b9000aa5902d2cda5af693,2021-12-14_20h35.31.231,PRaM,2021.2.3,MacIntel,29.99580059,61b8f3437b89212fae0dfadf
9,1.5929,space,0.0009,0,84,84,197,1,,,5b987c55bb32a600018302dc,61b9000aa5902d2cda5af693,2021-12-14_20h35.31.231,PRaM,2021.2.3,MacIntel,29.99580059,61b8f3437b89212fae0dfadf
4,3.881,space,2.3364,0,85,85,201,1,,,5b987c55bb32a600018302dc,61b9000aa5902d2cda5af693,2021-12-14_20h35.31.231,PRaM,2021.2.3,MacIntel,29.99580059,61b8f3437b89212fae0dfadf
9,4.4333,space,2.8558,0,86,86,60,1,,,5b987c55bb32a600018302dc,61b9000aa5902d2cda5af693,2021-12-14_20h35.31.231,PRaM,2021.2.3,MacIntel,29.99580059,61b8f3437b89212fae0dfadf
2,4.5969,space,3.0275,0,87,87,329,1,,,5b987c55bb32a600018302dc,61b9000aa5902d2cda5af693,2021-12-14_20h35.31.231,PRaM,2021.2.3,MacIntel,29.99580059,61b8f3437b89212fae0dfadf
4,5.4824,space,3.8983,0,88,88,47,1,,,5b987c55bb32a600018302dc,61b9000aa5902d2cda5af693,2021-12-14_20h35.31.231,PRaM,2021.2.3,MacIntel,29.99580059,61b8f3437b89212fae0dfadf
4,2.1682,space,0.3756,0,89,89,327,1,,,5b987c55bb32a600018302dc,61b9000aa5902d2cda5af693,2021-12-14_20h35.31.231,PRaM,2021.2.3,MacIntel,29.99580059,61b8f3437b89212fae0dfadf
5,7.7402,space,6.1512,0,90,90,96,1,,,5b987c55bb32a600018302dc,61b9000aa5902d2cda5af693,2021-12-14_20h35.31.231,PRaM,2021.2.3,MacIntel,29.99580059,61b8f3437b89212fae0dfadf
1,7.3292,space,5.6505,0,91,91,206,1,,,5b987c55bb32a600018302dc,61b9000aa5902d2cda5af693,2021-12-14_20h35.31.231,PRaM,2021.2.3,MacIntel,29.99580059,61b8f3437b89212fae0dfadf
2,3.3905,space,1.8552,0,92,92,214,1,,,5b987c55bb32a600018302dc,61b9000aa5902d2cda5af693,2021-12-14_20h35.31.231,PRaM,2021.2.3,MacIntel,29.99580059,61b8f3437b89212fae0dfadf
1,3.6098,space,2.0144,0,93,93,187,1,,,5b987c55bb32a600018302dc,61b9000aa5902d2cda5af693,2021-12-14_20h35.31.231,PRaM,2021.2.3,MacIntel,29.99580059,61b8f3437b89212fae0dfadf
1,5.7339,space,4.0954,0,94,94,111,1,,,5b987c55bb32a600018302dc,61b9000aa5902d2cda5af693,2021-12-14_20h35.31.231,PRaM,2021.2.3,MacIntel,29.99580059,61b8f3437b89212fae0dfadf
8,3.2713,space,1.7117,0,95,95,208,1,,,5b987c55bb32a600018302dc,61b9000aa5902d2cda5af693,2021-12-14_20h35.31.231,PRaM,2021.2.3,MacIntel,29.99580059,61b8f3437b89212fae0dfadf
3,4.6372,space,3.0628,0,96,96,170,1,,,5b987c55bb32a600018302dc,61b9000aa5902d2cda5af693,2021-12-14_20h35.31.231,PRaM,2021.2.3,MacIntel,29.99580059,61b8f3437b89212fae0dfadf
2,11.1127,space,11.9318,0,97,97,148,1,,,5b987c55bb32a600018302dc,61b9000aa5902d2cda5af693,2021-12-14_20h35.31.231,PRaM,2021.2.3,MacIntel,29.99580059,61b8f3437b89212fae0dfadf
2,3.2248,space,1.6089,0,98,98,356,1,,,5b987c55bb32a600018302dc,61b9000aa5902d2cda5af693,2021-12-14_20h35.31.231,PRaM,2021.2.3,MacIntel,29.99580059,61b8f3437b89212fae0dfadf
2,14.2389,space,12.703,0,99,99,160,1,,,5b987c55bb32a600018302dc,61b9000aa5902d2cda5af693,2021-12-14_20h35.31.231,PRaM,2021.2.3,MacIntel,29.99580059,61b8f3437b89212fae0dfadf
2,7.1441,space,5.5412,0,100,100,124,1,,,5b987c55bb32a600018302dc,61b9000aa5902d2cda5af693,2021-12-14_20h35.31.231,PRaM,2021.2.3,MacIntel,29.99580059,61b8f3437b89212fae0dfadf
2,7.4992,space,5.7564,0,101,101,205,1,,,5b987c55bb32a600018302dc,61b9000aa5902d2cda5af693,2021-12-14_20h35.31.231,PRaM,2021.2.3,MacIntel,29.99580059,61b8f3437b89212fae0dfadf
3,6.6138,space,6.1324,0,102,102,359,1,,,5b987c55bb32a600018302dc,61b9000aa5902d2cda5af693,2021-12-14_20h35.31.231,PRaM,2021.2.3,MacIntel,29.99580059,61b8f3437b89212fae0dfadf
6,3.7537,space,2.1562,0,103,103,209,1,,,5b987c55bb32a600018302dc,61b9000aa5902d2cda5af693,2021-12-14_20h35.31.231,PRaM,2021.2.3,MacIntel,29.99580059,61b8f3437b89212fae0dfadf
3,5.9641,space,4.6076,0,104,104,188,1,,,5b987c55bb32a600018302dc,61b9000aa5902d2cda5af693,2021-12-14_20h35.31.231,PRaM,2021.2.3,MacIntel,29.99580059,61b8f3437b89212fae0dfadf
2,2.9596,space,3.2292,0,105,105,321,1,,,5b987c55bb32a600018302dc,61b9000aa5902d2cda5af693,2021-12-14_20h35.31.231,PRaM,2021.2.3,MacIntel,29.99580059,61b8f3437b89212fae0dfadf
1,3.2443,space,1.843,0,106,106,9,1,,,5b987c55bb32a600018302dc,61b9000aa5902d2cda5af693,2021-12-14_20h35.31.231,PRaM,2021.2.3,MacIntel,29.99580059,61b8f3437b89212fae0dfadf
3,8.6177,space,7.4549,0,107,107,311,1,,,5b987c55bb32a600018302dc,61b9000aa5902d2cda5af693,2021-12-14_20h35.31.231,PRaM,2021.2.3,MacIntel,29.99580059,61b8f3437b89212fae0dfadf
9,3.6166,space,2.1167,0,108,108,326,1,,,5b987c55bb32a600018302dc,61b9000aa5902d2cda5af693,2021-12-14_20h35.31.231,PRaM,2021.2.3,MacIntel,29.99580059,61b8f3437b89212fae0dfadf
8,2.0309,space,0.4199,0,109,109,352,1,,,5b987c55bb32a600018302dc,61b9000aa5902d2cda5af693,2021-12-14_20h35.31.231,PRaM,2021.2.3,MacIntel,29.99580059,61b8f3437b89212fae0dfadf
1,3.5775,space,1.9818,0,110,110,275,1,,,5b987c55bb32a600018302dc,61b9000aa5902d2cda5af693,2021-12-14_20h35.31.231,PRaM,2021.2.3,MacIntel,29.99580059,61b8f3437b89212fae0dfadf
4,4.8975,space,3.3813,0,111,111,27,1,,,5b987c55bb32a600018302dc,61b9000aa5902d2cda5af693,2021-12-14_20h35.31.231,PRaM,2021.2.3,MacIntel,29.99580059,61b8f3437b89212fae0dfadf
8,2.1785,space,0.519,0,112,112,334,1,,,5b987c55bb32a600018302dc,61b9000aa5902d2cda5af693,2021-12-14_20h35.31.231,PRaM,2021.2.3,MacIntel,29.99580059,61b8f3437b89212fae0dfadf
5,2.4826,space,0.8292,0,113,113,25,1,,,5b987c55bb32a600018302dc,61b9000aa5902d2cda5af693,2021-12-14_20h35.31.231,PRaM,2021.2.3,MacIntel,29.99580059,61b8f3437b89212fae0dfadf
8,3.052,space,1.4655,0,114,114,63,1,,,5b987c55bb32a600018302dc,61b9000aa5902d2cda5af693,2021-12-14_20h35.31.231,PRaM,2021.2.3,MacIntel,29.99580059,61b8f3437b89212fae0dfadf
2,4.6126,space,2.8783,0,115,115,144,1,,,5b987c55bb32a600018302dc,61b9000aa5902d2cda5af693,2021-12-14_20h35.31.231,PRaM,2021.2.3,MacIntel,29.99580059,61b8f3437b89212fae0dfadf
4,4.7275,space,3.0574,0,116,116,99,1,,,5b987c55bb32a600018302dc,61b9000aa5902d2cda5af693,2021-12-14_20h35.31.231,PRaM,2021.2.3,MacIntel,29.99580059,61b8f3437b89212fae0dfadf
1,2.511,space,0.9269,0,117,117,312,1,,,5b987c55bb32a600018302dc,61b9000aa5902d2cda5af693,2021-12-14_20h35.31.231,PRaM,2021.2.3,MacIntel,29.99580059,61b8f3437b89212fae0dfadf
3,9.8806,space,8.2866,0,118,118,22,1,,,5b987c55bb32a600018302dc,61b9000aa5902d2cda5af693,2021-12-14_20h35.31.231,PRaM,2021.2.3,MacIntel,29.99580059,61b8f3437b89212fae0dfadf
5,13.9178,space,12.2292,0,119,119,220,1,,,5b987c55bb32a600018302dc,61b9000aa5902d2cda5af693,2021-12-14_20h35.31.231,PRaM,2021.2.3,MacIntel,29.99580059,61b8f3437b89212fae0dfadf
4,6.6151,space,4.9973,0,120,120,374,1,,,5b987c55bb32a600018302dc,61b9000aa5902d2cda5af693,2021-12-14_20h35.31.231,PRaM,2021.2.3,MacIntel,29.99580059,61b8f3437b89212fae0dfadf
7,4.2457,space,2.8352,0,121,121,198,1,,,5b987c55bb32a600018302dc,61b9000aa5902d2cda5af693,2021-12-14_20h35.31.231,PRaM,2021.2.3,MacIntel,29.99580059,61b8f3437b89212fae0dfadf
3,5.7785,space,4.1735,0,122,122,309,1,,,5b987c55bb32a600018302dc,61b9000aa5902d2cda5af693,2021-12-14_20h35.31.231,PRaM,2021.2.3,MacIntel,29.99580059,61b8f3437b89212fae0dfadf
2,5.644,space,4.0425,0,123,123,52,1,,,5b987c55bb32a600018302dc,61b9000aa5902d2cda5af693,2021-12-14_20h35.31.231,PRaM,2021.2.3,MacIntel,29.99580059,61b8f3437b89212fae0dfadf
8,3.7713,space,2.1888,0,124,124,226,1,,,5b987c55bb32a600018302dc,61b9000aa5902d2cda5af693,2021-12-14_20h35.31.231,PRaM,2021.2.3,MacIntel,29.99580059,61b8f3437b89212fae0dfadf
4,4.1992,space,2.8817,0,125,125,240,1,,,5b987c55bb32a600018302dc,61b9000aa5902d2cda5af693,2021-12-14_20h35.31.231,PRaM,2021.2.3,MacIntel,29.99580059,61b8f3437b89212fae0dfadf
3,4.4434,space,2.7764,0,126,126,82,1,,,5b987c55bb32a600018302dc,61b9000aa5902d2cda5af693,2021-12-14_20h35.31.231,PRaM,2021.2.3,MacIntel,29.99580059,61b8f3437b89212fae0dfadf
7,3.4579,space,2.1423,0,127,127,294,1,,,5b987c55bb32a600018302dc,61b9000aa5902d2cda5af693,2021-12-14_20h35.31.231,PRaM,2021.2.3,MacIntel,29.99580059,61b8f3437b89212fae0dfadf
8,6.315,space,4.6989,0,128,128,254,1,,,5b987c55bb32a600018302dc,61b9000aa5902d2cda5af693,2021-12-14_20h35.31.231,PRaM,2021.2.3,MacIntel,29.99580059,61b8f3437b89212fae0dfadf
3,5.1064,space,3.5423,0,129,129,341,1,,,5b987c55bb32a600018302dc,61b9000aa5902d2cda5af693,2021-12-14_20h35.31.231,PRaM,2021.2.3,MacIntel,29.99580059,61b8f3437b89212fae0dfadf
6,5.1301,space,3.5224,0,130,130,351,1,,,5b987c55bb32a600018302dc,61b9000aa5902d2cda5af693,2021-12-14_20h35.31.231,PRaM,2021.2.3,MacIntel,29.99580059,61b8f3437b89212fae0dfadf
9,10.0777,space,8.8468,0,131,131,53,1,,,5b987c55bb32a600018302dc,61b9000aa5902d2cda5af693,2021-12-14_20h35.31.231,PRaM,2021.2.3,MacIntel,29.99580059,61b8f3437b89212fae0dfadf
3,2.8711,space,1.2945,0,132,132,81,1,,,5b987c55bb32a600018302dc,61b9000aa5902d2cda5af693,2021-12-14_20h35.31.231,PRaM,2021.2.3,MacIntel,29.99580059,61b8f3437b89212fae0dfadf
7,3.7467,space,2.488,0,133,133,297,1,,,5b987c55bb32a600018302dc,61b9000aa5902d2cda5af693,2021-12-14_20h35.31.231,PRaM,2021.2.3,MacIntel,29.99580059,61b8f3437b89212fae0dfadf
6,2.9652,space,1.4135,0,134,134,90,1,,,5b987c55bb32a600018302dc,61b9000aa5902d2cda5af693,2021-12-14_20h35.31.231,PRaM,2021.2.3,MacIntel,29.99580059,61b8f3437b89212fae0dfadf
4,3.9755,space,2.5039,0,135,135,123,1,,,5b987c55bb32a600018302dc,61b9000aa5902d2cda5af693,2021-12-14_20h35.31.231,PRaM,2021.2.3,MacIntel,29.99580059,61b8f3437b89212fae0dfadf
9,2.5785,space,1.0438,0,136,136,320,1,,,5b987c55bb32a600018302dc,61b9000aa5902d2cda5af693,2021-12-14_20h35.31.231,PRaM,2021.2.3,MacIntel,29.99580059,61b8f3437b89212fae0dfadf
7,2.8081,space,1.2364,0,137,137,12,1,,,5b987c55bb32a600018302dc,61b9000aa5902d2cda5af693,2021-12-14_20h35.31.231,PRaM,2021.2.3,MacIntel,29.99580059,61b8f3437b89212fae0dfadf
3,3.0888,space,1.4514,0,138,138,184,1,,,5b987c55bb32a600018302dc,61b9000aa5902d2cda5af693,2021-12-14_20h35.31.231,PRaM,2021.2.3,MacIntel,29.99580059,61b8f3437b89212fae0dfadf
5,4.3707,space,2.7927,0,139,139,174,1,,,5b987c55bb32a600018302dc,61b9000aa5902d2cda5af693,2021-12-14_20h35.31.231,PRaM,2021.2.3,MacIntel,29.99580059,61b8f3437b89212fae0dfadf
6,2.2551,space,0.7338,0,140,140,177,1,,,5b987c55bb32a600018302dc,61b9000aa5902d2cda5af693,2021-12-14_20h35.31.231,PRaM,2021.2.3,MacIntel,29.99580059,61b8f3437b89212fae0dfadf
1,3.4638,space,1.8668,0,141,141,248,1,,,5b987c55bb32a600018302dc,61b9000aa5902d2cda5af693,2021-12-14_20h35.31.231,PRaM,2021.2.3,MacIntel,29.99580059,61b8f3437b89212fae0dfadf
2,3.3897,space,1.7913,0,142,142,129,1,,,5b987c55bb32a600018302dc,61b9000aa5902d2cda5af693,2021-12-14_20h35.31.231,PRaM,2021.2.3,MacIntel,29.99580059,61b8f3437b89212fae0dfadf
3,6.0835,space,4.4356,0,143,143,101,1,,,5b987c55bb32a600018302dc,61b9000aa5902d2cda5af693,2021-12-14_20h35.31.231,PRaM,2021.2.3,MacIntel,29.99580059,61b8f3437b89212fae0dfadf
2,7.1735,space,5.6041,0,144,144,131,1,,,5b987c55bb32a600018302dc,61b9000aa5902d2cda5af693,2021-12-14_20h35.31.231,PRaM,2021.2.3,MacIntel,29.99580059,61b8f3437b89212fae0dfadf
9,2.9729,space,1.6554,0,145,145,207,1,,,5b987c55bb32a600018302dc,61b9000aa5902d2cda5af693,2021-12-14_20h35.31.231,PRaM,2021.2.3,MacIntel,29.99580059,61b8f3437b89212fae0dfadf
7,4.0192,space,2.4815,0,146,146,343,1,,,5b987c55bb32a600018302dc,61b9000aa5902d2cda5af693,2021-12-14_20h35.31.231,PRaM,2021.2.3,MacIntel,29.99580059,61b8f3437b89212fae0dfadf
3,4.9508,space,3.3253,0,147,147,337,1,,,5b987c55bb32a600018302dc,61b9000aa5902d2cda5af693,2021-12-14_20h35.31.231,PRaM,2021.2.3,MacIntel,29.99580059,61b8f3437b89212fae0dfadf
3,3.685,space,2.0263,0,148,148,361,1,,,5b987c55bb32a600018302dc,61b9000aa5902d2cda5af693,2021-12-14_20h35.31.231,PRaM,2021.2.3,MacIntel,29.99580059,61b8f3437b89212fae0dfadf
8,4.5836,space,2.9562,0,149,149,83,1,,,5b987c55bb32a600018302dc,61b9000aa5902d2cda5af693,2021-12-14_20h35.31.231,PRaM,2021.2.3,MacIntel,29.99580059,61b8f3437b89212fae0dfadf
5,2.4035,space,0.7493,0,150,150,33,1,,,5b987c55bb32a600018302dc,61b9000aa5902d2cda5af693,2021-12-14_20h35.31.231,PRaM,2021.2.3,MacIntel,29.99580059,61b8f3437b89212fae0dfadf
3,2.8596,space,1.2522,0,151,151,145,1,,,5b987c55bb32a600018302dc,61b9000aa5902d2cda5af693,2021-12-14_20h35.31.231,PRaM,2021.2.3,MacIntel,29.99580059,61b8f3437b89212fae0dfadf
9,3.0817,space,1.6068,0,152,152,242,1,,,5b987c55bb32a600018302dc,61b9000aa5902d2cda5af693,2021-12-14_20h35.31.231,PRaM,2021.2.3,MacIntel,29.99580059,61b8f3437b89212fae0dfadf
4,4.7241,space,4.3491,0,153,153,74,1,,,5b987c55bb32a600018302dc,61b9000aa5902d2cda5af693,2021-12-14_20h35.31.231,PRaM,2021.2.3,MacIntel,29.99580059,61b8f3437b89212fae0dfadf
3,3.9747,space,2.4297,0,154,154,103,1,,,5b987c55bb32a600018302dc,61b9000aa5902d2cda5af693,2021-12-14_20h35.31.231,PRaM,2021.2.3,MacIntel,29.99580059,61b8f3437b89212fae0dfadf
5,4.2725,space,2.6243,0,155,155,203,1,,,5b987c55bb32a600018302dc,61b9000aa5902d2cda5af693,2021-12-14_20h35.31.231,PRaM,2021.2.3,MacIntel,29.99580059,61b8f3437b89212fae0dfadf
2,3.0988,space,1.7636,0,156,156,234,1,,,5b987c55bb32a600018302dc,61b9000aa5902d2cda5af693,2021-12-14_20h35.31.231,PRaM,2021.2.3,MacIntel,29.99580059,61b8f3437b89212fae0dfadf
7,2.9541,space,1.8035,0,157,157,88,1,,,5b987c55bb32a600018302dc,61b9000aa5902d2cda5af693,2021-12-14_20h35.31.231,PRaM,2021.2.3,MacIntel,29.99580059,61b8f3437b89212fae0dfadf
3,14.7392,space,14.486,0,158,158,169,1,,,5b987c55bb32a600018302dc,61b9000aa5902d2cda5af693,2021-12-14_20h35.31.231,PRaM,2021.2.3,MacIntel,29.99580059,61b8f3437b89212fae0dfadf
5,2.2244,space,0.5705,0,159,159,132,1,,,5b987c55bb32a600018302dc,61b9000aa5902d2cda5af693,2021-12-14_20h35.31.231,PRaM,2021.2.3,MacIntel,29.99580059,61b8f3437b89212fae0dfadf
1,3.1129,space,1.9393,0,160,160,266,1,,,5b987c55bb32a600018302dc,61b9000aa5902d2cda5af693,2021-12-14_20h35.31.231,PRaM,2021.2.3,MacIntel,29.99580059,61b8f3437b89212fae0dfadf
2,10.7791,space,9.2347,0,161,161,308,1,,,5b987c55bb32a600018302dc,61b9000aa5902d2cda5af693,2021-12-14_20h35.31.231,PRaM,2021.2.3,MacIntel,29.99580059,61b8f3437b89212fae0dfadf
6,3.7295,space,2.089,0,162,162,310,1,,,5b987c55bb32a600018302dc,61b9000aa5902d2cda5af693,2021-12-14_20h35.31.231,PRaM,2021.2.3,MacIntel,29.99580059,61b8f3437b89212fae0dfadf
7,2.1153,space,0.5157,0,163,163,274,1,,,5b987c55bb32a600018302dc,61b9000aa5902d2cda5af693,2021-12-14_20h35.31.231,PRaM,2021.2.3,MacIntel,29.99580059,61b8f3437b89212fae0dfadf
5,2.4092,space,0.8302,0,164,164,166,1,,,5b987c55bb32a600018302dc,61b9000aa5902d2cda5af693,2021-12-14_20h35.31.231,PRaM,2021.2.3,MacIntel,29.99580059,61b8f3437b89212fae0dfadf
4,2.8652,space,1.2868,0,165,165,97,1,,,5b987c55bb32a600018302dc,61b9000aa5902d2cda5af693,2021-12-14_20h35.31.231,PRaM,2021.2.3,MacIntel,29.99580059,61b8f3437b89212fae0dfadf
5,3.9339,space,2.2757,0,166,166,369,1,,,5b987c55bb32a600018302dc,61b9000aa5902d2cda5af693,2021-12-14_20h35.31.231,PRaM,2021.2.3,MacIntel,29.99580059,61b8f3437b89212fae0dfadf
6,3.1031,space,1.4792,0,167,167,364,1,,,5b987c55bb32a600018302dc,61b9000aa5902d2cda5af693,2021-12-14_20h35.31.231,PRaM,2021.2.3,MacIntel,29.99580059,61b8f3437b89212fae0dfadf
9,4.0288,space,2.5453,0,168,168,7,1,,,5b987c55bb32a600018302dc,61b9000aa5902d2cda5af693,2021-12-14_20h35.31.231,PRaM,2021.2.3,MacIntel,29.99580059,61b8f3437b89212fae0dfadf
6,3.3688,space,1.725,0,169,169,281,1,,,5b987c55bb32a600018302dc,61b9000aa5902d2cda5af693,2021-12-14_20h35.31.231,PRaM,2021.2.3,MacIntel,29.99580059,61b8f3437b89212fae0dfadf
5,2.2896,space,0.4924,0,170,170,161,1,,,5b987c55bb32a600018302dc,61b9000aa5902d2cda5af693,2021-12-14_20h35.31.231,PRaM,2021.2.3,MacIntel,29.99580059,61b8f3437b89212fae0dfadf
7,8.8054,space,7.5571,0,171,171,346,1,,,5b987c55bb32a600018302dc,61b9000aa5902d2cda5af693,2021-12-14_20h35.31.231,PRaM,2021.2.3,MacIntel,29.99580059,61b8f3437b89212fae0dfadf
9,2.577,space,0.9947,0,172,172,64,1,,,5b987c55bb32a600018302dc,61b9000aa5902d2cda5af693,2021-12-14_20h35.31.231,PRaM,2021.2.3,MacIntel,29.99580059,61b8f3437b89212fae0dfadf
8,2.3509,space,0.7669,0,173,173,239,1,,,5b987c55bb32a600018302dc,61b9000aa5902d2cda5af693,2021-12-14_20h35.31.231,PRaM,2021.2.3,MacIntel,29.99580059,61b8f3437b89212fae0dfadf
8,1.8201,space,0.3412,0,174,174,333,1,,,5b987c55bb32a600018302dc,61b9000aa5902d2cda5af693,2021-12-14_20h35.31.231,PRaM,2021.2.3,MacIntel,29.99580059,61b8f3437b89212fae0dfadf
9,3.7417,space,2.2309,0,175,175,3,1,,,5b987c55bb32a600018302dc,61b9000aa5902d2cda5af693,2021-12-14_20h35.31.231,PRaM,2021.2.3,MacIntel,29.99580059,61b8f3437b89212fae0dfadf
1,2.5168,space,0.9444,0,176,176,330,1,,,5b987c55bb32a600018302dc,61b9000aa5902d2cda5af693,2021-12-14_20h35.31.231,PRaM,2021.2.3,MacIntel,29.99580059,61b8f3437b89212fae0dfadf
3,3.3354,space,1.9553,0,177,177,26,1,,,5b987c55bb32a600018302dc,61b9000aa5902d2cda5af693,2021-12-14_20h35.31.231,PRaM,2021.2.3,MacIntel,29.99580059,61b8f3437b89212fae0dfadf
2,4.72,space,3.1246,0,178,178,172,1,,,5b987c55bb32a600018302dc,61b9000aa5902d2cda5af693,2021-12-14_20h35.31.231,PRaM,2021.2.3,MacIntel,29.99580059,61b8f3437b89212fae0dfadf
1,4.0406,space,2.4657,0,179,179,284,1,,,5b987c55bb32a600018302dc,61b9000aa5902d2cda5af693,2021-12-14_20h35.31.231,PRaM,2021.2.3,MacIntel,29.99580059,61b8f3437b89212fae0dfadf
8,2.7536,space,1.0864,0,180,180,331,1,,,5b987c55bb32a600018302dc,61b9000aa5902d2cda5af693,2021-12-14_20h35.31.231,PRaM,2021.2.3,MacIntel,29.99580059,61b8f3437b89212fae0dfadf
8,2.5979,space,1.5596,0,181,181,116,1,,,5b987c55bb32a600018302dc,61b9000aa5902d2cda5af693,2021-12-14_20h35.31.231,PRaM,2021.2.3,MacIntel,29.99580059,61b8f3437b89212fae0dfadf
9,2.084,space,0.509,0,182,182,244,1,,,5b987c55bb32a600018302dc,61b9000aa5902d2cda5af693,2021-12-14_20h35.31.231,PRaM,2021.2.3,MacIntel,29.99580059,61b8f3437b89212fae0dfadf
8,5.4281,space,3.8611,0,183,183,282,1,,,5b987c55bb32a600018302dc,61b9000aa5902d2cda5af693,2021-12-14_20h35.31.231,PRaM,2021.2.3,MacIntel,29.99580059,61b8f3437b89212fae0dfadf
6,4.3708,space,2.8548,0,184,184,13,1,,,5b987c55bb32a600018302dc,61b9000aa5902d2cda5af693,2021-12-14_20h35.31.231,PRaM,2021.2.3,MacIntel,29.99580059,61b8f3437b89212fae0dfadf
3,3.4572,space,1.8649,0,185,185,263,1,,,5b987c55bb32a600018302dc,61b9000aa5902d2cda5af693,2021-12-14_20h35.31.231,PRaM,2021.2.3,MacIntel,29.99580059,61b8f3437b89212fae0dfadf
1,6.2837,space,4.8763,0,186,186,289,1,,,5b987c55bb32a600018302dc,61b9000aa5902d2cda5af693,2021-12-14_20h35.31.231,PRaM,2021.2.3,MacIntel,29.99580059,61b8f3437b89212fae0dfadf
1,4.8337,space,3.2338,0,187,187,157,1,,,5b987c55bb32a600018302dc,61b9000aa5902d2cda5af693,2021-12-14_20h35.31.231,PRaM,2021.2.3,MacIntel,29.99580059,61b8f3437b89212fae0dfadf
,,space,2.5854,0,188,188,136,1,,,5b987c55bb32a600018302dc,61b9000aa5902d2cda5af693,2021-12-14_20h35.31.231,PRaM,2021.2.3,MacIntel,29.99580059,61b8f3437b89212fae0dfadf
7,10.0581,space,8.5247,0,189,189,93,1,,,5b987c55bb32a600018302dc,61b9000aa5902d2cda5af693,2021-12-14_20h35.31.231,PRaM,2021.2.3,MacIntel,29.99580059,61b8f3437b89212fae0dfadf
9,7.7862,space,6.2204,0,190,190,42,1,,,5b987c55bb32a600018302dc,61b9000aa5902d2cda5af693,2021-12-14_20h35.31.231,PRaM,2021.2.3,MacIntel,29.99580059,61b8f3437b89212fae0dfadf
2,3.971,space,2.4372,0,191,191,133,1,,,5b987c55bb32a600018302dc,61b9000aa5902d2cda5af693,2021-12-14_20h35.31.231,PRaM,2021.2.3,MacIntel,29.99580059,61b8f3437b89212fae0dfadf
7,2.2906,space,0.6383,0,192,192,200,1,,,5b987c55bb32a600018302dc,61b9000aa5902d2cda5af693,2021-12-14_20h35.31.231,PRaM,2021.2.3,MacIntel,29.99580059,61b8f3437b89212fae0dfadf
4,2.36,space,0.8756,0,193,193,202,1,,,5b987c55bb32a600018302dc,61b9000aa5902d2cda5af693,2021-12-14_20h35.31.231,PRaM,2021.2.3,MacIntel,29.99580059,61b8f3437b89212fae0dfadf
1,7.4124,space,6.0036,0,194,194,257,1,,,5b987c55bb32a600018302dc,61b9000aa5902d2cda5af693,2021-12-14_20h35.31.231,PRaM,2021.2.3,MacIntel,29.99580059,61b8f3437b89212fae0dfadf
8,2.2907,space,0.6832,0,195,195,291,1,,,5b987c55bb32a600018302dc,61b9000aa5902d2cda5af693,2021-12-14_20h35.31.231,PRaM,2021.2.3,MacIntel,29.99580059,61b8f3437b89212fae0dfadf
1,3.0432,space,1.4741,0,196,196,315,1,,,5b987c55bb32a600018302dc,61b9000aa5902d2cda5af693,2021-12-14_20h35.31.231,PRaM,2021.2.3,MacIntel,29.99580059,61b8f3437b89212fae0dfadf
8,4.5161,space,3.0599,0,197,197,372,1,,,5b987c55bb32a600018302dc,61b9000aa5902d2cda5af693,2021-12-14_20h35.31.231,PRaM,2021.2.3,MacIntel,29.99580059,61b8f3437b89212fae0dfadf
2,2.5637,space,0.9929,0,198,198,109,1,,,5b987c55bb32a600018302dc,61b9000aa5902d2cda5af693,2021-12-14_20h35.31.231,PRaM,2021.2.3,MacIntel,29.99580059,61b8f3437b89212fae0dfadf
3,4.7174,space,3.1772,0,199,199,319,1,,,5b987c55bb32a600018302dc,61b9000aa5902d2cda5af693,2021-12-14_20h35.31.231,PRaM,2021.2.3,MacIntel,29.99580059,61b8f3437b89212fae0dfadf
1,3.6857,space,2.2268,0,200,200,106,1,,,5b987c55bb32a600018302dc,61b9000aa5902d2cda5af693,2021-12-14_20h35.31.231,PRaM,2021.2.3,MacIntel,29.99580059,61b8f3437b89212fae0dfadf
7,2.9199,space,1.2806,0,201,201,267,1,,,5b987c55bb32a600018302dc,61b9000aa5902d2cda5af693,2021-12-14_20h35.31.231,PRaM,2021.2.3,MacIntel,29.99580059,61b8f3437b89212fae0dfadf
4,3.5741,space,1.9821,0,202,202,342,1,,,5b987c55bb32a600018302dc,61b9000aa5902d2cda5af693,2021-12-14_20h35.31.231,PRaM,2021.2.3,MacIntel,29.99580059,61b8f3437b89212fae0dfadf
5,2.3671,space,0.6191,0,203,203,296,1,,,5b987c55bb32a600018302dc,61b9000aa5902d2cda5af693,2021-12-14_20h35.31.231,PRaM,2021.2.3,MacIntel,29.99580059,61b8f3437b89212fae0dfadf
5,1.829,space,1.1534,0,204,204,119,1,,,5b987c55bb32a600018302dc,61b9000aa5902d2cda5af693,2021-12-14_20h35.31.231,PRaM,2021.2.3,MacIntel,29.99580059,61b8f3437b89212fae0dfadf
7,1.8175,space,0.1943,0,205,205,348,1,,,5b987c55bb32a600018302dc,61b9000aa5902d2cda5af693,2021-12-14_20h35.31.231,PRaM,2021.2.3,MacIntel,29.99580059,61b8f3437b89212fae0dfadf
9,2.7983,space,1.2511,0,206,206,137,1,,,5b987c55bb32a600018302dc,61b9000aa5902d2cda5af693,2021-12-14_20h35.31.231,PRaM,2021.2.3,MacIntel,29.99580059,61b8f3437b89212fae0dfadf
5,3.4021,space,1.7675,0,207,207,140,1,,,5b987c55bb32a600018302dc,61b9000aa5902d2cda5af693,2021-12-14_20h35.31.231,PRaM,2021.2.3,MacIntel,29.99580059,61b8f3437b89212fae0dfadf
1,9.41,space,7.9824,0,208,208,215,1,,,5b987c55bb32a600018302dc,61b9000aa5902d2cda5af693,2021-12-14_20h35.31.231,PRaM,2021.2.3,MacIntel,29.99580059,61b8f3437b89212fae0dfadf
8,2.6575,space,1.1363,0,209,209,301,1,,,5b987c55bb32a600018302dc,61b9000aa5902d2cda5af693,2021-12-14_20h35.31.231,PRaM,2021.2.3,MacIntel,29.99580059,61b8f3437b89212fae0dfadf
9,5.1191,space,3.5331,0,210,210,278,1,,,5b987c55bb32a600018302dc,61b9000aa5902d2cda5af693,2021-12-14_20h35.31.231,PRaM,2021.2.3,MacIntel,29.99580059,61b8f3437b89212fae0dfadf
4,6.0412,space,4.4113,0,211,211,252,1,,,5b987c55bb32a600018302dc,61b9000aa5902d2cda5af693,2021-12-14_20h35.31.231,PRaM,2021.2.3,MacIntel,29.99580059,61b8f3437b89212fae0dfadf
7,2.8932,space,1.2967,0,212,212,156,1,,,5b987c55bb32a600018302dc,61b9000aa5902d2cda5af693,2021-12-14_20h35.31.231,PRaM,2021.2.3,MacIntel,29.99580059,61b8f3437b89212fae0dfadf
8,1.8542,space,0.195,0,213,213,335,1,,,5b987c55bb32a600018302dc,61b9000aa5902d2cda5af693,2021-12-14_20h35.31.231,PRaM,2021.2.3,MacIntel,29.99580059,61b8f3437b89212fae0dfadf
7,2.2843,space,0.6916,0,214,214,357,1,,,5b987c55bb32a600018302dc,61b9000aa5902d2cda5af693,2021-12-14_20h35.31.231,PRaM,2021.2.3,MacIntel,29.99580059,61b8f3437b89212fae0dfadf
8,3.4864,space,1.8688,0,215,215,162,1,,,5b987c55bb32a600018302dc,61b9000aa5902d2cda5af693,2021-12-14_20h35.31.231,PRaM,2021.2.3,MacIntel,29.99580059,61b8f3437b89212fae0dfadf
3,3.213,space,1.5638,0,216,216,1,1,,,5b987c55bb32a600018302dc,61b9000aa5902d2cda5af693,2021-12-14_20h35.31.231,PRaM,2021.2.3,MacIntel,29.99580059,61b8f3437b89212fae0dfadf
5,2.5125,space,0.97,0,217,217,340,1,,,5b987c55bb32a600018302dc,61b9000aa5902d2cda5af693,2021-12-14_20h35.31.231,PRaM,2021.2.3,MacIntel,29.99580059,61b8f3437b89212fae0dfadf
6,2.2627,space,0.6019,0,218,218,153,1,,,5b987c55bb32a600018302dc,61b9000aa5902d2cda5af693,2021-12-14_20h35.31.231,PRaM,2021.2.3,MacIntel,29.99580059,61b8f3437b89212fae0dfadf
5,3.1394,space,1.5602,0,219,219,295,1,,,5b987c55bb32a600018302dc,61b9000aa5902d2cda5af693,2021-12-14_20h35.31.231,PRaM,2021.2.3,MacIntel,29.99580059,61b8f3437b89212fae0dfadf
2,2.7539,space,1.0852,0,220,220,292,1,,,5b987c55bb32a600018302dc,61b9000aa5902d2cda5af693,2021-12-14_20h35.31.231,PRaM,2021.2.3,MacIntel,29.99580059,61b8f3437b89212fae0dfadf
2,2.4293,space,0.8493,0,221,221,125,1,,,5b987c55bb32a600018302dc,61b9000aa5902d2cda5af693,2021-12-14_20h35.31.231,PRaM,2021.2.3,MacIntel,29.99580059,61b8f3437b89212fae0dfadf
1,3.0749,space,1.5591,0,222,222,54,1,,,5b987c55bb32a600018302dc,61b9000aa5902d2cda5af693,2021-12-14_20h35.31.231,PRaM,2021.2.3,MacIntel,29.99580059,61b8f3437b89212fae0dfadf
7,2.9113,space,1.391,0,223,223,350,1,,,5b987c55bb32a600018302dc,61b9000aa5902d2cda5af693,2021-12-14_20h35.31.231,PRaM,2021.2.3,MacIntel,29.99580059,61b8f3437b89212fae0dfadf
4,2.5018,space,0.8906,0,224,224,122,1,,,5b987c55bb32a600018302dc,61b9000aa5902d2cda5af693,2021-12-14_20h35.31.231,PRaM,2021.2.3,MacIntel,29.99580059,61b8f3437b89212fae0dfadf
1,14.771,space,13.8132,0,225,225,35,1,,,5b987c55bb32a600018302dc,61b9000aa5902d2cda5af693,2021-12-14_20h35.31.231,PRaM,2021.2.3,MacIntel,29.99580059,61b8f3437b89212fae0dfadf
6,4.6411,space,3.4929,0,226,226,139,1,,,5b987c55bb32a600018302dc,61b9000aa5902d2cda5af693,2021-12-14_20h35.31.231,PRaM,2021.2.3,MacIntel,29.99580059,61b8f3437b89212fae0dfadf
9,3.3834,space,1.7657,0,227,227,59,1,,,5b987c55bb32a600018302dc,61b9000aa5902d2cda5af693,2021-12-14_20h35.31.231,PRaM,2021.2.3,MacIntel,29.99580059,61b8f3437b89212fae0dfadf
8,3.8223,space,2.24,0,228,228,180,1,,,5b987c55bb32a600018302dc,61b9000aa5902d2cda5af693,2021-12-14_20h35.31.231,PRaM,2021.2.3,MacIntel,29.99580059,61b8f3437b89212fae0dfadf
1,4.1802,space,2.615,0,229,229,77,1,,,5b987c55bb32a600018302dc,61b9000aa5902d2cda5af693,2021-12-14_20h35.31.231,PRaM,2021.2.3,MacIntel,29.99580059,61b8f3437b89212fae0dfadf
4,4.2876,space,2.7086,0,230,230,36,1,,,5b987c55bb32a600018302dc,61b9000aa5902d2cda5af693,2021-12-14_20h35.31.231,PRaM,2021.2.3,MacIntel,29.99580059,61b8f3437b89212fae0dfadf
3,3.9373,space,2.3167,0,231,231,40,1,,,5b987c55bb32a600018302dc,61b9000aa5902d2cda5af693,2021-12-14_20h35.31.231,PRaM,2021.2.3,MacIntel,29.99580059,61b8f3437b89212fae0dfadf
6,2.9388,space,1.3853,0,232,232,324,1,,,5b987c55bb32a600018302dc,61b9000aa5902d2cda5af693,2021-12-14_20h35.31.231,PRaM,2021.2.3,MacIntel,29.99580059,61b8f3437b89212fae0dfadf
2,3.9492,space,2.3429,0,233,233,95,1,,,5b987c55bb32a600018302dc,61b9000aa5902d2cda5af693,2021-12-14_20h35.31.231,PRaM,2021.2.3,MacIntel,29.99580059,61b8f3437b89212fae0dfadf
5,3.1158,space,1.6243,0,234,234,355,1,,,5b987c55bb32a600018302dc,61b9000aa5902d2cda5af693,2021-12-14_20h35.31.231,PRaM,2021.2.3,MacIntel,29.99580059,61b8f3437b89212fae0dfadf
4,4.1269,space,2.6284,0,235,235,39,1,,,5b987c55bb32a600018302dc,61b9000aa5902d2cda5af693,2021-12-14_20h35.31.231,PRaM,2021.2.3,MacIntel,29.99580059,61b8f3437b89212fae0dfadf
6,6.9691,space,5.3501,0,236,236,175,1,,,5b987c55bb32a600018302dc,61b9000aa5902d2cda5af693,2021-12-14_20h35.31.231,PRaM,2021.2.3,MacIntel,29.99580059,61b8f3437b89212fae0dfadf
2,3.1912,space,1.576,0,237,237,245,1,,,5b987c55bb32a600018302dc,61b9000aa5902d2cda5af693,2021-12-14_20h35.31.231,PRaM,2021.2.3,MacIntel,29.99580059,61b8f3437b89212fae0dfadf
3,5.6084,space,4.3038,0,238,238,44,1,,,5b987c55bb32a600018302dc,61b9000aa5902d2cda5af693,2021-12-14_20h35.31.231,PRaM,2021.2.3,MacIntel,29.99580059,61b8f3437b89212fae0dfadf
2,5.6924,space,4.1163,0,239,239,265,1,,,5b987c55bb32a600018302dc,61b9000aa5902d2cda5af693,2021-12-14_20h35.31.231,PRaM,2021.2.3,MacIntel,29.99580059,61b8f3437b89212fae0dfadf
6,3.7695,space,2.445,0,240,240,241,1,,,5b987c55bb32a600018302dc,61b9000aa5902d2cda5af693,2021-12-14_20h35.31.231,PRaM,2021.2.3,MacIntel,29.99580059,61b8f3437b89212fae0dfadf
9,4.2491,space,2.6463,0,241,241,85,1,,,5b987c55bb32a600018302dc,61b9000aa5902d2cda5af693,2021-12-14_20h35.31.231,PRaM,2021.2.3,MacIntel,29.99580059,61b8f3437b89212fae0dfadf
5,3.057,space,1.424,0,242,242,183,1,,,5b987c55bb32a600018302dc,61b9000aa5902d2cda5af693,2021-12-14_20h35.31.231,PRaM,2021.2.3,MacIntel,29.99580059,61b8f3437b89212fae0dfadf
3,4.2978,space,2.7006,0,243,243,2,1,,,5b987c55bb32a600018302dc,61b9000aa5902d2cda5af693,2021-12-14_20h35.31.231,PRaM,2021.2.3,MacIntel,29.99580059,61b8f3437b89212fae0dfadf
7,3.2329,space,1.6107,0,244,244,305,1,,,5b987c55bb32a600018302dc,61b9000aa5902d2cda5af693,2021-12-14_20h35.31.231,PRaM,2021.2.3,MacIntel,29.99580059,61b8f3437b89212fae0dfadf
1,6.4052,space,4.8451,0,245,245,353,1,,,5b987c55bb32a600018302dc,61b9000aa5902d2cda5af693,2021-12-14_20h35.31.231,PRaM,2021.2.3,MacIntel,29.99580059,61b8f3437b89212fae0dfadf
9,7.0158,space,5.4936,0,246,246,366,1,,,5b987c55bb32a600018302dc,61b9000aa5902d2cda5af693,2021-12-14_20h35.31.231,PRaM,2021.2.3,MacIntel,29.99580059,61b8f3437b89212fae0dfadf
4,3.3045,space,1.6996,0,247,247,155,1,,,5b987c55bb32a600018302dc,61b9000aa5902d2cda5af693,2021-12-14_20h35.31.231,PRaM,2021.2.3,MacIntel,29.99580059,61b8f3437b89212fae0dfadf
9,2.0821,space,0.4287,0,248,248,61,1,,,5b987c55bb32a600018302dc,61b9000aa5902d2cda5af693,2021-12-14_20h35.31.231,PRaM,2021.2.3,MacIntel,29.99580059,61b8f3437b89212fae0dfadf
2,2.8998,space,1.3326,0,249,249,10,1,,,5b987c55bb32a600018302dc,61b9000aa5902d2cda5af693,2021-12-14_20h35.31.231,PRaM,2021.2.3,MacIntel,29.99580059,61b8f3437b89212fae0dfadf
4,6.5771,space,4.98,0,250,250,365,1,,,5b987c55bb32a600018302dc,61b9000aa5902d2cda5af693,2021-12-14_20h35.31.231,PRaM,2021.2.3,MacIntel,29.99580059,61b8f3437b89212fae0dfadf
8,3.3691,space,1.7738,0,251,251,211,1,,,5b987c55bb32a600018302dc,61b9000aa5902d2cda5af693,2021-12-14_20h35.31.231,PRaM,2021.2.3,MacIntel,29.99580059,61b8f3437b89212fae0dfadf
9,4.7984,space,3.346,0,252,252,168,1,,,5b987c55bb32a600018302dc,61b9000aa5902d2cda5af693,2021-12-14_20h35.31.231,PRaM,2021.2.3,MacIntel,29.99580059,61b8f3437b89212fae0dfadf
3,2.5948,space,1.0141,0,253,253,332,1,,,5b987c55bb32a600018302dc,61b9000aa5902d2cda5af693,2021-12-14_20h35.31.231,PRaM,2021.2.3,MacIntel,29.99580059,61b8f3437b89212fae0dfadf
4,4.3863,space,2.9505,0,254,254,373,1,,,5b987c55bb32a600018302dc,61b9000aa5902d2cda5af693,2021-12-14_20h35.31.231,PRaM,2021.2.3,MacIntel,29.99580059,61b8f3437b89212fae0dfadf
2,3.8645,space,3.1837,0,255,255,250,1,,,5b987c55bb32a600018302dc,61b9000aa5902d2cda5af693,2021-12-14_20h35.31.231,PRaM,2021.2.3,MacIntel,29.99580059,61b8f3437b89212fae0dfadf
2,12.1674,space,10.5552,0,256,256,237,1,,,5b987c55bb32a600018302dc,61b9000aa5902d2cda5af693,2021-12-14_20h35.31.231,PRaM,2021.2.3,MacIntel,29.99580059,61b8f3437b89212fae0dfadf
3,2.3593,space,0.7205,0,257,257,336,1,,,5b987c55bb32a600018302dc,61b9000aa5902d2cda5af693,2021-12-14_20h35.31.231,PRaM,2021.2.3,MacIntel,29.99580059,61b8f3437b89212fae0dfadf
3,3.9813,space,2.4055,0,258,258,191,1,,,5b987c55bb32a600018302dc,61b9000aa5902d2cda5af693,2021-12-14_20h35.31.231,PRaM,2021.2.3,MacIntel,29.99580059,61b8f3437b89212fae0dfadf
4,4.9651,space,3.4822,0,259,259,98,1,,,5b987c55bb32a600018302dc,61b9000aa5902d2cda5af693,2021-12-14_20h35.31.231,PRaM,2021.2.3,MacIntel,29.99580059,61b8f3437b89212fae0dfadf
1,4.7818,space,3.4482,0,260,260,293,1,,,5b987c55bb32a600018302dc,61b9000aa5902d2cda5af693,2021-12-14_20h35.31.231,PRaM,2021.2.3,MacIntel,29.99580059,61b8f3437b89212fae0dfadf
9,3.8783,space,2.2545,0,261,261,285,1,,,5b987c55bb32a600018302dc,61b9000aa5902d2cda5af693,2021-12-14_20h35.31.231,PRaM,2021.2.3,MacIntel,29.99580059,61b8f3437b89212fae0dfadf
5,6.813,space,5.1172,0,262,262,358,1,,,5b987c55bb32a600018302dc,61b9000aa5902d2cda5af693,2021-12-14_20h35.31.231,PRaM,2021.2.3,MacIntel,29.99580059,61b8f3437b89212fae0dfadf
7,4.9948,space,3.3766,0,263,263,86,1,,,5b987c55bb32a600018302dc,61b9000aa5902d2cda5af693,2021-12-14_20h35.31.231,PRaM,2021.2.3,MacIntel,29.99580059,61b8f3437b89212fae0dfadf
2,2.9192,space,1.2788,0,264,264,260,1,,,5b987c55bb32a600018302dc,61b9000aa5902d2cda5af693,2021-12-14_20h35.31.231,PRaM,2021.2.3,MacIntel,29.99580059,61b8f3437b89212fae0dfadf
8,6.7252,space,5.0414,0,265,265,135,1,,,5b987c55bb32a600018302dc,61b9000aa5902d2cda5af693,2021-12-14_20h35.31.231,PRaM,2021.2.3,MacIntel,29.99580059,61b8f3437b89212fae0dfadf
5,2.1188,space,0.5231,0,266,266,299,1,,,5b987c55bb32a600018302dc,61b9000aa5902d2cda5af693,2021-12-14_20h35.31.231,PRaM,2021.2.3,MacIntel,29.99580059,61b8f3437b89212fae0dfadf
9,2.7758,space,1.1885,0,267,267,222,1,,,5b987c55bb32a600018302dc,61b9000aa5902d2cda5af693,2021-12-14_20h35.31.231,PRaM,2021.2.3,MacIntel,29.99580059,61b8f3437b89212fae0dfadf
7,3.1772,space,1.8567,0,268,268,46,1,,,5b987c55bb32a600018302dc,61b9000aa5902d2cda5af693,2021-12-14_20h35.31.231,PRaM,2021.2.3,MacIntel,29.99580059,61b8f3437b89212fae0dfadf
5,3.0477,space,1.5164,0,269,269,48,1,,,5b987c55bb32a600018302dc,61b9000aa5902d2cda5af693,2021-12-14_20h35.31.231,PRaM,2021.2.3,MacIntel,29.99580059,61b8f3437b89212fae0dfadf
7,5.55,space,4.0112,0,270,270,120,1,,,5b987c55bb32a600018302dc,61b9000aa5902d2cda5af693,2021-12-14_20h35.31.231,PRaM,2021.2.3,MacIntel,29.99580059,61b8f3437b89212fae0dfadf
9,3.6269,space,2.0001,0,271,271,20,1,,,5b987c55bb32a600018302dc,61b9000aa5902d2cda5af693,2021-12-14_20h35.31.231,PRaM,2021.2.3,MacIntel,29.99580059,61b8f3437b89212fae0dfadf
8,1.9461,space,0.3096,0,272,272,199,1,,,5b987c55bb32a600018302dc,61b9000aa5902d2cda5af693,2021-12-14_20h35.31.231,PRaM,2021.2.3,MacIntel,29.99580059,61b8f3437b89212fae0dfadf
4,4.0543,space,2.8549,0,273,273,317,1,,,5b987c55bb32a600018302dc,61b9000aa5902d2cda5af693,2021-12-14_20h35.31.231,PRaM,2021.2.3,MacIntel,29.99580059,61b8f3437b89212fae0dfadf
8,10.6156,space,9.0017,0,274,274,51,1,,,5b987c55bb32a600018302dc,61b9000aa5902d2cda5af693,2021-12-14_20h35.31.231,PRaM,2021.2.3,MacIntel,29.99580059,61b8f3437b89212fae0dfadf
8,5.1128,space,3.4233,0,275,275,255,1,,,5b987c55bb32a600018302dc,61b9000aa5902d2cda5af693,2021-12-14_20h35.31.231,PRaM,2021.2.3,MacIntel,29.99580059,61b8f3437b89212fae0dfadf
3,4.4581,space,2.9115,0,276,276,360,1,,,5b987c55bb32a600018302dc,61b9000aa5902d2cda5af693,2021-12-14_20h35.31.231,PRaM,2021.2.3,MacIntel,29.99580059,61b8f3437b89212fae0dfadf
7,2.8076,space,1.1871,0,277,277,178,1,,,5b987c55bb32a600018302dc,61b9000aa5902d2cda5af693,2021-12-14_20h35.31.231,PRaM,2021.2.3,MacIntel,29.99580059,61b8f3437b89212fae0dfadf
5,2.6684,space,0.9961,0,278,278,318,1,,,5b987c55bb32a600018302dc,61b9000aa5902d2cda5af693,2021-12-14_20h35.31.231,PRaM,2021.2.3,MacIntel,29.99580059,61b8f3437b89212fae0dfadf
3,3.8973,space,2.1034,0,279,279,367,1,,,5b987c55bb32a600018302dc,61b9000aa5902d2cda5af693,2021-12-14_20h35.31.231,PRaM,2021.2.3,MacIntel,29.99580059,61b8f3437b89212fae0dfadf
5,3.0991,space,1.3373,0,280,280,91,1,,,5b987c55bb32a600018302dc,61b9000aa5902d2cda5af693,2021-12-14_20h35.31.231,PRaM,2021.2.3,MacIntel,29.99580059,61b8f3437b89212fae0dfadf
8,4.6358,space,3.0088,0,281,281,117,1,,,5b987c55bb32a600018302dc,61b9000aa5902d2cda5af693,2021-12-14_20h35.31.231,PRaM,2021.2.3,MacIntel,29.99580059,61b8f3437b89212fae0dfadf
3,2.709,space,0.9994,0,282,282,49,1,,,5b987c55bb32a600018302dc,61b9000aa5902d2cda5af693,2021-12-14_20h35.31.231,PRaM,2021.2.3,MacIntel,29.99580059,61b8f3437b89212fae0dfadf
2,2.7789,space,1.1743,0,283,283,287,1,,,5b987c55bb32a600018302dc,61b9000aa5902d2cda5af693,2021-12-14_20h35.31.231,PRaM,2021.2.3,MacIntel,29.99580059,61b8f3437b89212fae0dfadf
7,2.5253,space,0.7517,0,284,284,32,1,,,5b987c55bb32a600018302dc,61b9000aa5902d2cda5af693,2021-12-14_20h35.31.231,PRaM,2021.2.3,MacIntel,29.99580059,61b8f3437b89212fae0dfadf
8,2.2208,space,0.6472,0,285,285,19,1,,,5b987c55bb32a600018302dc,61b9000aa5902d2cda5af693,2021-12-14_20h35.31.231,PRaM,2021.2.3,MacIntel,29.99580059,61b8f3437b89212fae0dfadf
3,3.6532,space,2.0407,0,286,286,272,1,,,5b987c55bb32a600018302dc,61b9000aa5902d2cda5af693,2021-12-14_20h35.31.231,PRaM,2021.2.3,MacIntel,29.99580059,61b8f3437b89212fae0dfadf
8,3.672,space,2.0942,0,287,287,165,1,,,5b987c55bb32a600018302dc,61b9000aa5902d2cda5af693,2021-12-14_20h35.31.231,PRaM,2021.2.3,MacIntel,29.99580059,61b8f3437b89212fae0dfadf
9,4.7694,space,3.179,0,288,288,173,1,,,5b987c55bb32a600018302dc,61b9000aa5902d2cda5af693,2021-12-14_20h35.31.231,PRaM,2021.2.3,MacIntel,29.99580059,61b8f3437b89212fae0dfadf
8,2.4332,space,0.8846,0,289,289,62,1,,,5b987c55bb32a600018302dc,61b9000aa5902d2cda5af693,2021-12-14_20h35.31.231,PRaM,2021.2.3,MacIntel,29.99580059,61b8f3437b89212fae0dfadf
2,2.7205,space,1.6525,0,290,290,212,1,,,5b987c55bb32a600018302dc,61b9000aa5902d2cda5af693,2021-12-14_20h35.31.231,PRaM,2021.2.3,MacIntel,29.99580059,61b8f3437b89212fae0dfadf
5,13.3286,space,11.7688,0,291,291,306,1,,,5b987c55bb32a600018302dc,61b9000aa5902d2cda5af693,2021-12-14_20h35.31.231,PRaM,2021.2.3,MacIntel,29.99580059,61b8f3437b89212fae0dfadf
2,8.2413,space,7.1204,0,292,292,338,1,,,5b987c55bb32a600018302dc,61b9000aa5902d2cda5af693,2021-12-14_20h35.31.231,PRaM,2021.2.3,MacIntel,29.99580059,61b8f3437b89212fae0dfadf
5,4.6686,space,3.5405,0,293,293,164,1,,,5b987c55bb32a600018302dc,61b9000aa5902d2cda5af693,2021-12-14_20h35.31.231,PRaM,2021.2.3,MacIntel,29.99580059,61b8f3437b89212fae0dfadf
4,2.1312,space,0.7256,0,294,294,362,1,,,5b987c55bb32a600018302dc,61b9000aa5902d2cda5af693,2021-12-14_20h35.31.231,PRaM,2021.2.3,MacIntel,29.99580059,61b8f3437b89212fae0dfadf
7,4.8371,space,3.2195,0,295,295,193,1,,,5b987c55bb32a600018302dc,61b9000aa5902d2cda5af693,2021-12-14_20h35.31.231,PRaM,2021.2.3,MacIntel,29.99580059,61b8f3437b89212fae0dfadf
2,3.0546,space,1.4226,0,296,296,146,1,,,5b987c55bb32a600018302dc,61b9000aa5902d2cda5af693,2021-12-14_20h35.31.231,PRaM,2021.2.3,MacIntel,29.99580059,61b8f3437b89212fae0dfadf
1,5.7589,space,4.1436,0,297,297,227,1,,,5b987c55bb32a600018302dc,61b9000aa5902d2cda5af693,2021-12-14_20h35.31.231,PRaM,2021.2.3,MacIntel,29.99580059,61b8f3437b89212fae0dfadf
8,2.4877,space,0.9918,0,298,298,67,1,,,5b987c55bb32a600018302dc,61b9000aa5902d2cda5af693,2021-12-14_20h35.31.231,PRaM,2021.2.3,MacIntel,29.99580059,61b8f3437b89212fae0dfadf
5,5.3732,space,3.8549,0,299,299,4,1,,,5b987c55bb32a600018302dc,61b9000aa5902d2cda5af693,2021-12-14_20h35.31.231,PRaM,2021.2.3,MacIntel,29.99580059,61b8f3437b89212fae0dfadf
2,3.1197,space,1.5253,0,300,300,50,1,,,5b987c55bb32a600018302dc,61b9000aa5902d2cda5af693,2021-12-14_20h35.31.231,PRaM,2021.2.3,MacIntel,29.99580059,61b8f3437b89212fae0dfadf
6,5.2645,space,3.8155,0,301,301,151,1,,,5b987c55bb32a600018302dc,61b9000aa5902d2cda5af693,2021-12-14_20h35.31.231,PRaM,2021.2.3,MacIntel,29.99580059,61b8f3437b89212fae0dfadf
7,1.9434,space,0.3583,0,302,302,76,1,,,5b987c55bb32a600018302dc,61b9000aa5902d2cda5af693,2021-12-14_20h35.31.231,PRaM,2021.2.3,MacIntel,29.99580059,61b8f3437b89212fae0dfadf
5,4.3586,space,2.6744,0,303,303,28,1,,,5b987c55bb32a600018302dc,61b9000aa5902d2cda5af693,2021-12-14_20h35.31.231,PRaM,2021.2.3,MacIntel,29.99580059,61b8f3437b89212fae0dfadf
3,3.1744,space,1.5574,0,304,304,377,1,,,5b987c55bb32a600018302dc,61b9000aa5902d2cda5af693,2021-12-14_20h35.31.231,PRaM,2021.2.3,MacIntel,29.99580059,61b8f3437b89212fae0dfadf
2,4.6743,space,3.0263,0,305,305,210,1,,,5b987c55bb32a600018302dc,61b9000aa5902d2cda5af693,2021-12-14_20h35.31.231,PRaM,2021.2.3,MacIntel,29.99580059,61b8f3437b89212fae0dfadf
1,2.6127,space,1.0532,0,306,306,89,1,,,5b987c55bb32a600018302dc,61b9000aa5902d2cda5af693,2021-12-14_20h35.31.231,PRaM,2021.2.3,MacIntel,29.99580059,61b8f3437b89212fae0dfadf
9,3.2112,space,1.6689,0,307,307,323,1,,,5b987c55bb32a600018302dc,61b9000aa5902d2cda5af693,2021-12-14_20h35.31.231,PRaM,2021.2.3,MacIntel,29.99580059,61b8f3437b89212fae0dfadf
4,3.8987,space,2.2763,0,308,308,314,1,,,5b987c55bb32a600018302dc,61b9000aa5902d2cda5af693,2021-12-14_20h35.31.231,PRaM,2021.2.3,MacIntel,29.99580059,61b8f3437b89212fae0dfadf
8,2.2659,space,0.639,0,309,309,304,1,,,5b987c55bb32a600018302dc,61b9000aa5902d2cda5af693,2021-12-14_20h35.31.231,PRaM,2021.2.3,MacIntel,29.99580059,61b8f3437b89212fae0dfadf
5,2.481,space,0.7408,0,310,310,56,1,,,5b987c55bb32a600018302dc,61b9000aa5902d2cda5af693,2021-12-14_20h35.31.231,PRaM,2021.2.3,MacIntel,29.99580059,61b8f3437b89212fae0dfadf
6,1.7598,space,0.2454,0,311,311,87,1,,,5b987c55bb32a600018302dc,61b9000aa5902d2cda5af693,2021-12-14_20h35.31.231,PRaM,2021.2.3,MacIntel,29.99580059,61b8f3437b89212fae0dfadf
4,8.3348,space,6.7673,0,312,312,179,1,,,5b987c55bb32a600018302dc,61b9000aa5902d2cda5af693,2021-12-14_20h35.31.231,PRaM,2021.2.3,MacIntel,29.99580059,61b8f3437b89212fae0dfadf
2,6.4908,space,4.8774,0,313,313,92,1,,,5b987c55bb32a600018302dc,61b9000aa5902d2cda5af693,2021-12-14_20h35.31.231,PRaM,2021.2.3,MacIntel,29.99580059,61b8f3437b89212fae0dfadf
8,2.4929,space,0.9268,0,314,314,221,1,,,5b987c55bb32a600018302dc,61b9000aa5902d2cda5af693,2021-12-14_20h35.31.231,PRaM,2021.2.3,MacIntel,29.99580059,61b8f3437b89212fae0dfadf
3,2.5226,space,1.124,0,315,315,158,1,,,5b987c55bb32a600018302dc,61b9000aa5902d2cda5af693,2021-12-14_20h35.31.231,PRaM,2021.2.3,MacIntel,29.99580059,61b8f3437b89212fae0dfadf
6,2.76,space,1.1148,0,316,316,29,1,,,5b987c55bb32a600018302dc,61b9000aa5902d2cda5af693,2021-12-14_20h35.31.231,PRaM,2021.2.3,MacIntel,29.99580059,61b8f3437b89212fae0dfadf
8,7.5717,space,5.954,0,317,317,149,1,,,5b987c55bb32a600018302dc,61b9000aa5902d2cda5af693,2021-12-14_20h35.31.231,PRaM,2021.2.3,MacIntel,29.99580059,61b8f3437b89212fae0dfadf
9,2.3686,space,0.8103,0,318,318,182,1,,,5b987c55bb32a600018302dc,61b9000aa5902d2cda5af693,2021-12-14_20h35.31.231,PRaM,2021.2.3,MacIntel,29.99580059,61b8f3437b89212fae0dfadf
2,2.4248,space,0.8519,0,319,319,65,1,,,5b987c55bb32a600018302dc,61b9000aa5902d2cda5af693,2021-12-14_20h35.31.231,PRaM,2021.2.3,MacIntel,29.99580059,61b8f3437b89212fae0dfadf
6,2.8527,space,1.3326,0,320,320,271,1,,,5b987c55bb32a600018302dc,61b9000aa5902d2cda5af693,2021-12-14_20h35.31.231,PRaM,2021.2.3,MacIntel,29.99580059,61b8f3437b89212fae0dfadf
7,5.4822,space,4.5952,0,321,321,45,1,,,5b987c55bb32a600018302dc,61b9000aa5902d2cda5af693,2021-12-14_20h35.31.231,PRaM,2021.2.3,MacIntel,29.99580059,61b8f3437b89212fae0dfadf
9,1.8779,space,0.3436,0,322,322,38,1,,,5b987c55bb32a600018302dc,61b9000aa5902d2cda5af693,2021-12-14_20h35.31.231,PRaM,2021.2.3,MacIntel,29.99580059,61b8f3437b89212fae0dfadf
2,4.9101,space,3.3446,0,323,323,141,1,,,5b987c55bb32a600018302dc,61b9000aa5902d2cda5af693,2021-12-14_20h35.31.231,PRaM,2021.2.3,MacIntel,29.99580059,61b8f3437b89212fae0dfadf
2,9.8842,space,10.0439,0,324,324,316,1,,,5b987c55bb32a600018302dc,61b9000aa5902d2cda5af693,2021-12-14_20h35.31.231,PRaM,2021.2.3,MacIntel,29.99580059,61b8f3437b89212fae0dfadf
2,2.495,space,0.9404,0,325,325,121,1,,,5b987c55bb32a600018302dc,61b9000aa5902d2cda5af693,2021-12-14_20h35.31.231,PRaM,2021.2.3,MacIntel,29.99580059,61b8f3437b89212fae0dfadf
2,2.7187,space,1.1334,0,326,326,229,1,,,5b987c55bb32a600018302dc,61b9000aa5902d2cda5af693,2021-12-14_20h35.31.231,PRaM,2021.2.3,MacIntel,29.99580059,61b8f3437b89212fae0dfadf
3,2.5274,space,0.9918,0,327,327,73,1,,,5b987c55bb32a600018302dc,61b9000aa5902d2cda5af693,2021-12-14_20h35.31.231,PRaM,2021.2.3,MacIntel,29.99580059,61b8f3437b89212fae0dfadf
1,4.9824,space,3.527,0,328,328,41,1,,,5b987c55bb32a600018302dc,61b9000aa5902d2cda5af693,2021-12-14_20h35.31.231,PRaM,2021.2.3,MacIntel,29.99580059,61b8f3437b89212fae0dfadf
2,2.3462,space,0.7125,0,329,329,142,1,,,5b987c55bb32a600018302dc,61b9000aa5902d2cda5af693,2021-12-14_20h35.31.231,PRaM,2021.2.3,MacIntel,29.99580059,61b8f3437b89212fae0dfadf
4,3.4034,space,1.7145,0,330,330,300,1,,,5b987c55bb32a600018302dc,61b9000aa5902d2cda5af693,2021-12-14_20h35.31.231,PRaM,2021.2.3,MacIntel,29.99580059,61b8f3437b89212fae0dfadf
9,2.4647,space,1.1631,0,331,331,279,1,,,5b987c55bb32a600018302dc,61b9000aa5902d2cda5af693,2021-12-14_20h35.31.231,PRaM,2021.2.3,MacIntel,29.99580059,61b8f3437b89212fae0dfadf
3,4.275,space,2.8454,0,332,332,376,1,,,5b987c55bb32a600018302dc,61b9000aa5902d2cda5af693,2021-12-14_20h35.31.231,PRaM,2021.2.3,MacIntel,29.99580059,61b8f3437b89212fae0dfadf
2,2.0692,space,0.4198,0,333,333,283,1,,,5b987c55bb32a600018302dc,61b9000aa5902d2cda5af693,2021-12-14_20h35.31.231,PRaM,2021.2.3,MacIntel,29.99580059,61b8f3437b89212fae0dfadf
1,4.8725,space,3.36,0,334,334,251,1,,,5b987c55bb32a600018302dc,61b9000aa5902d2cda5af693,2021-12-14_20h35.31.231,PRaM,2021.2.3,MacIntel,29.99580059,61b8f3437b89212fae0dfadf
3,5.1299,space,3.523,0,335,335,185,1,,,5b987c55bb32a600018302dc,61b9000aa5902d2cda5af693,2021-12-14_20h35.31.231,PRaM,2021.2.3,MacIntel,29.99580059,61b8f3437b89212fae0dfadf
9,2.8285,space,1.4063,0,336,336,276,1,,,5b987c55bb32a600018302dc,61b9000aa5902d2cda5af693,2021-12-14_20h35.31.231,PRaM,2021.2.3,MacIntel,29.99580059,61b8f3437b89212fae0dfadf
8,3.7608,space,2.1739,0,337,337,147,1,,,5b987c55bb32a600018302dc,61b9000aa5902d2cda5af693,2021-12-14_20h35.31.231,PRaM,2021.2.3,MacIntel,29.99580059,61b8f3437b89212fae0dfadf
5,2.4722,space,0.8264,0,338,338,126,1,,,5b987c55bb32a600018302dc,61b9000aa5902d2cda5af693,2021-12-14_20h35.31.231,PRaM,2021.2.3,MacIntel,29.99580059,61b8f3437b89212fae0dfadf
1,3.5723,space,1.8687,0,339,339,218,1,,,5b987c55bb32a600018302dc,61b9000aa5902d2cda5af693,2021-12-14_20h35.31.231,PRaM,2021.2.3,MacIntel,29.99580059,61b8f3437b89212fae0dfadf
5,2.9848,space,1.3488,0,340,340,228,1,,,5b987c55bb32a600018302dc,61b9000aa5902d2cda5af693,2021-12-14_20h35.31.231,PRaM,2021.2.3,MacIntel,29.99580059,61b8f3437b89212fae0dfadf
2,3.0402,space,2.0183,0,341,341,138,1,,,5b987c55bb32a600018302dc,61b9000aa5902d2cda5af693,2021-12-14_20h35.31.231,PRaM,2021.2.3,MacIntel,29.99580059,61b8f3437b89212fae0dfadf
1,4.0482,space,2.4155,0,342,342,24,1,,,5b987c55bb32a600018302dc,61b9000aa5902d2cda5af693,2021-12-14_20h35.31.231,PRaM,2021.2.3,MacIntel,29.99580059,61b8f3437b89212fae0dfadf
8,4.5098,space,2.9242,0,343,343,127,1,,,5b987c55bb32a600018302dc,61b9000aa5902d2cda5af693,2021-12-14_20h35.31.231,PRaM,2021.2.3,MacIntel,29.99580059,61b8f3437b89212fae0dfadf
4,3.3823,space,1.7926,0,344,344,238,1,,,5b987c55bb32a600018302dc,61b9000aa5902d2cda5af693,2021-12-14_20h35.31.231,PRaM,2021.2.3,MacIntel,29.99580059,61b8f3437b89212fae0dfadf
6,2.4404,space,0.8225,0,345,345,344,1,,,5b987c55bb32a600018302dc,61b9000aa5902d2cda5af693,2021-12-14_20h35.31.231,PRaM,2021.2.3,MacIntel,29.99580059,61b8f3437b89212fae0dfadf
8,2.612,space,1.0498,0,346,346,290,1,,,5b987c55bb32a600018302dc,61b9000aa5902d2cda5af693,2021-12-14_20h35.31.231,PRaM,2021.2.3,MacIntel,29.99580059,61b8f3437b89212fae0dfadf
4,8.4579,space,6.9484,0,347,347,100,1,,,5b987c55bb32a600018302dc,61b9000aa5902d2cda5af693,2021-12-14_20h35.31.231,PRaM,2021.2.3,MacIntel,29.99580059,61b8f3437b89212fae0dfadf
9,2.9523,space,1.3578,0,348,348,313,1,,,5b987c55bb32a600018302dc,61b9000aa5902d2cda5af693,2021-12-14_20h35.31.231,PRaM,2021.2.3,MacIntel,29.99580059,61b8f3437b89212fae0dfadf
8,3.3216,space,1.6665,0,349,349,102,1,,,5b987c55bb32a600018302dc,61b9000aa5902d2cda5af693,2021-12-14_20h35.31.231,PRaM,2021.2.3,MacIntel,29.99580059,61b8f3437b89212fae0dfadf
1,3.3816,space,1.999,0,350,350,130,1,,,5b987c55bb32a600018302dc,61b9000aa5902d2cda5af693,2021-12-14_20h35.31.231,PRaM,2021.2.3,MacIntel,29.99580059,61b8f3437b89212fae0dfadf
6,2.2562,space,0.5177,0,351,351,16,1,,,5b987c55bb32a600018302dc,61b9000aa5902d2cda5af693,2021-12-14_20h35.31.231,PRaM,2021.2.3,MacIntel,29.99580059,61b8f3437b89212fae0dfadf
8,2.7128,space,1.0369,0,352,352,269,1,,,5b987c55bb32a600018302dc,61b9000aa5902d2cda5af693,2021-12-14_20h35.31.231,PRaM,2021.2.3,MacIntel,29.99580059,61b8f3437b89212fae0dfadf
9,2.0555,space,0.5228,0,353,353,66,1,,,5b987c55bb32a600018302dc,61b9000aa5902d2cda5af693,2021-12-14_20h35.31.231,PRaM,2021.2.3,MacIntel,29.99580059,61b8f3437b89212fae0dfadf
5,2.1256,space,0.9455,0,354,354,5,1,,,5b987c55bb32a600018302dc,61b9000aa5902d2cda5af693,2021-12-14_20h35.31.231,PRaM,2021.2.3,MacIntel,29.99580059,61b8f3437b89212fae0dfadf
7,3.4668,space,1.8718,0,355,355,58,1,,,5b987c55bb32a600018302dc,61b9000aa5902d2cda5af693,2021-12-14_20h35.31.231,PRaM,2021.2.3,MacIntel,29.99580059,61b8f3437b89212fae0dfadf
7,1.8787,space,0.2929,0,356,356,70,1,,,5b987c55bb32a600018302dc,61b9000aa5902d2cda5af693,2021-12-14_20h35.31.231,PRaM,2021.2.3,MacIntel,29.99580059,61b8f3437b89212fae0dfadf
9,2.8701,space,1.2196,0,357,357,280,1,,,5b987c55bb32a600018302dc,61b9000aa5902d2cda5af693,2021-12-14_20h35.31.231,PRaM,2021.2.3,MacIntel,29.99580059,61b8f3437b89212fae0dfadf
7,4.2466,space,3.1747,0,358,358,84,1,,,5b987c55bb32a600018302dc,61b9000aa5902d2cda5af693,2021-12-14_20h35.31.231,PRaM,2021.2.3,MacIntel,29.99580059,61b8f3437b89212fae0dfadf
2,7.0548,space,5.4285,0,359,359,249,1,,,5b987c55bb32a600018302dc,61b9000aa5902d2cda5af693,2021-12-14_20h35.31.231,PRaM,2021.2.3,MacIntel,29.99580059,61b8f3437b89212fae0dfadf
1,5.2728,space,3.6785,0,360,360,189,1,,,5b987c55bb32a600018302dc,61b9000aa5902d2cda5af693,2021-12-14_20h35.31.231,PRaM,2021.2.3,MacIntel,29.99580059,61b8f3437b89212fae0dfadf
9,4.9595,space,3.4346,0,361,361,213,1,,,5b987c55bb32a600018302dc,61b9000aa5902d2cda5af693,2021-12-14_20h35.31.231,PRaM,2021.2.3,MacIntel,29.99580059,61b8f3437b89212fae0dfadf
9,1.5086,space,1.5228,0,362,362,192,1,,,5b987c55bb32a600018302dc,61b9000aa5902d2cda5af693,2021-12-14_20h35.31.231,PRaM,2021.2.3,MacIntel,29.99580059,61b8f3437b89212fae0dfadf
2,3.9967,space,2.3195,0,363,363,233,1,,,5b987c55bb32a600018302dc,61b9000aa5902d2cda5af693,2021-12-14_20h35.31.231,PRaM,2021.2.3,MacIntel,29.99580059,61b8f3437b89212fae0dfadf
5,2.129,space,0.3787,0,364,364,6,1,,,5b987c55bb32a600018302dc,61b9000aa5902d2cda5af693,2021-12-14_20h35.31.231,PRaM,2021.2.3,MacIntel,29.99580059,61b8f3437b89212fae0dfadf
2,3.2584,space,1.6117,0,365,365,113,1,,,5b987c55bb32a600018302dc,61b9000aa5902d2cda5af693,2021-12-14_20h35.31.231,PRaM,2021.2.3,MacIntel,29.99580059,61b8f3437b89212fae0dfadf
7,3.0953,space,1.436,0,366,366,152,1,,,5b987c55bb32a600018302dc,61b9000aa5902d2cda5af693,2021-12-14_20h35.31.231,PRaM,2021.2.3,MacIntel,29.99580059,61b8f3437b89212fae0dfadf
7,3.1171,space,1.5207,0,367,367,154,1,,,5b987c55bb32a600018302dc,61b9000aa5902d2cda5af693,2021-12-14_20h35.31.231,PRaM,2021.2.3,MacIntel,29.99580059,61b8f3437b89212fae0dfadf
3,3.138,space,1.8176,0,368,368,0,1,,,5b987c55bb32a600018302dc,61b9000aa5902d2cda5af693,2021-12-14_20h35.31.231,PRaM,2021.2.3,MacIntel,29.99580059,61b8f3437b89212fae0dfadf
5,3.2595,space,1.7114,0,369,369,345,1,,,5b987c55bb32a600018302dc,61b9000aa5902d2cda5af693,2021-12-14_20h35.31.231,PRaM,2021.2.3,MacIntel,29.99580059,61b8f3437b89212fae0dfadf
7,1.8882,space,0.3081,0,370,370,328,1,,,5b987c55bb32a600018302dc,61b9000aa5902d2cda5af693,2021-12-14_20h35.31.231,PRaM,2021.2.3,MacIntel,29.99580059,61b8f3437b89212fae0dfadf
9,2.9991,space,2.3811,0,371,371,264,1,,,5b987c55bb32a600018302dc,61b9000aa5902d2cda5af693,2021-12-14_20h35.31.231,PRaM,2021.2.3,MacIntel,29.99580059,61b8f3437b89212fae0dfadf
7,2.1521,space,0.5316,0,372,372,112,1,,,5b987c55bb32a600018302dc,61b9000aa5902d2cda5af693,2021-12-14_20h35.31.231,PRaM,2021.2.3,MacIntel,29.99580059,61b8f3437b89212fae0dfadf
8,6.9166,space,5.3721,0,373,373,261,1,,,5b987c55bb32a600018302dc,61b9000aa5902d2cda5af693,2021-12-14_20h35.31.231,PRaM,2021.2.3,MacIntel,29.99580059,61b8f3437b89212fae0dfadf
2,5.051,space,3.4097,0,374,374,339,1,,,5b987c55bb32a600018302dc,61b9000aa5902d2cda5af693,2021-12-14_20h35.31.231,PRaM,2021.2.3,MacIntel,29.99580059,61b8f3437b89212fae0dfadf
3,2.9545,space,1.5157,0,375,375,21,1,,,5b987c55bb32a600018302dc,61b9000aa5902d2cda5af693,2021-12-14_20h35.31.231,PRaM,2021.2.3,MacIntel,29.99580059,61b8f3437b89212fae0dfadf
3,4.7829,space,3.0822,0,376,376,236,1,,,5b987c55bb32a600018302dc,61b9000aa5902d2cda5af693,2021-12-14_20h35.31.231,PRaM,2021.2.3,MacIntel,29.99580059,61b8f3437b89212fae0dfadf
1,2.8267,space,1.2356,0,377,377,37,1,,,5b987c55bb32a600018302dc,61b9000aa5902d2cda5af693,2021-12-14_20h35.31.231,PRaM,2021.2.3,MacIntel,29.99580059,61b8f3437b89212fae0dfadf
