Rating.response,Rating.rt,EndTrial.keys,EndTrial.rt,trials.thisRepN,trials.thisTrialN,trials.thisN,trials.thisIndex,trials.ran,Pos1,Pos2,participant,session,date,expName,psychopyVersion,OS,frameRate,study_id
1,26.0296,space,25.2304,0,0,0,23,1,,,5bd0e34c4b4f9e0001122ad6,61ba1b56f805c10ab7044084,2021-12-15_11h50.23.030,PRaM,2021.2.3,Win32,59.96282305,61b8f3437b89212fae0dfade
3,5.3093,space,3.9694,0,1,1,202,1,,,5bd0e34c4b4f9e0001122ad6,61ba1b56f805c10ab7044084,2021-12-15_11h50.23.030,PRaM,2021.2.3,Win32,59.96282305,61b8f3437b89212fae0dfade
5,3.4206,space,2.3044,0,2,2,0,1,,,5bd0e34c4b4f9e0001122ad6,61ba1b56f805c10ab7044084,2021-12-15_11h50.23.030,PRaM,2021.2.3,Win32,59.96282305,61b8f3437b89212fae0dfade
2,4.2764,space,3.1541,0,3,3,62,1,,,5bd0e34c4b4f9e0001122ad6,61ba1b56f805c10ab7044084,2021-12-15_11h50.23.030,PRaM,2021.2.3,Win32,59.96282305,61b8f3437b89212fae0dfade
8,4.2419,space,2.85,0,4,4,264,1,,,5bd0e34c4b4f9e0001122ad6,61ba1b56f805c10ab7044084,2021-12-15_11h50.23.030,PRaM,2021.2.3,Win32,59.96282305,61b8f3437b89212fae0dfade
3,4.3334,space,3.5363,0,5,5,150,1,,,5bd0e34c4b4f9e0001122ad6,61ba1b56f805c10ab7044084,2021-12-15_11h50.23.030,PRaM,2021.2.3,Win32,59.96282305,61b8f3437b89212fae0dfade
2,3.0425,space,1.4255,0,6,6,166,1,,,5bd0e34c4b4f9e0001122ad6,61ba1b56f805c10ab7044084,2021-12-15_11h50.23.030,PRaM,2021.2.3,Win32,59.96282305,61b8f3437b89212fae0dfade
1,5.5208,space,4.2512,0,7,7,90,1,,,5bd0e34c4b4f9e0001122ad6,61ba1b56f805c10ab7044084,2021-12-15_11h50.23.030,PRaM,2021.2.3,Win32,59.96282305,61b8f3437b89212fae0dfade
4,3.9732,space,2.2953,0,8,8,25,1,,,5bd0e34c4b4f9e0001122ad6,61ba1b56f805c10ab7044084,2021-12-15_11h50.23.030,PRaM,2021.2.3,Win32,59.96282305,61b8f3437b89212fae0dfade
3,3.0583,space,1.4337,0,9,9,255,1,,,5bd0e34c4b4f9e0001122ad6,61ba1b56f805c10ab7044084,2021-12-15_11h50.23.030,PRaM,2021.2.3,Win32,59.96282305,61b8f3437b89212fae0dfade
1,3.1685,space,2.2301,0,10,10,295,1,,,5bd0e34c4b4f9e0001122ad6,61ba1b56f805c10ab7044084,2021-12-15_11h50.23.030,PRaM,2021.2.3,Win32,59.96282305,61b8f3437b89212fae0dfade
6,3.5252,space,2.9005,0,11,11,281,1,,,5bd0e34c4b4f9e0001122ad6,61ba1b56f805c10ab7044084,2021-12-15_11h50.23.030,PRaM,2021.2.3,Win32,59.96282305,61b8f3437b89212fae0dfade
5,4.85,space,3.7335,0,12,12,154,1,,,5bd0e34c4b4f9e0001122ad6,61ba1b56f805c10ab7044084,2021-12-15_11h50.23.030,PRaM,2021.2.3,Win32,59.96282305,61b8f3437b89212fae0dfade
2,3.3226,space,2.6502,0,13,13,76,1,,,5bd0e34c4b4f9e0001122ad6,61ba1b56f805c10ab7044084,2021-12-15_11h50.23.030,PRaM,2021.2.3,Win32,59.96282305,61b8f3437b89212fae0dfade
1,4.6561,space,4.1348,0,14,14,353,1,,,5bd0e34c4b4f9e0001122ad6,61ba1b56f805c10ab7044084,2021-12-15_11h50.23.030,PRaM,2021.2.3,Win32,59.96282305,61b8f3437b89212fae0dfade
7,4.6723,space,3.226,0,15,15,117,1,,,5bd0e34c4b4f9e0001122ad6,61ba1b56f805c10ab7044084,2021-12-15_11h50.23.030,PRaM,2021.2.3,Win32,59.96282305,61b8f3437b89212fae0dfade
1,3.1415,space,2.1185,0,16,16,103,1,,,5bd0e34c4b4f9e0001122ad6,61ba1b56f805c10ab7044084,2021-12-15_11h50.23.030,PRaM,2021.2.3,Win32,59.96282305,61b8f3437b89212fae0dfade
1,4.1914,space,3.5658,0,17,17,144,1,,,5bd0e34c4b4f9e0001122ad6,61ba1b56f805c10ab7044084,2021-12-15_11h50.23.030,PRaM,2021.2.3,Win32,59.96282305,61b8f3437b89212fae0dfade
1,2.2043,space,1.4335,0,18,18,151,1,,,5bd0e34c4b4f9e0001122ad6,61ba1b56f805c10ab7044084,2021-12-15_11h50.23.030,PRaM,2021.2.3,Win32,59.96282305,61b8f3437b89212fae0dfade
1,3.5914,space,2.6397,0,19,19,39,1,,,5bd0e34c4b4f9e0001122ad6,61ba1b56f805c10ab7044084,2021-12-15_11h50.23.030,PRaM,2021.2.3,Win32,59.96282305,61b8f3437b89212fae0dfade
1,2.3699,space,1.2836,0,20,20,252,1,,,5bd0e34c4b4f9e0001122ad6,61ba1b56f805c10ab7044084,2021-12-15_11h50.23.030,PRaM,2021.2.3,Win32,59.96282305,61b8f3437b89212fae0dfade
8,3.9561,space,2.2933,0,21,21,352,1,,,5bd0e34c4b4f9e0001122ad6,61ba1b56f805c10ab7044084,2021-12-15_11h50.23.030,PRaM,2021.2.3,Win32,59.96282305,61b8f3437b89212fae0dfade
9,3.6609,space,2.0777,0,22,22,276,1,,,5bd0e34c4b4f9e0001122ad6,61ba1b56f805c10ab7044084,2021-12-15_11h50.23.030,PRaM,2021.2.3,Win32,59.96282305,61b8f3437b89212fae0dfade
7,4.3915,space,2.7709,0,23,23,331,1,,,5bd0e34c4b4f9e0001122ad6,61ba1b56f805c10ab7044084,2021-12-15_11h50.23.030,PRaM,2021.2.3,Win32,59.96282305,61b8f3437b89212fae0dfade
7,3.1078,space,1.5324,0,24,24,53,1,,,5bd0e34c4b4f9e0001122ad6,61ba1b56f805c10ab7044084,2021-12-15_11h50.23.030,PRaM,2021.2.3,Win32,59.96282305,61b8f3437b89212fae0dfade
8,3.6564,space,2.526,0,25,25,277,1,,,5bd0e34c4b4f9e0001122ad6,61ba1b56f805c10ab7044084,2021-12-15_11h50.23.030,PRaM,2021.2.3,Win32,59.96282305,61b8f3437b89212fae0dfade
8,2.3589,space,0.8341,0,26,26,127,1,,,5bd0e34c4b4f9e0001122ad6,61ba1b56f805c10ab7044084,2021-12-15_11h50.23.030,PRaM,2021.2.3,Win32,59.96282305,61b8f3437b89212fae0dfade
8,3.7872,space,2.2008,0,27,27,168,1,,,5bd0e34c4b4f9e0001122ad6,61ba1b56f805c10ab7044084,2021-12-15_11h50.23.030,PRaM,2021.2.3,Win32,59.96282305,61b8f3437b89212fae0dfade
3,5.2433,space,4.216,0,28,28,347,1,,,5bd0e34c4b4f9e0001122ad6,61ba1b56f805c10ab7044084,2021-12-15_11h50.23.030,PRaM,2021.2.3,Win32,59.96282305,61b8f3437b89212fae0dfade
4,2.5338,space,0.9825,0,29,29,194,1,,,5bd0e34c4b4f9e0001122ad6,61ba1b56f805c10ab7044084,2021-12-15_11h50.23.030,PRaM,2021.2.3,Win32,59.96282305,61b8f3437b89212fae0dfade
1,3.067,space,2.0405,0,30,30,275,1,,,5bd0e34c4b4f9e0001122ad6,61ba1b56f805c10ab7044084,2021-12-15_11h50.23.030,PRaM,2021.2.3,Win32,59.96282305,61b8f3437b89212fae0dfade
2,5.8082,space,4.319,0,31,31,52,1,,,5bd0e34c4b4f9e0001122ad6,61ba1b56f805c10ab7044084,2021-12-15_11h50.23.030,PRaM,2021.2.3,Win32,59.96282305,61b8f3437b89212fae0dfade
6,2.9985,space,1.39,0,32,32,337,1,,,5bd0e34c4b4f9e0001122ad6,61ba1b56f805c10ab7044084,2021-12-15_11h50.23.030,PRaM,2021.2.3,Win32,59.96282305,61b8f3437b89212fae0dfade
1,3.1584,space,2.0338,0,33,33,262,1,,,5bd0e34c4b4f9e0001122ad6,61ba1b56f805c10ab7044084,2021-12-15_11h50.23.030,PRaM,2021.2.3,Win32,59.96282305,61b8f3437b89212fae0dfade
1,2.1585,space,0.4979,0,34,34,148,1,,,5bd0e34c4b4f9e0001122ad6,61ba1b56f805c10ab7044084,2021-12-15_11h50.23.030,PRaM,2021.2.3,Win32,59.96282305,61b8f3437b89212fae0dfade
1,3.1664,space,2.121,0,35,35,128,1,,,5bd0e34c4b4f9e0001122ad6,61ba1b56f805c10ab7044084,2021-12-15_11h50.23.030,PRaM,2021.2.3,Win32,59.96282305,61b8f3437b89212fae0dfade
4,3.5086,space,2.0001,0,36,36,145,1,,,5bd0e34c4b4f9e0001122ad6,61ba1b56f805c10ab7044084,2021-12-15_11h50.23.030,PRaM,2021.2.3,Win32,59.96282305,61b8f3437b89212fae0dfade
7,2.5708,space,0.974,0,37,37,306,1,,,5bd0e34c4b4f9e0001122ad6,61ba1b56f805c10ab7044084,2021-12-15_11h50.23.030,PRaM,2021.2.3,Win32,59.96282305,61b8f3437b89212fae0dfade
1,4.2586,space,2.7121,0,38,38,55,1,,,5bd0e34c4b4f9e0001122ad6,61ba1b56f805c10ab7044084,2021-12-15_11h50.23.030,PRaM,2021.2.3,Win32,59.96282305,61b8f3437b89212fae0dfade
7,14.9254,space,19.1673,0,39,39,84,1,,,5bd0e34c4b4f9e0001122ad6,61ba1b56f805c10ab7044084,2021-12-15_11h50.23.030,PRaM,2021.2.3,Win32,59.96282305,61b8f3437b89212fae0dfade
2,41.0173,space,46.101,0,40,40,31,1,,,5bd0e34c4b4f9e0001122ad6,61ba1b56f805c10ab7044084,2021-12-15_11h50.23.030,PRaM,2021.2.3,Win32,59.96282305,61b8f3437b89212fae0dfade
3,2.9462,space,1.465,0,41,41,332,1,,,5bd0e34c4b4f9e0001122ad6,61ba1b56f805c10ab7044084,2021-12-15_11h50.23.030,PRaM,2021.2.3,Win32,59.96282305,61b8f3437b89212fae0dfade
8,9.4049,space,12.6515,0,42,42,98,1,,,5bd0e34c4b4f9e0001122ad6,61ba1b56f805c10ab7044084,2021-12-15_11h50.23.030,PRaM,2021.2.3,Win32,59.96282305,61b8f3437b89212fae0dfade
,,space,7.5362,0,43,43,147,1,,,5bd0e34c4b4f9e0001122ad6,61ba1b56f805c10ab7044084,2021-12-15_11h50.23.030,PRaM,2021.2.3,Win32,59.96282305,61b8f3437b89212fae0dfade
4,3.5984,space,2.043,0,44,44,64,1,,,5bd0e34c4b4f9e0001122ad6,61ba1b56f805c10ab7044084,2021-12-15_11h50.23.030,PRaM,2021.2.3,Win32,59.96282305,61b8f3437b89212fae0dfade
1,5.4918,space,3.9344,0,45,45,91,1,,,5bd0e34c4b4f9e0001122ad6,61ba1b56f805c10ab7044084,2021-12-15_11h50.23.030,PRaM,2021.2.3,Win32,59.96282305,61b8f3437b89212fae0dfade
8,3.0361,space,1.5846,0,46,46,372,1,,,5bd0e34c4b4f9e0001122ad6,61ba1b56f805c10ab7044084,2021-12-15_11h50.23.030,PRaM,2021.2.3,Win32,59.96282305,61b8f3437b89212fae0dfade
7,2.604,space,1.1014,0,47,47,12,1,,,5bd0e34c4b4f9e0001122ad6,61ba1b56f805c10ab7044084,2021-12-15_11h50.23.030,PRaM,2021.2.3,Win32,59.96282305,61b8f3437b89212fae0dfade
,,space,1.1671,0,48,48,292,1,,,5bd0e34c4b4f9e0001122ad6,61ba1b56f805c10ab7044084,2021-12-15_11h50.23.030,PRaM,2021.2.3,Win32,59.96282305,61b8f3437b89212fae0dfade
5,3.3693,space,1.8911,0,49,49,6,1,,,5bd0e34c4b4f9e0001122ad6,61ba1b56f805c10ab7044084,2021-12-15_11h50.23.030,PRaM,2021.2.3,Win32,59.96282305,61b8f3437b89212fae0dfade
1,3.6083,space,2.1452,0,50,50,71,1,,,5bd0e34c4b4f9e0001122ad6,61ba1b56f805c10ab7044084,2021-12-15_11h50.23.030,PRaM,2021.2.3,Win32,59.96282305,61b8f3437b89212fae0dfade
1,2.3078,space,0.6334,0,51,51,130,1,,,5bd0e34c4b4f9e0001122ad6,61ba1b56f805c10ab7044084,2021-12-15_11h50.23.030,PRaM,2021.2.3,Win32,59.96282305,61b8f3437b89212fae0dfade
7,3.5725,space,1.9948,0,52,52,134,1,,,5bd0e34c4b4f9e0001122ad6,61ba1b56f805c10ab7044084,2021-12-15_11h50.23.030,PRaM,2021.2.3,Win32,59.96282305,61b8f3437b89212fae0dfade
,,space,31.6011,0,53,53,196,1,,,5bd0e34c4b4f9e0001122ad6,61ba1b56f805c10ab7044084,2021-12-15_11h50.23.030,PRaM,2021.2.3,Win32,59.96282305,61b8f3437b89212fae0dfade
1,3.5779,space,2.199,0,54,54,210,1,,,5bd0e34c4b4f9e0001122ad6,61ba1b56f805c10ab7044084,2021-12-15_11h50.23.030,PRaM,2021.2.3,Win32,59.96282305,61b8f3437b89212fae0dfade
1,8.9891,space,8.1956,0,55,55,48,1,,,5bd0e34c4b4f9e0001122ad6,61ba1b56f805c10ab7044084,2021-12-15_11h50.23.030,PRaM,2021.2.3,Win32,59.96282305,61b8f3437b89212fae0dfade
7,2.8875,space,1.5435,0,56,56,296,1,,,5bd0e34c4b4f9e0001122ad6,61ba1b56f805c10ab7044084,2021-12-15_11h50.23.030,PRaM,2021.2.3,Win32,59.96282305,61b8f3437b89212fae0dfade
8,4.858,space,3.3857,0,57,57,137,1,,,5bd0e34c4b4f9e0001122ad6,61ba1b56f805c10ab7044084,2021-12-15_11h50.23.030,PRaM,2021.2.3,Win32,59.96282305,61b8f3437b89212fae0dfade
5,2.7529,space,1.2002,0,58,58,205,1,,,5bd0e34c4b4f9e0001122ad6,61ba1b56f805c10ab7044084,2021-12-15_11h50.23.030,PRaM,2021.2.3,Win32,59.96282305,61b8f3437b89212fae0dfade
1,2.834,space,1.5465,0,59,59,289,1,,,5bd0e34c4b4f9e0001122ad6,61ba1b56f805c10ab7044084,2021-12-15_11h50.23.030,PRaM,2021.2.3,Win32,59.96282305,61b8f3437b89212fae0dfade
4,2.8044,space,1.4394,0,60,60,340,1,,,5bd0e34c4b4f9e0001122ad6,61ba1b56f805c10ab7044084,2021-12-15_11h50.23.030,PRaM,2021.2.3,Win32,59.96282305,61b8f3437b89212fae0dfade
7,3.6591,space,2.5166,0,61,61,325,1,,,5bd0e34c4b4f9e0001122ad6,61ba1b56f805c10ab7044084,2021-12-15_11h50.23.030,PRaM,2021.2.3,Win32,59.96282305,61b8f3437b89212fae0dfade
1,7.1558,space,5.5656,0,62,62,79,1,,,5bd0e34c4b4f9e0001122ad6,61ba1b56f805c10ab7044084,2021-12-15_11h50.23.030,PRaM,2021.2.3,Win32,59.96282305,61b8f3437b89212fae0dfade
8,3.0559,space,1.6731,0,63,63,199,1,,,5bd0e34c4b4f9e0001122ad6,61ba1b56f805c10ab7044084,2021-12-15_11h50.23.030,PRaM,2021.2.3,Win32,59.96282305,61b8f3437b89212fae0dfade
7,2.7084,space,1.5173,0,64,64,46,1,,,5bd0e34c4b4f9e0001122ad6,61ba1b56f805c10ab7044084,2021-12-15_11h50.23.030,PRaM,2021.2.3,Win32,59.96282305,61b8f3437b89212fae0dfade
1,7.1892,space,5.9166,0,65,65,303,1,,,5bd0e34c4b4f9e0001122ad6,61ba1b56f805c10ab7044084,2021-12-15_11h50.23.030,PRaM,2021.2.3,Win32,59.96282305,61b8f3437b89212fae0dfade
4,8.0224,space,6.7671,0,66,66,228,1,,,5bd0e34c4b4f9e0001122ad6,61ba1b56f805c10ab7044084,2021-12-15_11h50.23.030,PRaM,2021.2.3,Win32,59.96282305,61b8f3437b89212fae0dfade
1,3.2431,space,2.2102,0,67,67,214,1,,,5bd0e34c4b4f9e0001122ad6,61ba1b56f805c10ab7044084,2021-12-15_11h50.23.030,PRaM,2021.2.3,Win32,59.96282305,61b8f3437b89212fae0dfade
1,2.7919,space,3.4014,0,68,68,92,1,,,5bd0e34c4b4f9e0001122ad6,61ba1b56f805c10ab7044084,2021-12-15_11h50.23.030,PRaM,2021.2.3,Win32,59.96282305,61b8f3437b89212fae0dfade
2,2.7827,space,1.6023,0,69,69,223,1,,,5bd0e34c4b4f9e0001122ad6,61ba1b56f805c10ab7044084,2021-12-15_11h50.23.030,PRaM,2021.2.3,Win32,59.96282305,61b8f3437b89212fae0dfade
1,2.5637,space,1.4614,0,70,70,359,1,,,5bd0e34c4b4f9e0001122ad6,61ba1b56f805c10ab7044084,2021-12-15_11h50.23.030,PRaM,2021.2.3,Win32,59.96282305,61b8f3437b89212fae0dfade
2,3.22,space,2.1349,0,71,71,124,1,,,5bd0e34c4b4f9e0001122ad6,61ba1b56f805c10ab7044084,2021-12-15_11h50.23.030,PRaM,2021.2.3,Win32,59.96282305,61b8f3437b89212fae0dfade
6,3.4318,space,2.1514,0,72,72,225,1,,,5bd0e34c4b4f9e0001122ad6,61ba1b56f805c10ab7044084,2021-12-15_11h50.23.030,PRaM,2021.2.3,Win32,59.96282305,61b8f3437b89212fae0dfade
5,3.0195,space,1.8162,0,73,73,104,1,,,5bd0e34c4b4f9e0001122ad6,61ba1b56f805c10ab7044084,2021-12-15_11h50.23.030,PRaM,2021.2.3,Win32,59.96282305,61b8f3437b89212fae0dfade
3,3.1841,space,1.6554,0,74,74,30,1,,,5bd0e34c4b4f9e0001122ad6,61ba1b56f805c10ab7044084,2021-12-15_11h50.23.030,PRaM,2021.2.3,Win32,59.96282305,61b8f3437b89212fae0dfade
6,4.0926,space,2.5122,0,75,75,326,1,,,5bd0e34c4b4f9e0001122ad6,61ba1b56f805c10ab7044084,2021-12-15_11h50.23.030,PRaM,2021.2.3,Win32,59.96282305,61b8f3437b89212fae0dfade
7,2.6042,space,1.0162,0,76,76,120,1,,,5bd0e34c4b4f9e0001122ad6,61ba1b56f805c10ab7044084,2021-12-15_11h50.23.030,PRaM,2021.2.3,Win32,59.96282305,61b8f3437b89212fae0dfade
1,3.9916,space,2.5021,0,77,77,172,1,,,5bd0e34c4b4f9e0001122ad6,61ba1b56f805c10ab7044084,2021-12-15_11h50.23.030,PRaM,2021.2.3,Win32,59.96282305,61b8f3437b89212fae0dfade
1,2.6356,space,1.0337,0,78,78,283,1,,,5bd0e34c4b4f9e0001122ad6,61ba1b56f805c10ab7044084,2021-12-15_11h50.23.030,PRaM,2021.2.3,Win32,59.96282305,61b8f3437b89212fae0dfade
1,2.7351,space,1.216,0,79,79,143,1,,,5bd0e34c4b4f9e0001122ad6,61ba1b56f805c10ab7044084,2021-12-15_11h50.23.030,PRaM,2021.2.3,Win32,59.96282305,61b8f3437b89212fae0dfade
2,4.1421,space,2.9002,0,80,80,237,1,,,5bd0e34c4b4f9e0001122ad6,61ba1b56f805c10ab7044084,2021-12-15_11h50.23.030,PRaM,2021.2.3,Win32,59.96282305,61b8f3437b89212fae0dfade
7,7.3077,space,5.917,0,81,81,180,1,,,5bd0e34c4b4f9e0001122ad6,61ba1b56f805c10ab7044084,2021-12-15_11h50.23.030,PRaM,2021.2.3,Win32,59.96282305,61b8f3437b89212fae0dfade
1,27.3438,space,26.5688,0,82,82,11,1,,,5bd0e34c4b4f9e0001122ad6,61ba1b56f805c10ab7044084,2021-12-15_11h50.23.030,PRaM,2021.2.3,Win32,59.96282305,61b8f3437b89212fae0dfade
6,3.6751,space,2.2013,0,83,83,22,1,,,5bd0e34c4b4f9e0001122ad6,61ba1b56f805c10ab7044084,2021-12-15_11h50.23.030,PRaM,2021.2.3,Win32,59.96282305,61b8f3437b89212fae0dfade
1,3.4417,space,2.1505,0,84,84,35,1,,,5bd0e34c4b4f9e0001122ad6,61ba1b56f805c10ab7044084,2021-12-15_11h50.23.030,PRaM,2021.2.3,Win32,59.96282305,61b8f3437b89212fae0dfade
3,3.822,space,2.3164,0,85,85,173,1,,,5bd0e34c4b4f9e0001122ad6,61ba1b56f805c10ab7044084,2021-12-15_11h50.23.030,PRaM,2021.2.3,Win32,59.96282305,61b8f3437b89212fae0dfade
5,2.5525,space,1.0002,0,86,86,181,1,,,5bd0e34c4b4f9e0001122ad6,61ba1b56f805c10ab7044084,2021-12-15_11h50.23.030,PRaM,2021.2.3,Win32,59.96282305,61b8f3437b89212fae0dfade
6,7.1385,space,5.7001,0,87,87,211,1,,,5bd0e34c4b4f9e0001122ad6,61ba1b56f805c10ab7044084,2021-12-15_11h50.23.030,PRaM,2021.2.3,Win32,59.96282305,61b8f3437b89212fae0dfade
1,2.6333,space,1.0728,0,88,88,212,1,,,5bd0e34c4b4f9e0001122ad6,61ba1b56f805c10ab7044084,2021-12-15_11h50.23.030,PRaM,2021.2.3,Win32,59.96282305,61b8f3437b89212fae0dfade
,,space,1.1659,0,89,89,44,1,,,5bd0e34c4b4f9e0001122ad6,61ba1b56f805c10ab7044084,2021-12-15_11h50.23.030,PRaM,2021.2.3,Win32,59.96282305,61b8f3437b89212fae0dfade
7,4.3009,space,3.266,0,90,90,60,1,,,5bd0e34c4b4f9e0001122ad6,61ba1b56f805c10ab7044084,2021-12-15_11h50.23.030,PRaM,2021.2.3,Win32,59.96282305,61b8f3437b89212fae0dfade
3,3.1031,space,1.6997,0,91,91,299,1,,,5bd0e34c4b4f9e0001122ad6,61ba1b56f805c10ab7044084,2021-12-15_11h50.23.030,PRaM,2021.2.3,Win32,59.96282305,61b8f3437b89212fae0dfade
7,5.19,space,14.1992,0,92,92,83,1,,,5bd0e34c4b4f9e0001122ad6,61ba1b56f805c10ab7044084,2021-12-15_11h50.23.030,PRaM,2021.2.3,Win32,59.96282305,61b8f3437b89212fae0dfade
5,6.5105,space,5.3331,0,93,93,209,1,,,5bd0e34c4b4f9e0001122ad6,61ba1b56f805c10ab7044084,2021-12-15_11h50.23.030,PRaM,2021.2.3,Win32,59.96282305,61b8f3437b89212fae0dfade
8,3.0555,space,1.7339,0,94,94,254,1,,,5bd0e34c4b4f9e0001122ad6,61ba1b56f805c10ab7044084,2021-12-15_11h50.23.030,PRaM,2021.2.3,Win32,59.96282305,61b8f3437b89212fae0dfade
8,2.3837,space,1.0668,0,95,95,85,1,,,5bd0e34c4b4f9e0001122ad6,61ba1b56f805c10ab7044084,2021-12-15_11h50.23.030,PRaM,2021.2.3,Win32,59.96282305,61b8f3437b89212fae0dfade
1,4.1913,space,2.9302,0,96,96,231,1,,,5bd0e34c4b4f9e0001122ad6,61ba1b56f805c10ab7044084,2021-12-15_11h50.23.030,PRaM,2021.2.3,Win32,59.96282305,61b8f3437b89212fae0dfade
1,23.0097,space,21.5405,0,97,97,218,1,,,5bd0e34c4b4f9e0001122ad6,61ba1b56f805c10ab7044084,2021-12-15_11h50.23.030,PRaM,2021.2.3,Win32,59.96282305,61b8f3437b89212fae0dfade
1,6.6251,space,6.1671,0,98,98,65,1,,,5bd0e34c4b4f9e0001122ad6,61ba1b56f805c10ab7044084,2021-12-15_11h50.23.030,PRaM,2021.2.3,Win32,59.96282305,61b8f3437b89212fae0dfade
2,6.1069,space,4.4946,0,99,99,51,1,,,5bd0e34c4b4f9e0001122ad6,61ba1b56f805c10ab7044084,2021-12-15_11h50.23.030,PRaM,2021.2.3,Win32,59.96282305,61b8f3437b89212fae0dfade
1,4.8099,space,3.2579,0,100,100,224,1,,,5bd0e34c4b4f9e0001122ad6,61ba1b56f805c10ab7044084,2021-12-15_11h50.23.030,PRaM,2021.2.3,Win32,59.96282305,61b8f3437b89212fae0dfade
1,2.7531,space,1.1271,0,101,101,1,1,,,5bd0e34c4b4f9e0001122ad6,61ba1b56f805c10ab7044084,2021-12-15_11h50.23.030,PRaM,2021.2.3,Win32,59.96282305,61b8f3437b89212fae0dfade
8,2.9585,space,1.8328,0,102,102,59,1,,,5bd0e34c4b4f9e0001122ad6,61ba1b56f805c10ab7044084,2021-12-15_11h50.23.030,PRaM,2021.2.3,Win32,59.96282305,61b8f3437b89212fae0dfade
9,3.6559,space,2.1346,0,103,103,207,1,,,5bd0e34c4b4f9e0001122ad6,61ba1b56f805c10ab7044084,2021-12-15_11h50.23.030,PRaM,2021.2.3,Win32,59.96282305,61b8f3437b89212fae0dfade
8,2.5376,space,1.0498,0,104,104,192,1,,,5bd0e34c4b4f9e0001122ad6,61ba1b56f805c10ab7044084,2021-12-15_11h50.23.030,PRaM,2021.2.3,Win32,59.96282305,61b8f3437b89212fae0dfade
7,2.6004,space,0.9607,0,105,105,334,1,,,5bd0e34c4b4f9e0001122ad6,61ba1b56f805c10ab7044084,2021-12-15_11h50.23.030,PRaM,2021.2.3,Win32,59.96282305,61b8f3437b89212fae0dfade
,,space,3.0929,0,106,106,167,1,,,5bd0e34c4b4f9e0001122ad6,61ba1b56f805c10ab7044084,2021-12-15_11h50.23.030,PRaM,2021.2.3,Win32,59.96282305,61b8f3437b89212fae0dfade
6,3.703,space,2.3134,0,107,107,305,1,,,5bd0e34c4b4f9e0001122ad6,61ba1b56f805c10ab7044084,2021-12-15_11h50.23.030,PRaM,2021.2.3,Win32,59.96282305,61b8f3437b89212fae0dfade
8,3.2415,space,1.7782,0,108,108,114,1,,,5bd0e34c4b4f9e0001122ad6,61ba1b56f805c10ab7044084,2021-12-15_11h50.23.030,PRaM,2021.2.3,Win32,59.96282305,61b8f3437b89212fae0dfade
9,3.575,space,2.1665,0,109,109,350,1,,,5bd0e34c4b4f9e0001122ad6,61ba1b56f805c10ab7044084,2021-12-15_11h50.23.030,PRaM,2021.2.3,Win32,59.96282305,61b8f3437b89212fae0dfade
6,7.8582,space,6.8846,0,110,110,213,1,,,5bd0e34c4b4f9e0001122ad6,61ba1b56f805c10ab7044084,2021-12-15_11h50.23.030,PRaM,2021.2.3,Win32,59.96282305,61b8f3437b89212fae0dfade
1,10.0662,space,8.6636,0,111,111,364,1,,,5bd0e34c4b4f9e0001122ad6,61ba1b56f805c10ab7044084,2021-12-15_11h50.23.030,PRaM,2021.2.3,Win32,59.96282305,61b8f3437b89212fae0dfade
8,4.3937,space,3.0014,0,112,112,102,1,,,5bd0e34c4b4f9e0001122ad6,61ba1b56f805c10ab7044084,2021-12-15_11h50.23.030,PRaM,2021.2.3,Win32,59.96282305,61b8f3437b89212fae0dfade
2,7.4703,space,5.9683,0,113,113,269,1,,,5bd0e34c4b4f9e0001122ad6,61ba1b56f805c10ab7044084,2021-12-15_11h50.23.030,PRaM,2021.2.3,Win32,59.96282305,61b8f3437b89212fae0dfade
1,5.4043,space,3.9323,0,114,114,70,1,,,5bd0e34c4b4f9e0001122ad6,61ba1b56f805c10ab7044084,2021-12-15_11h50.23.030,PRaM,2021.2.3,Win32,59.96282305,61b8f3437b89212fae0dfade
1,2.4185,space,0.8657,0,115,115,73,1,,,5bd0e34c4b4f9e0001122ad6,61ba1b56f805c10ab7044084,2021-12-15_11h50.23.030,PRaM,2021.2.3,Win32,59.96282305,61b8f3437b89212fae0dfade
2,3.189,space,1.7004,0,116,116,107,1,,,5bd0e34c4b4f9e0001122ad6,61ba1b56f805c10ab7044084,2021-12-15_11h50.23.030,PRaM,2021.2.3,Win32,59.96282305,61b8f3437b89212fae0dfade
7,3.0335,space,1.493,0,117,117,274,1,,,5bd0e34c4b4f9e0001122ad6,61ba1b56f805c10ab7044084,2021-12-15_11h50.23.030,PRaM,2021.2.3,Win32,59.96282305,61b8f3437b89212fae0dfade
8,2.4526,space,0.8758,0,118,118,301,1,,,5bd0e34c4b4f9e0001122ad6,61ba1b56f805c10ab7044084,2021-12-15_11h50.23.030,PRaM,2021.2.3,Win32,59.96282305,61b8f3437b89212fae0dfade
1,5.0101,space,3.9003,0,119,119,78,1,,,5bd0e34c4b4f9e0001122ad6,61ba1b56f805c10ab7044084,2021-12-15_11h50.23.030,PRaM,2021.2.3,Win32,59.96282305,61b8f3437b89212fae0dfade
1,4.1415,space,3.2047,0,120,120,360,1,,,5bd0e34c4b4f9e0001122ad6,61ba1b56f805c10ab7044084,2021-12-15_11h50.23.030,PRaM,2021.2.3,Win32,59.96282305,61b8f3437b89212fae0dfade
2,3.2209,space,2.2242,0,121,121,171,1,,,5bd0e34c4b4f9e0001122ad6,61ba1b56f805c10ab7044084,2021-12-15_11h50.23.030,PRaM,2021.2.3,Win32,59.96282305,61b8f3437b89212fae0dfade
6,7.3081,space,6.069,0,122,122,69,1,,,5bd0e34c4b4f9e0001122ad6,61ba1b56f805c10ab7044084,2021-12-15_11h50.23.030,PRaM,2021.2.3,Win32,59.96282305,61b8f3437b89212fae0dfade
,,space,7.9625,0,123,123,190,1,,,5bd0e34c4b4f9e0001122ad6,61ba1b56f805c10ab7044084,2021-12-15_11h50.23.030,PRaM,2021.2.3,Win32,59.96282305,61b8f3437b89212fae0dfade
2,2.6635,space,1.3048,0,124,124,314,1,,,5bd0e34c4b4f9e0001122ad6,61ba1b56f805c10ab7044084,2021-12-15_11h50.23.030,PRaM,2021.2.3,Win32,59.96282305,61b8f3437b89212fae0dfade
8,10.7256,space,9.3231,0,125,125,126,1,,,5bd0e34c4b4f9e0001122ad6,61ba1b56f805c10ab7044084,2021-12-15_11h50.23.030,PRaM,2021.2.3,Win32,59.96282305,61b8f3437b89212fae0dfade
8,3.6773,space,2.3002,0,126,126,323,1,,,5bd0e34c4b4f9e0001122ad6,61ba1b56f805c10ab7044084,2021-12-15_11h50.23.030,PRaM,2021.2.3,Win32,59.96282305,61b8f3437b89212fae0dfade
8,1.9832,space,0.6473,0,127,127,239,1,,,5bd0e34c4b4f9e0001122ad6,61ba1b56f805c10ab7044084,2021-12-15_11h50.23.030,PRaM,2021.2.3,Win32,59.96282305,61b8f3437b89212fae0dfade
5,2.5693,space,1.2,0,128,128,236,1,,,5bd0e34c4b4f9e0001122ad6,61ba1b56f805c10ab7044084,2021-12-15_11h50.23.030,PRaM,2021.2.3,Win32,59.96282305,61b8f3437b89212fae0dfade
1,10.6381,space,10.8523,0,129,129,245,1,,,5bd0e34c4b4f9e0001122ad6,61ba1b56f805c10ab7044084,2021-12-15_11h50.23.030,PRaM,2021.2.3,Win32,59.96282305,61b8f3437b89212fae0dfade
4,5.3976,space,3.9181,0,130,130,37,1,,,5bd0e34c4b4f9e0001122ad6,61ba1b56f805c10ab7044084,2021-12-15_11h50.23.030,PRaM,2021.2.3,Win32,59.96282305,61b8f3437b89212fae0dfade
1,5.5751,space,4.2506,0,131,131,116,1,,,5bd0e34c4b4f9e0001122ad6,61ba1b56f805c10ab7044084,2021-12-15_11h50.23.030,PRaM,2021.2.3,Win32,59.96282305,61b8f3437b89212fae0dfade
3,5.506,space,4.0538,0,132,132,146,1,,,5bd0e34c4b4f9e0001122ad6,61ba1b56f805c10ab7044084,2021-12-15_11h50.23.030,PRaM,2021.2.3,Win32,59.96282305,61b8f3437b89212fae0dfade
1,3.4034,space,1.9492,0,133,133,374,1,,,5bd0e34c4b4f9e0001122ad6,61ba1b56f805c10ab7044084,2021-12-15_11h50.23.030,PRaM,2021.2.3,Win32,59.96282305,61b8f3437b89212fae0dfade
8,3.8717,space,3.6167,0,134,134,17,1,,,5bd0e34c4b4f9e0001122ad6,61ba1b56f805c10ab7044084,2021-12-15_11h50.23.030,PRaM,2021.2.3,Win32,59.96282305,61b8f3437b89212fae0dfade
2,5.3575,space,4.5825,0,135,135,376,1,,,5bd0e34c4b4f9e0001122ad6,61ba1b56f805c10ab7044084,2021-12-15_11h50.23.030,PRaM,2021.2.3,Win32,59.96282305,61b8f3437b89212fae0dfade
1,2.8503,space,1.4002,0,136,136,108,1,,,5bd0e34c4b4f9e0001122ad6,61ba1b56f805c10ab7044084,2021-12-15_11h50.23.030,PRaM,2021.2.3,Win32,59.96282305,61b8f3437b89212fae0dfade
1,19.6349,space,19.3274,0,137,137,121,1,,,5bd0e34c4b4f9e0001122ad6,61ba1b56f805c10ab7044084,2021-12-15_11h50.23.030,PRaM,2021.2.3,Win32,59.96282305,61b8f3437b89212fae0dfade
3,3.7425,space,2.4333,0,138,138,343,1,,,5bd0e34c4b4f9e0001122ad6,61ba1b56f805c10ab7044084,2021-12-15_11h50.23.030,PRaM,2021.2.3,Win32,59.96282305,61b8f3437b89212fae0dfade
2,4.3888,space,2.9007,0,139,139,47,1,,,5bd0e34c4b4f9e0001122ad6,61ba1b56f805c10ab7044084,2021-12-15_11h50.23.030,PRaM,2021.2.3,Win32,59.96282305,61b8f3437b89212fae0dfade
1,2.4217,space,0.9237,0,140,140,219,1,,,5bd0e34c4b4f9e0001122ad6,61ba1b56f805c10ab7044084,2021-12-15_11h50.23.030,PRaM,2021.2.3,Win32,59.96282305,61b8f3437b89212fae0dfade
1,1.6696,space,0.2174,0,141,141,258,1,,,5bd0e34c4b4f9e0001122ad6,61ba1b56f805c10ab7044084,2021-12-15_11h50.23.030,PRaM,2021.2.3,Win32,59.96282305,61b8f3437b89212fae0dfade
7,3.4084,space,2.278,0,142,142,335,1,,,5bd0e34c4b4f9e0001122ad6,61ba1b56f805c10ab7044084,2021-12-15_11h50.23.030,PRaM,2021.2.3,Win32,59.96282305,61b8f3437b89212fae0dfade
,,space,18.529,0,143,143,21,1,,,5bd0e34c4b4f9e0001122ad6,61ba1b56f805c10ab7044084,2021-12-15_11h50.23.030,PRaM,2021.2.3,Win32,59.96282305,61b8f3437b89212fae0dfade
3,3.0969,space,1.475,0,144,144,240,1,,,5bd0e34c4b4f9e0001122ad6,61ba1b56f805c10ab7044084,2021-12-15_11h50.23.030,PRaM,2021.2.3,Win32,59.96282305,61b8f3437b89212fae0dfade
2,8.4253,space,6.9009,0,145,145,156,1,,,5bd0e34c4b4f9e0001122ad6,61ba1b56f805c10ab7044084,2021-12-15_11h50.23.030,PRaM,2021.2.3,Win32,59.96282305,61b8f3437b89212fae0dfade
1,3.0034,space,1.4567,0,146,146,344,1,,,5bd0e34c4b4f9e0001122ad6,61ba1b56f805c10ab7044084,2021-12-15_11h50.23.030,PRaM,2021.2.3,Win32,59.96282305,61b8f3437b89212fae0dfade
5,3.2863,space,1.8492,0,147,147,38,1,,,5bd0e34c4b4f9e0001122ad6,61ba1b56f805c10ab7044084,2021-12-15_11h50.23.030,PRaM,2021.2.3,Win32,59.96282305,61b8f3437b89212fae0dfade
6,2.8401,space,1.3402,0,148,148,285,1,,,5bd0e34c4b4f9e0001122ad6,61ba1b56f805c10ab7044084,2021-12-15_11h50.23.030,PRaM,2021.2.3,Win32,59.96282305,61b8f3437b89212fae0dfade
1,2.9586,space,1.6166,0,149,149,375,1,,,5bd0e34c4b4f9e0001122ad6,61ba1b56f805c10ab7044084,2021-12-15_11h50.23.030,PRaM,2021.2.3,Win32,59.96282305,61b8f3437b89212fae0dfade
1,2.3016,space,1.0892,0,150,150,313,1,,,5bd0e34c4b4f9e0001122ad6,61ba1b56f805c10ab7044084,2021-12-15_11h50.23.030,PRaM,2021.2.3,Win32,59.96282305,61b8f3437b89212fae0dfade
1,0.2526,space,1.3459,0,151,151,97,1,,,5bd0e34c4b4f9e0001122ad6,61ba1b56f805c10ab7044084,2021-12-15_11h50.23.030,PRaM,2021.2.3,Win32,59.96282305,61b8f3437b89212fae0dfade
1,1.9213,space,0.629,0,152,152,155,1,,,5bd0e34c4b4f9e0001122ad6,61ba1b56f805c10ab7044084,2021-12-15_11h50.23.030,PRaM,2021.2.3,Win32,59.96282305,61b8f3437b89212fae0dfade
1,2.1708,space,0.5506,0,153,153,58,1,,,5bd0e34c4b4f9e0001122ad6,61ba1b56f805c10ab7044084,2021-12-15_11h50.23.030,PRaM,2021.2.3,Win32,59.96282305,61b8f3437b89212fae0dfade
1,1.8999,space,0.4324,0,154,154,129,1,,,5bd0e34c4b4f9e0001122ad6,61ba1b56f805c10ab7044084,2021-12-15_11h50.23.030,PRaM,2021.2.3,Win32,59.96282305,61b8f3437b89212fae0dfade
4,3.3066,space,2.6671,0,155,155,261,1,,,5bd0e34c4b4f9e0001122ad6,61ba1b56f805c10ab7044084,2021-12-15_11h50.23.030,PRaM,2021.2.3,Win32,59.96282305,61b8f3437b89212fae0dfade
6,4.0771,space,2.5629,0,156,156,177,1,,,5bd0e34c4b4f9e0001122ad6,61ba1b56f805c10ab7044084,2021-12-15_11h50.23.030,PRaM,2021.2.3,Win32,59.96282305,61b8f3437b89212fae0dfade
8,3.6863,space,2.4337,0,157,157,230,1,,,5bd0e34c4b4f9e0001122ad6,61ba1b56f805c10ab7044084,2021-12-15_11h50.23.030,PRaM,2021.2.3,Win32,59.96282305,61b8f3437b89212fae0dfade
1,4.0887,space,2.4954,0,158,158,133,1,,,5bd0e34c4b4f9e0001122ad6,61ba1b56f805c10ab7044084,2021-12-15_11h50.23.030,PRaM,2021.2.3,Win32,59.96282305,61b8f3437b89212fae0dfade
1,2.9915,space,1.4365,0,159,159,356,1,,,5bd0e34c4b4f9e0001122ad6,61ba1b56f805c10ab7044084,2021-12-15_11h50.23.030,PRaM,2021.2.3,Win32,59.96282305,61b8f3437b89212fae0dfade
1,6.992,space,5.8019,0,160,160,163,1,,,5bd0e34c4b4f9e0001122ad6,61ba1b56f805c10ab7044084,2021-12-15_11h50.23.030,PRaM,2021.2.3,Win32,59.96282305,61b8f3437b89212fae0dfade
6,3.0673,space,1.9533,0,161,161,222,1,,,5bd0e34c4b4f9e0001122ad6,61ba1b56f805c10ab7044084,2021-12-15_11h50.23.030,PRaM,2021.2.3,Win32,59.96282305,61b8f3437b89212fae0dfade
1,4.9763,space,3.8016,0,162,162,131,1,,,5bd0e34c4b4f9e0001122ad6,61ba1b56f805c10ab7044084,2021-12-15_11h50.23.030,PRaM,2021.2.3,Win32,59.96282305,61b8f3437b89212fae0dfade
1,2.3986,space,0.7999,0,163,163,49,1,,,5bd0e34c4b4f9e0001122ad6,61ba1b56f805c10ab7044084,2021-12-15_11h50.23.030,PRaM,2021.2.3,Win32,59.96282305,61b8f3437b89212fae0dfade
6,3.4394,space,1.9286,0,164,164,244,1,,,5bd0e34c4b4f9e0001122ad6,61ba1b56f805c10ab7044084,2021-12-15_11h50.23.030,PRaM,2021.2.3,Win32,59.96282305,61b8f3437b89212fae0dfade
7,34.4258,space,32.9621,0,165,165,238,1,,,5bd0e34c4b4f9e0001122ad6,61ba1b56f805c10ab7044084,2021-12-15_11h50.23.030,PRaM,2021.2.3,Win32,59.96282305,61b8f3437b89212fae0dfade
1,7.6259,space,6.0442,0,166,166,43,1,,,5bd0e34c4b4f9e0001122ad6,61ba1b56f805c10ab7044084,2021-12-15_11h50.23.030,PRaM,2021.2.3,Win32,59.96282305,61b8f3437b89212fae0dfade
8,5.1102,space,3.4836,0,167,167,29,1,,,5bd0e34c4b4f9e0001122ad6,61ba1b56f805c10ab7044084,2021-12-15_11h50.23.030,PRaM,2021.2.3,Win32,59.96282305,61b8f3437b89212fae0dfade
7,2.4496,space,0.7854,0,168,168,280,1,,,5bd0e34c4b4f9e0001122ad6,61ba1b56f805c10ab7044084,2021-12-15_11h50.23.030,PRaM,2021.2.3,Win32,59.96282305,61b8f3437b89212fae0dfade
1,4.2035,space,2.5695,0,169,169,251,1,,,5bd0e34c4b4f9e0001122ad6,61ba1b56f805c10ab7044084,2021-12-15_11h50.23.030,PRaM,2021.2.3,Win32,59.96282305,61b8f3437b89212fae0dfade
1,2.8087,space,1.0939,0,170,170,109,1,,,5bd0e34c4b4f9e0001122ad6,61ba1b56f805c10ab7044084,2021-12-15_11h50.23.030,PRaM,2021.2.3,Win32,59.96282305,61b8f3437b89212fae0dfade
6,3.2029,space,1.7117,0,171,171,88,1,,,5bd0e34c4b4f9e0001122ad6,61ba1b56f805c10ab7044084,2021-12-15_11h50.23.030,PRaM,2021.2.3,Win32,59.96282305,61b8f3437b89212fae0dfade
3,2.5039,space,0.8597,0,172,172,241,1,,,5bd0e34c4b4f9e0001122ad6,61ba1b56f805c10ab7044084,2021-12-15_11h50.23.030,PRaM,2021.2.3,Win32,59.96282305,61b8f3437b89212fae0dfade
8,4.0765,space,2.5767,0,173,173,307,1,,,5bd0e34c4b4f9e0001122ad6,61ba1b56f805c10ab7044084,2021-12-15_11h50.23.030,PRaM,2021.2.3,Win32,59.96282305,61b8f3437b89212fae0dfade
1,3.2921,space,1.9268,0,174,174,160,1,,,5bd0e34c4b4f9e0001122ad6,61ba1b56f805c10ab7044084,2021-12-15_11h50.23.030,PRaM,2021.2.3,Win32,59.96282305,61b8f3437b89212fae0dfade
,,space,0.8323,0,175,175,322,1,,,5bd0e34c4b4f9e0001122ad6,61ba1b56f805c10ab7044084,2021-12-15_11h50.23.030,PRaM,2021.2.3,Win32,59.96282305,61b8f3437b89212fae0dfade
5,3.5974,space,2.015,0,176,176,200,1,,,5bd0e34c4b4f9e0001122ad6,61ba1b56f805c10ab7044084,2021-12-15_11h50.23.030,PRaM,2021.2.3,Win32,59.96282305,61b8f3437b89212fae0dfade
4,3.4199,space,2.0421,0,177,177,371,1,,,5bd0e34c4b4f9e0001122ad6,61ba1b56f805c10ab7044084,2021-12-15_11h50.23.030,PRaM,2021.2.3,Win32,59.96282305,61b8f3437b89212fae0dfade
3,3.8917,space,2.4007,0,178,178,187,1,,,5bd0e34c4b4f9e0001122ad6,61ba1b56f805c10ab7044084,2021-12-15_11h50.23.030,PRaM,2021.2.3,Win32,59.96282305,61b8f3437b89212fae0dfade
9,7.798,space,6.2859,0,179,179,320,1,,,5bd0e34c4b4f9e0001122ad6,61ba1b56f805c10ab7044084,2021-12-15_11h50.23.030,PRaM,2021.2.3,Win32,59.96282305,61b8f3437b89212fae0dfade
2,3.7418,space,2.1156,0,180,180,193,1,,,5bd0e34c4b4f9e0001122ad6,61ba1b56f805c10ab7044084,2021-12-15_11h50.23.030,PRaM,2021.2.3,Win32,59.96282305,61b8f3437b89212fae0dfade
3,4.3268,space,2.9006,0,181,181,317,1,,,5bd0e34c4b4f9e0001122ad6,61ba1b56f805c10ab7044084,2021-12-15_11h50.23.030,PRaM,2021.2.3,Win32,59.96282305,61b8f3437b89212fae0dfade
6,4.2083,space,3.3581,0,182,182,159,1,,,5bd0e34c4b4f9e0001122ad6,61ba1b56f805c10ab7044084,2021-12-15_11h50.23.030,PRaM,2021.2.3,Win32,59.96282305,61b8f3437b89212fae0dfade
5,3.6083,space,2.9332,0,183,183,132,1,,,5bd0e34c4b4f9e0001122ad6,61ba1b56f805c10ab7044084,2021-12-15_11h50.23.030,PRaM,2021.2.3,Win32,59.96282305,61b8f3437b89212fae0dfade
1,6.1722,space,5.0009,0,184,184,2,1,,,5bd0e34c4b4f9e0001122ad6,61ba1b56f805c10ab7044084,2021-12-15_11h50.23.030,PRaM,2021.2.3,Win32,59.96282305,61b8f3437b89212fae0dfade
2,2.8914,space,1.6338,0,185,185,267,1,,,5bd0e34c4b4f9e0001122ad6,61ba1b56f805c10ab7044084,2021-12-15_11h50.23.030,PRaM,2021.2.3,Win32,59.96282305,61b8f3437b89212fae0dfade
1,3.9552,space,2.5335,0,186,186,113,1,,,5bd0e34c4b4f9e0001122ad6,61ba1b56f805c10ab7044084,2021-12-15_11h50.23.030,PRaM,2021.2.3,Win32,59.96282305,61b8f3437b89212fae0dfade
1,3.9387,space,2.9667,0,187,187,220,1,,,5bd0e34c4b4f9e0001122ad6,61ba1b56f805c10ab7044084,2021-12-15_11h50.23.030,PRaM,2021.2.3,Win32,59.96282305,61b8f3437b89212fae0dfade
1,2.3377,space,0.8333,0,188,188,125,1,,,5bd0e34c4b4f9e0001122ad6,61ba1b56f805c10ab7044084,2021-12-15_11h50.23.030,PRaM,2021.2.3,Win32,59.96282305,61b8f3437b89212fae0dfade
2,2.989,space,1.4521,0,189,189,373,1,,,5bd0e34c4b4f9e0001122ad6,61ba1b56f805c10ab7044084,2021-12-15_11h50.23.030,PRaM,2021.2.3,Win32,59.96282305,61b8f3437b89212fae0dfade
1,2.9084,space,1.293,0,190,190,161,1,,,5bd0e34c4b4f9e0001122ad6,61ba1b56f805c10ab7044084,2021-12-15_11h50.23.030,PRaM,2021.2.3,Win32,59.96282305,61b8f3437b89212fae0dfade
1,1.8694,space,0.4673,0,191,191,179,1,,,5bd0e34c4b4f9e0001122ad6,61ba1b56f805c10ab7044084,2021-12-15_11h50.23.030,PRaM,2021.2.3,Win32,59.96282305,61b8f3437b89212fae0dfade
1,3.5053,space,1.8985,0,192,192,312,1,,,5bd0e34c4b4f9e0001122ad6,61ba1b56f805c10ab7044084,2021-12-15_11h50.23.030,PRaM,2021.2.3,Win32,59.96282305,61b8f3437b89212fae0dfade
1,4.9387,space,5.3452,0,193,193,369,1,,,5bd0e34c4b4f9e0001122ad6,61ba1b56f805c10ab7044084,2021-12-15_11h50.23.030,PRaM,2021.2.3,Win32,59.96282305,61b8f3437b89212fae0dfade
1,2.0636,space,0.5667,0,194,194,67,1,,,5bd0e34c4b4f9e0001122ad6,61ba1b56f805c10ab7044084,2021-12-15_11h50.23.030,PRaM,2021.2.3,Win32,59.96282305,61b8f3437b89212fae0dfade
1,2.4497,space,0.8391,0,195,195,217,1,,,5bd0e34c4b4f9e0001122ad6,61ba1b56f805c10ab7044084,2021-12-15_11h50.23.030,PRaM,2021.2.3,Win32,59.96282305,61b8f3437b89212fae0dfade
8,4.0919,space,2.4821,0,196,196,291,1,,,5bd0e34c4b4f9e0001122ad6,61ba1b56f805c10ab7044084,2021-12-15_11h50.23.030,PRaM,2021.2.3,Win32,59.96282305,61b8f3437b89212fae0dfade
6,7.0913,space,5.4961,0,197,197,45,1,,,5bd0e34c4b4f9e0001122ad6,61ba1b56f805c10ab7044084,2021-12-15_11h50.23.030,PRaM,2021.2.3,Win32,59.96282305,61b8f3437b89212fae0dfade
9,3.7248,space,2.1181,0,198,198,105,1,,,5bd0e34c4b4f9e0001122ad6,61ba1b56f805c10ab7044084,2021-12-15_11h50.23.030,PRaM,2021.2.3,Win32,59.96282305,61b8f3437b89212fae0dfade
2,4.4201,space,2.8053,0,199,199,349,1,,,5bd0e34c4b4f9e0001122ad6,61ba1b56f805c10ab7044084,2021-12-15_11h50.23.030,PRaM,2021.2.3,Win32,59.96282305,61b8f3437b89212fae0dfade
2,2.4196,space,0.8188,0,200,200,311,1,,,5bd0e34c4b4f9e0001122ad6,61ba1b56f805c10ab7044084,2021-12-15_11h50.23.030,PRaM,2021.2.3,Win32,59.96282305,61b8f3437b89212fae0dfade
3,3.5248,space,2.3525,0,201,201,265,1,,,5bd0e34c4b4f9e0001122ad6,61ba1b56f805c10ab7044084,2021-12-15_11h50.23.030,PRaM,2021.2.3,Win32,59.96282305,61b8f3437b89212fae0dfade
5,3.836,space,2.1927,0,202,202,298,1,,,5bd0e34c4b4f9e0001122ad6,61ba1b56f805c10ab7044084,2021-12-15_11h50.23.030,PRaM,2021.2.3,Win32,59.96282305,61b8f3437b89212fae0dfade
6,3.0583,space,1.5128,0,203,203,249,1,,,5bd0e34c4b4f9e0001122ad6,61ba1b56f805c10ab7044084,2021-12-15_11h50.23.030,PRaM,2021.2.3,Win32,59.96282305,61b8f3437b89212fae0dfade
7,2.5524,space,0.8299,0,204,204,16,1,,,5bd0e34c4b4f9e0001122ad6,61ba1b56f805c10ab7044084,2021-12-15_11h50.23.030,PRaM,2021.2.3,Win32,59.96282305,61b8f3437b89212fae0dfade
6,3.5207,space,1.9198,0,205,205,165,1,,,5bd0e34c4b4f9e0001122ad6,61ba1b56f805c10ab7044084,2021-12-15_11h50.23.030,PRaM,2021.2.3,Win32,59.96282305,61b8f3437b89212fae0dfade
9,3.4197,space,1.8204,0,206,206,19,1,,,5bd0e34c4b4f9e0001122ad6,61ba1b56f805c10ab7044084,2021-12-15_11h50.23.030,PRaM,2021.2.3,Win32,59.96282305,61b8f3437b89212fae0dfade
3,25.4585,space,24.0008,0,207,207,365,1,,,5bd0e34c4b4f9e0001122ad6,61ba1b56f805c10ab7044084,2021-12-15_11h50.23.030,PRaM,2021.2.3,Win32,59.96282305,61b8f3437b89212fae0dfade
1,10.1229,space,8.5369,0,208,208,308,1,,,5bd0e34c4b4f9e0001122ad6,61ba1b56f805c10ab7044084,2021-12-15_11h50.23.030,PRaM,2021.2.3,Win32,59.96282305,61b8f3437b89212fae0dfade
5,3.1101,space,4.408,0,209,209,152,1,,,5bd0e34c4b4f9e0001122ad6,61ba1b56f805c10ab7044084,2021-12-15_11h50.23.030,PRaM,2021.2.3,Win32,59.96282305,61b8f3437b89212fae0dfade
1,3.9765,space,2.3513,0,210,210,87,1,,,5bd0e34c4b4f9e0001122ad6,61ba1b56f805c10ab7044084,2021-12-15_11h50.23.030,PRaM,2021.2.3,Win32,59.96282305,61b8f3437b89212fae0dfade
1,2.7697,space,1.1845,0,211,211,5,1,,,5bd0e34c4b4f9e0001122ad6,61ba1b56f805c10ab7044084,2021-12-15_11h50.23.030,PRaM,2021.2.3,Win32,59.96282305,61b8f3437b89212fae0dfade
7,4.2249,space,2.7706,0,212,212,319,1,,,5bd0e34c4b4f9e0001122ad6,61ba1b56f805c10ab7044084,2021-12-15_11h50.23.030,PRaM,2021.2.3,Win32,59.96282305,61b8f3437b89212fae0dfade
8,2.7194,space,1.3005,0,213,213,336,1,,,5bd0e34c4b4f9e0001122ad6,61ba1b56f805c10ab7044084,2021-12-15_11h50.23.030,PRaM,2021.2.3,Win32,59.96282305,61b8f3437b89212fae0dfade
1,3.525,space,1.9505,0,214,214,284,1,,,5bd0e34c4b4f9e0001122ad6,61ba1b56f805c10ab7044084,2021-12-15_11h50.23.030,PRaM,2021.2.3,Win32,59.96282305,61b8f3437b89212fae0dfade
9,4.5933,space,4.2844,0,215,215,7,1,,,5bd0e34c4b4f9e0001122ad6,61ba1b56f805c10ab7044084,2021-12-15_11h50.23.030,PRaM,2021.2.3,Win32,59.96282305,61b8f3437b89212fae0dfade
1,4.5244,space,3.0191,0,216,216,157,1,,,5bd0e34c4b4f9e0001122ad6,61ba1b56f805c10ab7044084,2021-12-15_11h50.23.030,PRaM,2021.2.3,Win32,59.96282305,61b8f3437b89212fae0dfade
1,2.2659,space,0.7518,0,217,217,229,1,,,5bd0e34c4b4f9e0001122ad6,61ba1b56f805c10ab7044084,2021-12-15_11h50.23.030,PRaM,2021.2.3,Win32,59.96282305,61b8f3437b89212fae0dfade
5,3.393,space,2.2825,0,218,218,246,1,,,5bd0e34c4b4f9e0001122ad6,61ba1b56f805c10ab7044084,2021-12-15_11h50.23.030,PRaM,2021.2.3,Win32,59.96282305,61b8f3437b89212fae0dfade
1,3.8723,space,2.4171,0,219,219,204,1,,,5bd0e34c4b4f9e0001122ad6,61ba1b56f805c10ab7044084,2021-12-15_11h50.23.030,PRaM,2021.2.3,Win32,59.96282305,61b8f3437b89212fae0dfade
1,2.1001,space,0.4751,0,220,220,348,1,,,5bd0e34c4b4f9e0001122ad6,61ba1b56f805c10ab7044084,2021-12-15_11h50.23.030,PRaM,2021.2.3,Win32,59.96282305,61b8f3437b89212fae0dfade
2,2.6043,space,1.0337,0,221,221,341,1,,,5bd0e34c4b4f9e0001122ad6,61ba1b56f805c10ab7044084,2021-12-15_11h50.23.030,PRaM,2021.2.3,Win32,59.96282305,61b8f3437b89212fae0dfade
5,3.2834,space,1.75,0,222,222,351,1,,,5bd0e34c4b4f9e0001122ad6,61ba1b56f805c10ab7044084,2021-12-15_11h50.23.030,PRaM,2021.2.3,Win32,59.96282305,61b8f3437b89212fae0dfade
1,3.5611,space,1.978,0,223,223,232,1,,,5bd0e34c4b4f9e0001122ad6,61ba1b56f805c10ab7044084,2021-12-15_11h50.23.030,PRaM,2021.2.3,Win32,59.96282305,61b8f3437b89212fae0dfade
8,4.2591,space,3.042,0,224,224,297,1,,,5bd0e34c4b4f9e0001122ad6,61ba1b56f805c10ab7044084,2021-12-15_11h50.23.030,PRaM,2021.2.3,Win32,59.96282305,61b8f3437b89212fae0dfade
1,3.4917,space,4.3336,0,225,225,8,1,,,5bd0e34c4b4f9e0001122ad6,61ba1b56f805c10ab7044084,2021-12-15_11h50.23.030,PRaM,2021.2.3,Win32,59.96282305,61b8f3437b89212fae0dfade
1,2.85,space,1.6411,0,226,226,198,1,,,5bd0e34c4b4f9e0001122ad6,61ba1b56f805c10ab7044084,2021-12-15_11h50.23.030,PRaM,2021.2.3,Win32,59.96282305,61b8f3437b89212fae0dfade
3,2.8697,space,1.2781,0,227,227,377,1,,,5bd0e34c4b4f9e0001122ad6,61ba1b56f805c10ab7044084,2021-12-15_11h50.23.030,PRaM,2021.2.3,Win32,59.96282305,61b8f3437b89212fae0dfade
3,2.6596,space,1.0004,0,228,228,72,1,,,5bd0e34c4b4f9e0001122ad6,61ba1b56f805c10ab7044084,2021-12-15_11h50.23.030,PRaM,2021.2.3,Win32,59.96282305,61b8f3437b89212fae0dfade
3,2.6656,space,2.0839,0,229,229,294,1,,,5bd0e34c4b4f9e0001122ad6,61ba1b56f805c10ab7044084,2021-12-15_11h50.23.030,PRaM,2021.2.3,Win32,59.96282305,61b8f3437b89212fae0dfade
1,2.8163,space,1.1991,0,230,230,174,1,,,5bd0e34c4b4f9e0001122ad6,61ba1b56f805c10ab7044084,2021-12-15_11h50.23.030,PRaM,2021.2.3,Win32,59.96282305,61b8f3437b89212fae0dfade
1,2.5528,space,0.9128,0,231,231,184,1,,,5bd0e34c4b4f9e0001122ad6,61ba1b56f805c10ab7044084,2021-12-15_11h50.23.030,PRaM,2021.2.3,Win32,59.96282305,61b8f3437b89212fae0dfade
2,4.1264,space,2.5635,0,232,232,138,1,,,5bd0e34c4b4f9e0001122ad6,61ba1b56f805c10ab7044084,2021-12-15_11h50.23.030,PRaM,2021.2.3,Win32,59.96282305,61b8f3437b89212fae0dfade
1,3.2583,space,1.7007,0,233,233,82,1,,,5bd0e34c4b4f9e0001122ad6,61ba1b56f805c10ab7044084,2021-12-15_11h50.23.030,PRaM,2021.2.3,Win32,59.96282305,61b8f3437b89212fae0dfade
1,1.9997,space,0.3007,0,234,234,263,1,,,5bd0e34c4b4f9e0001122ad6,61ba1b56f805c10ab7044084,2021-12-15_11h50.23.030,PRaM,2021.2.3,Win32,59.96282305,61b8f3437b89212fae0dfade
6,4.9165,space,3.3488,0,235,235,149,1,,,5bd0e34c4b4f9e0001122ad6,61ba1b56f805c10ab7044084,2021-12-15_11h50.23.030,PRaM,2021.2.3,Win32,59.96282305,61b8f3437b89212fae0dfade
2,3.2887,space,1.6747,0,236,236,28,1,,,5bd0e34c4b4f9e0001122ad6,61ba1b56f805c10ab7044084,2021-12-15_11h50.23.030,PRaM,2021.2.3,Win32,59.96282305,61b8f3437b89212fae0dfade
1,3.1379,space,2.5466,0,237,237,15,1,,,5bd0e34c4b4f9e0001122ad6,61ba1b56f805c10ab7044084,2021-12-15_11h50.23.030,PRaM,2021.2.3,Win32,59.96282305,61b8f3437b89212fae0dfade
1,1.6191,space,2.2316,0,238,238,9,1,,,5bd0e34c4b4f9e0001122ad6,61ba1b56f805c10ab7044084,2021-12-15_11h50.23.030,PRaM,2021.2.3,Win32,59.96282305,61b8f3437b89212fae0dfade
9,3.7716,space,2.6623,0,239,239,3,1,,,5bd0e34c4b4f9e0001122ad6,61ba1b56f805c10ab7044084,2021-12-15_11h50.23.030,PRaM,2021.2.3,Win32,59.96282305,61b8f3437b89212fae0dfade
,,space,52.503,0,240,240,310,1,,,5bd0e34c4b4f9e0001122ad6,61ba1b56f805c10ab7044084,2021-12-15_11h50.23.030,PRaM,2021.2.3,Win32,59.96282305,61b8f3437b89212fae0dfade
1,3.6801,space,2.1675,0,241,241,10,1,,,5bd0e34c4b4f9e0001122ad6,61ba1b56f805c10ab7044084,2021-12-15_11h50.23.030,PRaM,2021.2.3,Win32,59.96282305,61b8f3437b89212fae0dfade
1,2.0999,space,0.5259,0,242,242,309,1,,,5bd0e34c4b4f9e0001122ad6,61ba1b56f805c10ab7044084,2021-12-15_11h50.23.030,PRaM,2021.2.3,Win32,59.96282305,61b8f3437b89212fae0dfade
6,5.3918,space,3.7598,0,243,243,186,1,,,5bd0e34c4b4f9e0001122ad6,61ba1b56f805c10ab7044084,2021-12-15_11h50.23.030,PRaM,2021.2.3,Win32,59.96282305,61b8f3437b89212fae0dfade
9,3.4379,space,1.8081,0,244,244,221,1,,,5bd0e34c4b4f9e0001122ad6,61ba1b56f805c10ab7044084,2021-12-15_11h50.23.030,PRaM,2021.2.3,Win32,59.96282305,61b8f3437b89212fae0dfade
2,3.304,space,1.7188,0,245,245,345,1,,,5bd0e34c4b4f9e0001122ad6,61ba1b56f805c10ab7044084,2021-12-15_11h50.23.030,PRaM,2021.2.3,Win32,59.96282305,61b8f3437b89212fae0dfade
1,2.3383,space,0.7322,0,246,246,63,1,,,5bd0e34c4b4f9e0001122ad6,61ba1b56f805c10ab7044084,2021-12-15_11h50.23.030,PRaM,2021.2.3,Win32,59.96282305,61b8f3437b89212fae0dfade
4,2.9353,space,1.3684,0,247,247,233,1,,,5bd0e34c4b4f9e0001122ad6,61ba1b56f805c10ab7044084,2021-12-15_11h50.23.030,PRaM,2021.2.3,Win32,59.96282305,61b8f3437b89212fae0dfade
7,2.3362,space,0.953,0,248,248,140,1,,,5bd0e34c4b4f9e0001122ad6,61ba1b56f805c10ab7044084,2021-12-15_11h50.23.030,PRaM,2021.2.3,Win32,59.96282305,61b8f3437b89212fae0dfade
1,3.0414,space,1.4036,0,249,249,329,1,,,5bd0e34c4b4f9e0001122ad6,61ba1b56f805c10ab7044084,2021-12-15_11h50.23.030,PRaM,2021.2.3,Win32,59.96282305,61b8f3437b89212fae0dfade
4,3.8089,space,2.2322,0,250,250,358,1,,,5bd0e34c4b4f9e0001122ad6,61ba1b56f805c10ab7044084,2021-12-15_11h50.23.030,PRaM,2021.2.3,Win32,59.96282305,61b8f3437b89212fae0dfade
1,3.539,space,2.3057,0,251,251,164,1,,,5bd0e34c4b4f9e0001122ad6,61ba1b56f805c10ab7044084,2021-12-15_11h50.23.030,PRaM,2021.2.3,Win32,59.96282305,61b8f3437b89212fae0dfade
9,3.0917,space,1.4364,0,252,252,302,1,,,5bd0e34c4b4f9e0001122ad6,61ba1b56f805c10ab7044084,2021-12-15_11h50.23.030,PRaM,2021.2.3,Win32,59.96282305,61b8f3437b89212fae0dfade
9,8.2914,space,6.7679,0,253,253,288,1,,,5bd0e34c4b4f9e0001122ad6,61ba1b56f805c10ab7044084,2021-12-15_11h50.23.030,PRaM,2021.2.3,Win32,59.96282305,61b8f3437b89212fae0dfade
3,4.675,space,3.1889,0,254,254,286,1,,,5bd0e34c4b4f9e0001122ad6,61ba1b56f805c10ab7044084,2021-12-15_11h50.23.030,PRaM,2021.2.3,Win32,59.96282305,61b8f3437b89212fae0dfade
7,2.8208,space,1.3332,0,255,255,42,1,,,5bd0e34c4b4f9e0001122ad6,61ba1b56f805c10ab7044084,2021-12-15_11h50.23.030,PRaM,2021.2.3,Win32,59.96282305,61b8f3437b89212fae0dfade
8,2.2558,space,0.6502,0,256,256,216,1,,,5bd0e34c4b4f9e0001122ad6,61ba1b56f805c10ab7044084,2021-12-15_11h50.23.030,PRaM,2021.2.3,Win32,59.96282305,61b8f3437b89212fae0dfade
1,3.539,space,1.9516,0,257,257,339,1,,,5bd0e34c4b4f9e0001122ad6,61ba1b56f805c10ab7044084,2021-12-15_11h50.23.030,PRaM,2021.2.3,Win32,59.96282305,61b8f3437b89212fae0dfade
6,3.6543,space,3.2548,0,258,258,93,1,,,5bd0e34c4b4f9e0001122ad6,61ba1b56f805c10ab7044084,2021-12-15_11h50.23.030,PRaM,2021.2.3,Win32,59.96282305,61b8f3437b89212fae0dfade
1,3.2265,space,2.1441,0,259,259,333,1,,,5bd0e34c4b4f9e0001122ad6,61ba1b56f805c10ab7044084,2021-12-15_11h50.23.030,PRaM,2021.2.3,Win32,59.96282305,61b8f3437b89212fae0dfade
4,2.7864,space,1.2567,0,260,260,367,1,,,5bd0e34c4b4f9e0001122ad6,61ba1b56f805c10ab7044084,2021-12-15_11h50.23.030,PRaM,2021.2.3,Win32,59.96282305,61b8f3437b89212fae0dfade
1,3.1583,space,1.7095,0,261,261,324,1,,,5bd0e34c4b4f9e0001122ad6,61ba1b56f805c10ab7044084,2021-12-15_11h50.23.030,PRaM,2021.2.3,Win32,59.96282305,61b8f3437b89212fae0dfade
1,1.8196,space,0.2558,0,262,262,54,1,,,5bd0e34c4b4f9e0001122ad6,61ba1b56f805c10ab7044084,2021-12-15_11h50.23.030,PRaM,2021.2.3,Win32,59.96282305,61b8f3437b89212fae0dfade
9,2.9085,space,1.414,0,263,263,279,1,,,5bd0e34c4b4f9e0001122ad6,61ba1b56f805c10ab7044084,2021-12-15_11h50.23.030,PRaM,2021.2.3,Win32,59.96282305,61b8f3437b89212fae0dfade
1,4.1053,space,2.3882,0,264,264,290,1,,,5bd0e34c4b4f9e0001122ad6,61ba1b56f805c10ab7044084,2021-12-15_11h50.23.030,PRaM,2021.2.3,Win32,59.96282305,61b8f3437b89212fae0dfade
2,3.193,space,1.5015,0,265,265,272,1,,,5bd0e34c4b4f9e0001122ad6,61ba1b56f805c10ab7044084,2021-12-15_11h50.23.030,PRaM,2021.2.3,Win32,59.96282305,61b8f3437b89212fae0dfade
1,2.6189,space,0.9505,0,266,266,158,1,,,5bd0e34c4b4f9e0001122ad6,61ba1b56f805c10ab7044084,2021-12-15_11h50.23.030,PRaM,2021.2.3,Win32,59.96282305,61b8f3437b89212fae0dfade
5,3.5527,space,2.1137,0,267,267,321,1,,,5bd0e34c4b4f9e0001122ad6,61ba1b56f805c10ab7044084,2021-12-15_11h50.23.030,PRaM,2021.2.3,Win32,59.96282305,61b8f3437b89212fae0dfade
7,101.7435,space,100.8688,0,268,268,74,1,,,5bd0e34c4b4f9e0001122ad6,61ba1b56f805c10ab7044084,2021-12-15_11h50.23.030,PRaM,2021.2.3,Win32,59.96282305,61b8f3437b89212fae0dfade
7,39.9089,space,39.3999,0,269,269,178,1,,,5bd0e34c4b4f9e0001122ad6,61ba1b56f805c10ab7044084,2021-12-15_11h50.23.030,PRaM,2021.2.3,Win32,59.96282305,61b8f3437b89212fae0dfade
1,3.0892,space,1.5783,0,270,270,354,1,,,5bd0e34c4b4f9e0001122ad6,61ba1b56f805c10ab7044084,2021-12-15_11h50.23.030,PRaM,2021.2.3,Win32,59.96282305,61b8f3437b89212fae0dfade
1,1.6522,space,0.1839,0,271,271,342,1,,,5bd0e34c4b4f9e0001122ad6,61ba1b56f805c10ab7044084,2021-12-15_11h50.23.030,PRaM,2021.2.3,Win32,59.96282305,61b8f3437b89212fae0dfade
8,3.0585,space,1.4935,0,272,272,118,1,,,5bd0e34c4b4f9e0001122ad6,61ba1b56f805c10ab7044084,2021-12-15_11h50.23.030,PRaM,2021.2.3,Win32,59.96282305,61b8f3437b89212fae0dfade
1,3.7909,space,2.1836,0,273,273,368,1,,,5bd0e34c4b4f9e0001122ad6,61ba1b56f805c10ab7044084,2021-12-15_11h50.23.030,PRaM,2021.2.3,Win32,59.96282305,61b8f3437b89212fae0dfade
1,3.858,space,2.6177,0,274,274,94,1,,,5bd0e34c4b4f9e0001122ad6,61ba1b56f805c10ab7044084,2021-12-15_11h50.23.030,PRaM,2021.2.3,Win32,59.96282305,61b8f3437b89212fae0dfade
1,1.4985,space,0.1645,0,275,275,234,1,,,5bd0e34c4b4f9e0001122ad6,61ba1b56f805c10ab7044084,2021-12-15_11h50.23.030,PRaM,2021.2.3,Win32,59.96282305,61b8f3437b89212fae0dfade
1,3.1911,space,1.4838,0,276,276,316,1,,,5bd0e34c4b4f9e0001122ad6,61ba1b56f805c10ab7044084,2021-12-15_11h50.23.030,PRaM,2021.2.3,Win32,59.96282305,61b8f3437b89212fae0dfade
1,1.7665,space,0.0181,0,277,277,13,1,,,5bd0e34c4b4f9e0001122ad6,61ba1b56f805c10ab7044084,2021-12-15_11h50.23.030,PRaM,2021.2.3,Win32,59.96282305,61b8f3437b89212fae0dfade
4,9.0085,space,7.3988,0,278,278,33,1,,,5bd0e34c4b4f9e0001122ad6,61ba1b56f805c10ab7044084,2021-12-15_11h50.23.030,PRaM,2021.2.3,Win32,59.96282305,61b8f3437b89212fae0dfade
6,4.6554,space,4.0739,0,279,279,14,1,,,5bd0e34c4b4f9e0001122ad6,61ba1b56f805c10ab7044084,2021-12-15_11h50.23.030,PRaM,2021.2.3,Win32,59.96282305,61b8f3437b89212fae0dfade
5,2.4187,space,0.8342,0,280,280,242,1,,,5bd0e34c4b4f9e0001122ad6,61ba1b56f805c10ab7044084,2021-12-15_11h50.23.030,PRaM,2021.2.3,Win32,59.96282305,61b8f3437b89212fae0dfade
2,3.0081,space,1.4013,0,281,281,273,1,,,5bd0e34c4b4f9e0001122ad6,61ba1b56f805c10ab7044084,2021-12-15_11h50.23.030,PRaM,2021.2.3,Win32,59.96282305,61b8f3437b89212fae0dfade
6,2.8823,space,1.1385,0,282,282,282,1,,,5bd0e34c4b4f9e0001122ad6,61ba1b56f805c10ab7044084,2021-12-15_11h50.23.030,PRaM,2021.2.3,Win32,59.96282305,61b8f3437b89212fae0dfade
2,2.9749,space,2.5879,0,283,283,96,1,,,5bd0e34c4b4f9e0001122ad6,61ba1b56f805c10ab7044084,2021-12-15_11h50.23.030,PRaM,2021.2.3,Win32,59.96282305,61b8f3437b89212fae0dfade
1,2.9193,space,1.5505,0,284,284,101,1,,,5bd0e34c4b4f9e0001122ad6,61ba1b56f805c10ab7044084,2021-12-15_11h50.23.030,PRaM,2021.2.3,Win32,59.96282305,61b8f3437b89212fae0dfade
1,2.4997,space,0.9673,0,285,285,293,1,,,5bd0e34c4b4f9e0001122ad6,61ba1b56f805c10ab7044084,2021-12-15_11h50.23.030,PRaM,2021.2.3,Win32,59.96282305,61b8f3437b89212fae0dfade
2,2.8164,space,1.2517,0,286,286,106,1,,,5bd0e34c4b4f9e0001122ad6,61ba1b56f805c10ab7044084,2021-12-15_11h50.23.030,PRaM,2021.2.3,Win32,59.96282305,61b8f3437b89212fae0dfade
3,3.4154,space,1.8993,0,287,287,318,1,,,5bd0e34c4b4f9e0001122ad6,61ba1b56f805c10ab7044084,2021-12-15_11h50.23.030,PRaM,2021.2.3,Win32,59.96282305,61b8f3437b89212fae0dfade
1,3.0834,space,1.4334,0,288,288,191,1,,,5bd0e34c4b4f9e0001122ad6,61ba1b56f805c10ab7044084,2021-12-15_11h50.23.030,PRaM,2021.2.3,Win32,59.96282305,61b8f3437b89212fae0dfade
5,4.3167,space,2.7036,0,289,289,327,1,,,5bd0e34c4b4f9e0001122ad6,61ba1b56f805c10ab7044084,2021-12-15_11h50.23.030,PRaM,2021.2.3,Win32,59.96282305,61b8f3437b89212fae0dfade
1,3.1035,space,1.5538,0,290,290,68,1,,,5bd0e34c4b4f9e0001122ad6,61ba1b56f805c10ab7044084,2021-12-15_11h50.23.030,PRaM,2021.2.3,Win32,59.96282305,61b8f3437b89212fae0dfade
6,3.5861,space,1.9776,0,291,291,80,1,,,5bd0e34c4b4f9e0001122ad6,61ba1b56f805c10ab7044084,2021-12-15_11h50.23.030,PRaM,2021.2.3,Win32,59.96282305,61b8f3437b89212fae0dfade
3,3.3877,space,1.8339,0,292,292,81,1,,,5bd0e34c4b4f9e0001122ad6,61ba1b56f805c10ab7044084,2021-12-15_11h50.23.030,PRaM,2021.2.3,Win32,59.96282305,61b8f3437b89212fae0dfade
1,2.775,space,1.2337,0,293,293,57,1,,,5bd0e34c4b4f9e0001122ad6,61ba1b56f805c10ab7044084,2021-12-15_11h50.23.030,PRaM,2021.2.3,Win32,59.96282305,61b8f3437b89212fae0dfade
1,1.9668,space,4.1263,0,294,294,330,1,,,5bd0e34c4b4f9e0001122ad6,61ba1b56f805c10ab7044084,2021-12-15_11h50.23.030,PRaM,2021.2.3,Win32,59.96282305,61b8f3437b89212fae0dfade
1,1.9294,space,0.4402,0,295,295,248,1,,,5bd0e34c4b4f9e0001122ad6,61ba1b56f805c10ab7044084,2021-12-15_11h50.23.030,PRaM,2021.2.3,Win32,59.96282305,61b8f3437b89212fae0dfade
4,3.0749,space,1.5957,0,296,296,56,1,,,5bd0e34c4b4f9e0001122ad6,61ba1b56f805c10ab7044084,2021-12-15_11h50.23.030,PRaM,2021.2.3,Win32,59.96282305,61b8f3437b89212fae0dfade
8,3.1434,space,1.6374,0,297,297,136,1,,,5bd0e34c4b4f9e0001122ad6,61ba1b56f805c10ab7044084,2021-12-15_11h50.23.030,PRaM,2021.2.3,Win32,59.96282305,61b8f3437b89212fae0dfade
1,3.1249,space,1.6029,0,298,298,27,1,,,5bd0e34c4b4f9e0001122ad6,61ba1b56f805c10ab7044084,2021-12-15_11h50.23.030,PRaM,2021.2.3,Win32,59.96282305,61b8f3437b89212fae0dfade
2,4.0764,space,2.594,0,299,299,32,1,,,5bd0e34c4b4f9e0001122ad6,61ba1b56f805c10ab7044084,2021-12-15_11h50.23.030,PRaM,2021.2.3,Win32,59.96282305,61b8f3437b89212fae0dfade
1,2.4524,space,0.867,0,300,300,287,1,,,5bd0e34c4b4f9e0001122ad6,61ba1b56f805c10ab7044084,2021-12-15_11h50.23.030,PRaM,2021.2.3,Win32,59.96282305,61b8f3437b89212fae0dfade
4,3.3829,space,1.717,0,301,301,206,1,,,5bd0e34c4b4f9e0001122ad6,61ba1b56f805c10ab7044084,2021-12-15_11h50.23.030,PRaM,2021.2.3,Win32,59.96282305,61b8f3437b89212fae0dfade
9,2.7058,space,1.0843,0,302,302,115,1,,,5bd0e34c4b4f9e0001122ad6,61ba1b56f805c10ab7044084,2021-12-15_11h50.23.030,PRaM,2021.2.3,Win32,59.96282305,61b8f3437b89212fae0dfade
8,3.4593,space,1.917,0,303,303,61,1,,,5bd0e34c4b4f9e0001122ad6,61ba1b56f805c10ab7044084,2021-12-15_11h50.23.030,PRaM,2021.2.3,Win32,59.96282305,61b8f3437b89212fae0dfade
2,4.2058,space,2.5503,0,304,304,36,1,,,5bd0e34c4b4f9e0001122ad6,61ba1b56f805c10ab7044084,2021-12-15_11h50.23.030,PRaM,2021.2.3,Win32,59.96282305,61b8f3437b89212fae0dfade
6,2.7725,space,2.0666,0,305,305,141,1,,,5bd0e34c4b4f9e0001122ad6,61ba1b56f805c10ab7044084,2021-12-15_11h50.23.030,PRaM,2021.2.3,Win32,59.96282305,61b8f3437b89212fae0dfade
1,3.1892,space,1.461,0,306,306,18,1,,,5bd0e34c4b4f9e0001122ad6,61ba1b56f805c10ab7044084,2021-12-15_11h50.23.030,PRaM,2021.2.3,Win32,59.96282305,61b8f3437b89212fae0dfade
1,3.1374,space,1.4341,0,307,307,338,1,,,5bd0e34c4b4f9e0001122ad6,61ba1b56f805c10ab7044084,2021-12-15_11h50.23.030,PRaM,2021.2.3,Win32,59.96282305,61b8f3437b89212fae0dfade
,,space,1.0002,0,308,308,256,1,,,5bd0e34c4b4f9e0001122ad6,61ba1b56f805c10ab7044084,2021-12-15_11h50.23.030,PRaM,2021.2.3,Win32,59.96282305,61b8f3437b89212fae0dfade
2,4.3723,space,3.0835,0,309,309,253,1,,,5bd0e34c4b4f9e0001122ad6,61ba1b56f805c10ab7044084,2021-12-15_11h50.23.030,PRaM,2021.2.3,Win32,59.96282305,61b8f3437b89212fae0dfade
8,3.8558,space,3.1836,0,310,310,119,1,,,5bd0e34c4b4f9e0001122ad6,61ba1b56f805c10ab7044084,2021-12-15_11h50.23.030,PRaM,2021.2.3,Win32,59.96282305,61b8f3437b89212fae0dfade
1,3.2224,space,1.6015,0,311,311,215,1,,,5bd0e34c4b4f9e0001122ad6,61ba1b56f805c10ab7044084,2021-12-15_11h50.23.030,PRaM,2021.2.3,Win32,59.96282305,61b8f3437b89212fae0dfade
1,1.7688,space,0.0568,0,312,312,250,1,,,5bd0e34c4b4f9e0001122ad6,61ba1b56f805c10ab7044084,2021-12-15_11h50.23.030,PRaM,2021.2.3,Win32,59.96282305,61b8f3437b89212fae0dfade
8,3.458,space,1.9502,0,313,313,112,1,,,5bd0e34c4b4f9e0001122ad6,61ba1b56f805c10ab7044084,2021-12-15_11h50.23.030,PRaM,2021.2.3,Win32,59.96282305,61b8f3437b89212fae0dfade
1,3.5554,space,1.9865,0,314,314,176,1,,,5bd0e34c4b4f9e0001122ad6,61ba1b56f805c10ab7044084,2021-12-15_11h50.23.030,PRaM,2021.2.3,Win32,59.96282305,61b8f3437b89212fae0dfade
,,space,0.6838,0,315,315,41,1,,,5bd0e34c4b4f9e0001122ad6,61ba1b56f805c10ab7044084,2021-12-15_11h50.23.030,PRaM,2021.2.3,Win32,59.96282305,61b8f3437b89212fae0dfade
6,3.7083,space,2.0852,0,316,316,75,1,,,5bd0e34c4b4f9e0001122ad6,61ba1b56f805c10ab7044084,2021-12-15_11h50.23.030,PRaM,2021.2.3,Win32,59.96282305,61b8f3437b89212fae0dfade
7,1.986,space,0.3789,0,317,317,366,1,,,5bd0e34c4b4f9e0001122ad6,61ba1b56f805c10ab7044084,2021-12-15_11h50.23.030,PRaM,2021.2.3,Win32,59.96282305,61b8f3437b89212fae0dfade
6,3.37,space,1.7672,0,318,318,361,1,,,5bd0e34c4b4f9e0001122ad6,61ba1b56f805c10ab7044084,2021-12-15_11h50.23.030,PRaM,2021.2.3,Win32,59.96282305,61b8f3437b89212fae0dfade
1,5.0718,space,3.8502,0,319,319,268,1,,,5bd0e34c4b4f9e0001122ad6,61ba1b56f805c10ab7044084,2021-12-15_11h50.23.030,PRaM,2021.2.3,Win32,59.96282305,61b8f3437b89212fae0dfade
2,2.7862,space,1.1403,0,320,320,111,1,,,5bd0e34c4b4f9e0001122ad6,61ba1b56f805c10ab7044084,2021-12-15_11h50.23.030,PRaM,2021.2.3,Win32,59.96282305,61b8f3437b89212fae0dfade
1,2.4863,space,2.1182,0,321,321,247,1,,,5bd0e34c4b4f9e0001122ad6,61ba1b56f805c10ab7044084,2021-12-15_11h50.23.030,PRaM,2021.2.3,Win32,59.96282305,61b8f3437b89212fae0dfade
3,3.6213,space,2.5893,0,322,322,270,1,,,5bd0e34c4b4f9e0001122ad6,61ba1b56f805c10ab7044084,2021-12-15_11h50.23.030,PRaM,2021.2.3,Win32,59.96282305,61b8f3437b89212fae0dfade
8,4.5411,space,2.8564,0,323,323,139,1,,,5bd0e34c4b4f9e0001122ad6,61ba1b56f805c10ab7044084,2021-12-15_11h50.23.030,PRaM,2021.2.3,Win32,59.96282305,61b8f3437b89212fae0dfade
8,3.0526,space,1.3404,0,324,324,226,1,,,5bd0e34c4b4f9e0001122ad6,61ba1b56f805c10ab7044084,2021-12-15_11h50.23.030,PRaM,2021.2.3,Win32,59.96282305,61b8f3437b89212fae0dfade
6,3.1361,space,1.4515,0,325,325,271,1,,,5bd0e34c4b4f9e0001122ad6,61ba1b56f805c10ab7044084,2021-12-15_11h50.23.030,PRaM,2021.2.3,Win32,59.96282305,61b8f3437b89212fae0dfade
2,4.4539,space,2.8342,0,326,326,50,1,,,5bd0e34c4b4f9e0001122ad6,61ba1b56f805c10ab7044084,2021-12-15_11h50.23.030,PRaM,2021.2.3,Win32,59.96282305,61b8f3437b89212fae0dfade
,,space,1.9516,0,327,327,135,1,,,5bd0e34c4b4f9e0001122ad6,61ba1b56f805c10ab7044084,2021-12-15_11h50.23.030,PRaM,2021.2.3,Win32,59.96282305,61b8f3437b89212fae0dfade
9,3.8849,space,2.2167,0,328,328,304,1,,,5bd0e34c4b4f9e0001122ad6,61ba1b56f805c10ab7044084,2021-12-15_11h50.23.030,PRaM,2021.2.3,Win32,59.96282305,61b8f3437b89212fae0dfade
1,62.7096,space,61.1342,0,329,329,260,1,,,5bd0e34c4b4f9e0001122ad6,61ba1b56f805c10ab7044084,2021-12-15_11h50.23.030,PRaM,2021.2.3,Win32,59.96282305,61b8f3437b89212fae0dfade
1,2.4169,space,1.867,0,330,330,162,1,,,5bd0e34c4b4f9e0001122ad6,61ba1b56f805c10ab7044084,2021-12-15_11h50.23.030,PRaM,2021.2.3,Win32,59.96282305,61b8f3437b89212fae0dfade
2,20.1562,space,19.5434,0,331,331,195,1,,,5bd0e34c4b4f9e0001122ad6,61ba1b56f805c10ab7044084,2021-12-15_11h50.23.030,PRaM,2021.2.3,Win32,59.96282305,61b8f3437b89212fae0dfade
6,3.2913,space,2.2847,0,332,332,86,1,,,5bd0e34c4b4f9e0001122ad6,61ba1b56f805c10ab7044084,2021-12-15_11h50.23.030,PRaM,2021.2.3,Win32,59.96282305,61b8f3437b89212fae0dfade
,,space,33.4899,0,333,333,203,1,,,5bd0e34c4b4f9e0001122ad6,61ba1b56f805c10ab7044084,2021-12-15_11h50.23.030,PRaM,2021.2.3,Win32,59.96282305,61b8f3437b89212fae0dfade
7,2.4957,space,1.0058,0,334,334,355,1,,,5bd0e34c4b4f9e0001122ad6,61ba1b56f805c10ab7044084,2021-12-15_11h50.23.030,PRaM,2021.2.3,Win32,59.96282305,61b8f3437b89212fae0dfade
8,2.7192,space,1.0337,0,335,335,328,1,,,5bd0e34c4b4f9e0001122ad6,61ba1b56f805c10ab7044084,2021-12-15_11h50.23.030,PRaM,2021.2.3,Win32,59.96282305,61b8f3437b89212fae0dfade
8,3.6003,space,2.0008,0,336,336,259,1,,,5bd0e34c4b4f9e0001122ad6,61ba1b56f805c10ab7044084,2021-12-15_11h50.23.030,PRaM,2021.2.3,Win32,59.96282305,61b8f3437b89212fae0dfade
1,2.7162,space,1.0455,0,337,337,189,1,,,5bd0e34c4b4f9e0001122ad6,61ba1b56f805c10ab7044084,2021-12-15_11h50.23.030,PRaM,2021.2.3,Win32,59.96282305,61b8f3437b89212fae0dfade
2,2.4026,space,0.745,0,338,338,170,1,,,5bd0e34c4b4f9e0001122ad6,61ba1b56f805c10ab7044084,2021-12-15_11h50.23.030,PRaM,2021.2.3,Win32,59.96282305,61b8f3437b89212fae0dfade
9,2.5743,space,0.9454,0,339,339,20,1,,,5bd0e34c4b4f9e0001122ad6,61ba1b56f805c10ab7044084,2021-12-15_11h50.23.030,PRaM,2021.2.3,Win32,59.96282305,61b8f3437b89212fae0dfade
9,3.136,space,1.4474,0,340,340,99,1,,,5bd0e34c4b4f9e0001122ad6,61ba1b56f805c10ab7044084,2021-12-15_11h50.23.030,PRaM,2021.2.3,Win32,59.96282305,61b8f3437b89212fae0dfade
,,space,1.0835,0,341,341,243,1,,,5bd0e34c4b4f9e0001122ad6,61ba1b56f805c10ab7044084,2021-12-15_11h50.23.030,PRaM,2021.2.3,Win32,59.96282305,61b8f3437b89212fae0dfade
1,3.0371,space,1.2694,0,342,342,185,1,,,5bd0e34c4b4f9e0001122ad6,61ba1b56f805c10ab7044084,2021-12-15_11h50.23.030,PRaM,2021.2.3,Win32,59.96282305,61b8f3437b89212fae0dfade
6,3.0359,space,1.5113,0,343,343,183,1,,,5bd0e34c4b4f9e0001122ad6,61ba1b56f805c10ab7044084,2021-12-15_11h50.23.030,PRaM,2021.2.3,Win32,59.96282305,61b8f3437b89212fae0dfade
7,2.9191,space,1.4848,0,344,344,357,1,,,5bd0e34c4b4f9e0001122ad6,61ba1b56f805c10ab7044084,2021-12-15_11h50.23.030,PRaM,2021.2.3,Win32,59.96282305,61b8f3437b89212fae0dfade
6,3.7722,space,2.0338,0,345,345,66,1,,,5bd0e34c4b4f9e0001122ad6,61ba1b56f805c10ab7044084,2021-12-15_11h50.23.030,PRaM,2021.2.3,Win32,59.96282305,61b8f3437b89212fae0dfade
9,2.9162,space,1.1299,0,346,346,201,1,,,5bd0e34c4b4f9e0001122ad6,61ba1b56f805c10ab7044084,2021-12-15_11h50.23.030,PRaM,2021.2.3,Win32,59.96282305,61b8f3437b89212fae0dfade
2,3.0529,space,1.3515,0,347,347,34,1,,,5bd0e34c4b4f9e0001122ad6,61ba1b56f805c10ab7044084,2021-12-15_11h50.23.030,PRaM,2021.2.3,Win32,59.96282305,61b8f3437b89212fae0dfade
1,3.2999,space,1.5656,0,348,348,235,1,,,5bd0e34c4b4f9e0001122ad6,61ba1b56f805c10ab7044084,2021-12-15_11h50.23.030,PRaM,2021.2.3,Win32,59.96282305,61b8f3437b89212fae0dfade
1,3.0747,space,1.5664,0,349,349,153,1,,,5bd0e34c4b4f9e0001122ad6,61ba1b56f805c10ab7044084,2021-12-15_11h50.23.030,PRaM,2021.2.3,Win32,59.96282305,61b8f3437b89212fae0dfade
2,2.6671,space,0.9661,0,350,350,300,1,,,5bd0e34c4b4f9e0001122ad6,61ba1b56f805c10ab7044084,2021-12-15_11h50.23.030,PRaM,2021.2.3,Win32,59.96282305,61b8f3437b89212fae0dfade
6,3.7064,space,2.0444,0,351,351,40,1,,,5bd0e34c4b4f9e0001122ad6,61ba1b56f805c10ab7044084,2021-12-15_11h50.23.030,PRaM,2021.2.3,Win32,59.96282305,61b8f3437b89212fae0dfade
7,13.3087,space,11.7315,0,352,352,197,1,,,5bd0e34c4b4f9e0001122ad6,61ba1b56f805c10ab7044084,2021-12-15_11h50.23.030,PRaM,2021.2.3,Win32,59.96282305,61b8f3437b89212fae0dfade
8,1.6525,space,0.0216,0,353,353,363,1,,,5bd0e34c4b4f9e0001122ad6,61ba1b56f805c10ab7044084,2021-12-15_11h50.23.030,PRaM,2021.2.3,Win32,59.96282305,61b8f3437b89212fae0dfade
1,13.6083,space,12.0001,0,354,354,266,1,,,5bd0e34c4b4f9e0001122ad6,61ba1b56f805c10ab7044084,2021-12-15_11h50.23.030,PRaM,2021.2.3,Win32,59.96282305,61b8f3437b89212fae0dfade
1,2.1196,space,0.4895,0,355,355,227,1,,,5bd0e34c4b4f9e0001122ad6,61ba1b56f805c10ab7044084,2021-12-15_11h50.23.030,PRaM,2021.2.3,Win32,59.96282305,61b8f3437b89212fae0dfade
9,2.9029,space,1.2662,0,356,356,123,1,,,5bd0e34c4b4f9e0001122ad6,61ba1b56f805c10ab7044084,2021-12-15_11h50.23.030,PRaM,2021.2.3,Win32,59.96282305,61b8f3437b89212fae0dfade
6,2.5672,space,0.8272,0,357,357,26,1,,,5bd0e34c4b4f9e0001122ad6,61ba1b56f805c10ab7044084,2021-12-15_11h50.23.030,PRaM,2021.2.3,Win32,59.96282305,61b8f3437b89212fae0dfade
1,2.586,space,0.8676,0,358,358,122,1,,,5bd0e34c4b4f9e0001122ad6,61ba1b56f805c10ab7044084,2021-12-15_11h50.23.030,PRaM,2021.2.3,Win32,59.96282305,61b8f3437b89212fae0dfade
2,3.1032,space,1.443,0,359,359,315,1,,,5bd0e34c4b4f9e0001122ad6,61ba1b56f805c10ab7044084,2021-12-15_11h50.23.030,PRaM,2021.2.3,Win32,59.96282305,61b8f3437b89212fae0dfade
8,2.5042,space,0.8025,0,360,360,142,1,,,5bd0e34c4b4f9e0001122ad6,61ba1b56f805c10ab7044084,2021-12-15_11h50.23.030,PRaM,2021.2.3,Win32,59.96282305,61b8f3437b89212fae0dfade
1,2.5689,space,0.9035,0,361,361,24,1,,,5bd0e34c4b4f9e0001122ad6,61ba1b56f805c10ab7044084,2021-12-15_11h50.23.030,PRaM,2021.2.3,Win32,59.96282305,61b8f3437b89212fae0dfade
4,2.7523,space,1.4874,0,362,362,257,1,,,5bd0e34c4b4f9e0001122ad6,61ba1b56f805c10ab7044084,2021-12-15_11h50.23.030,PRaM,2021.2.3,Win32,59.96282305,61b8f3437b89212fae0dfade
8,2.6357,space,0.8895,0,363,363,370,1,,,5bd0e34c4b4f9e0001122ad6,61ba1b56f805c10ab7044084,2021-12-15_11h50.23.030,PRaM,2021.2.3,Win32,59.96282305,61b8f3437b89212fae0dfade
9,2.7751,space,1.0852,0,364,364,346,1,,,5bd0e34c4b4f9e0001122ad6,61ba1b56f805c10ab7044084,2021-12-15_11h50.23.030,PRaM,2021.2.3,Win32,59.96282305,61b8f3437b89212fae0dfade
9,2.3691,space,0.6502,0,365,365,175,1,,,5bd0e34c4b4f9e0001122ad6,61ba1b56f805c10ab7044084,2021-12-15_11h50.23.030,PRaM,2021.2.3,Win32,59.96282305,61b8f3437b89212fae0dfade
7,2.6001,space,0.9838,0,366,366,4,1,,,5bd0e34c4b4f9e0001122ad6,61ba1b56f805c10ab7044084,2021-12-15_11h50.23.030,PRaM,2021.2.3,Win32,59.96282305,61b8f3437b89212fae0dfade
8,1.9862,space,0.2944,0,367,367,182,1,,,5bd0e34c4b4f9e0001122ad6,61ba1b56f805c10ab7044084,2021-12-15_11h50.23.030,PRaM,2021.2.3,Win32,59.96282305,61b8f3437b89212fae0dfade
9,2.3868,space,1.3836,0,368,368,110,1,,,5bd0e34c4b4f9e0001122ad6,61ba1b56f805c10ab7044084,2021-12-15_11h50.23.030,PRaM,2021.2.3,Win32,59.96282305,61b8f3437b89212fae0dfade
2,2.85,space,1.1322,0,369,369,89,1,,,5bd0e34c4b4f9e0001122ad6,61ba1b56f805c10ab7044084,2021-12-15_11h50.23.030,PRaM,2021.2.3,Win32,59.96282305,61b8f3437b89212fae0dfade
3,4.3226,space,2.6812,0,370,370,169,1,,,5bd0e34c4b4f9e0001122ad6,61ba1b56f805c10ab7044084,2021-12-15_11h50.23.030,PRaM,2021.2.3,Win32,59.96282305,61b8f3437b89212fae0dfade
1,20.1419,space,18.5522,0,371,371,188,1,,,5bd0e34c4b4f9e0001122ad6,61ba1b56f805c10ab7044084,2021-12-15_11h50.23.030,PRaM,2021.2.3,Win32,59.96282305,61b8f3437b89212fae0dfade
7,2.8539,space,1.1489,0,372,372,362,1,,,5bd0e34c4b4f9e0001122ad6,61ba1b56f805c10ab7044084,2021-12-15_11h50.23.030,PRaM,2021.2.3,Win32,59.96282305,61b8f3437b89212fae0dfade
1,2.6885,space,1.1596,0,373,373,95,1,,,5bd0e34c4b4f9e0001122ad6,61ba1b56f805c10ab7044084,2021-12-15_11h50.23.030,PRaM,2021.2.3,Win32,59.96282305,61b8f3437b89212fae0dfade
8,3.4747,space,1.7545,0,374,374,208,1,,,5bd0e34c4b4f9e0001122ad6,61ba1b56f805c10ab7044084,2021-12-15_11h50.23.030,PRaM,2021.2.3,Win32,59.96282305,61b8f3437b89212fae0dfade
4,2.9357,space,1.1576,0,375,375,77,1,,,5bd0e34c4b4f9e0001122ad6,61ba1b56f805c10ab7044084,2021-12-15_11h50.23.030,PRaM,2021.2.3,Win32,59.96282305,61b8f3437b89212fae0dfade
6,2.7751,space,1.0525,0,376,376,100,1,,,5bd0e34c4b4f9e0001122ad6,61ba1b56f805c10ab7044084,2021-12-15_11h50.23.030,PRaM,2021.2.3,Win32,59.96282305,61b8f3437b89212fae0dfade
2,4.0101,space,2.3077,0,377,377,278,1,,,5bd0e34c4b4f9e0001122ad6,61ba1b56f805c10ab7044084,2021-12-15_11h50.23.030,PRaM,2021.2.3,Win32,59.96282305,61b8f3437b89212fae0dfade
