Rating.response,Rating.rt,EndTrial.keys,EndTrial.rt,trials.thisRepN,trials.thisTrialN,trials.thisN,trials.thisIndex,trials.ran,Pos1,Pos2,participant,session,date,expName,psychopyVersion,OS,frameRate,study_id
3,13.7194,space,13.7861,0,0,0,25,1,,,5bf2f728bd9f150001f6cc42,64391633b72c776bfc549256,2023-04-14_10h02.39.662,PRaM,2021.2.3,Linux x86_64,59.99160118,61b8f3437b89212fae0dfade
7,5.3378,space,4.3673,0,1,1,244,1,,,5bf2f728bd9f150001f6cc42,64391633b72c776bfc549256,2023-04-14_10h02.39.662,PRaM,2021.2.3,Linux x86_64,59.99160118,61b8f3437b89212fae0dfade
3,4.7075,space,3.0836,0,2,2,361,1,,,5bf2f728bd9f150001f6cc42,64391633b72c776bfc549256,2023-04-14_10h02.39.662,PRaM,2021.2.3,Linux x86_64,59.99160118,61b8f3437b89212fae0dfade
2,3.6241,space,2.0347,0,3,3,184,1,,,5bf2f728bd9f150001f6cc42,64391633b72c776bfc549256,2023-04-14_10h02.39.662,PRaM,2021.2.3,Linux x86_64,59.99160118,61b8f3437b89212fae0dfade
6,4.0569,space,2.4668,0,4,4,42,1,,,5bf2f728bd9f150001f6cc42,64391633b72c776bfc549256,2023-04-14_10h02.39.662,PRaM,2021.2.3,Linux x86_64,59.99160118,61b8f3437b89212fae0dfade
4,4.873,space,3.2681,0,5,5,160,1,,,5bf2f728bd9f150001f6cc42,64391633b72c776bfc549256,2023-04-14_10h02.39.662,PRaM,2021.2.3,Linux x86_64,59.99160118,61b8f3437b89212fae0dfade
6,3.4609,space,2.0022,0,6,6,147,1,,,5bf2f728bd9f150001f6cc42,64391633b72c776bfc549256,2023-04-14_10h02.39.662,PRaM,2021.2.3,Linux x86_64,59.99160118,61b8f3437b89212fae0dfade
6,3.9095,space,2.3755,0,7,7,298,1,,,5bf2f728bd9f150001f6cc42,64391633b72c776bfc549256,2023-04-14_10h02.39.662,PRaM,2021.2.3,Linux x86_64,59.99160118,61b8f3437b89212fae0dfade
1,3.4563,space,2.0501,0,8,8,360,1,,,5bf2f728bd9f150001f6cc42,64391633b72c776bfc549256,2023-04-14_10h02.39.662,PRaM,2021.2.3,Linux x86_64,59.99160118,61b8f3437b89212fae0dfade
3,4.073,space,2.7028,0,9,9,336,1,,,5bf2f728bd9f150001f6cc42,64391633b72c776bfc549256,2023-04-14_10h02.39.662,PRaM,2021.2.3,Linux x86_64,59.99160118,61b8f3437b89212fae0dfade
3,5.0228,space,3.701,0,10,10,267,1,,,5bf2f728bd9f150001f6cc42,64391633b72c776bfc549256,2023-04-14_10h02.39.662,PRaM,2021.2.3,Linux x86_64,59.99160118,61b8f3437b89212fae0dfade
3,2.6305,space,1.0411,0,11,11,110,1,,,5bf2f728bd9f150001f6cc42,64391633b72c776bfc549256,2023-04-14_10h02.39.662,PRaM,2021.2.3,Linux x86_64,59.99160118,61b8f3437b89212fae0dfade
3,4.2745,space,2.6695,0,12,12,342,1,,,5bf2f728bd9f150001f6cc42,64391633b72c776bfc549256,2023-04-14_10h02.39.662,PRaM,2021.2.3,Linux x86_64,59.99160118,61b8f3437b89212fae0dfade
1,3.0798,space,1.6933,0,13,13,289,1,,,5bf2f728bd9f150001f6cc42,64391633b72c776bfc549256,2023-04-14_10h02.39.662,PRaM,2021.2.3,Linux x86_64,59.99160118,61b8f3437b89212fae0dfade
8,3.2761,space,2.4326,0,14,14,166,1,,,5bf2f728bd9f150001f6cc42,64391633b72c776bfc549256,2023-04-14_10h02.39.662,PRaM,2021.2.3,Linux x86_64,59.99160118,61b8f3437b89212fae0dfade
2,2.7297,space,1.2536,0,15,15,70,1,,,5bf2f728bd9f150001f6cc42,64391633b72c776bfc549256,2023-04-14_10h02.39.662,PRaM,2021.2.3,Linux x86_64,59.99160118,61b8f3437b89212fae0dfade
1,2.6411,space,1.214,0,16,16,34,1,,,5bf2f728bd9f150001f6cc42,64391633b72c776bfc549256,2023-04-14_10h02.39.662,PRaM,2021.2.3,Linux x86_64,59.99160118,61b8f3437b89212fae0dfade
2,2.6299,space,1.0531,0,17,17,148,1,,,5bf2f728bd9f150001f6cc42,64391633b72c776bfc549256,2023-04-14_10h02.39.662,PRaM,2021.2.3,Linux x86_64,59.99160118,61b8f3437b89212fae0dfade
3,3.0692,space,1.4523,0,18,18,14,1,,,5bf2f728bd9f150001f6cc42,64391633b72c776bfc549256,2023-04-14_10h02.39.662,PRaM,2021.2.3,Linux x86_64,59.99160118,61b8f3437b89212fae0dfade
3,5.3319,space,3.7611,0,19,19,321,1,,,5bf2f728bd9f150001f6cc42,64391633b72c776bfc549256,2023-04-14_10h02.39.662,PRaM,2021.2.3,Linux x86_64,59.99160118,61b8f3437b89212fae0dfade
3,3.1091,space,1.5743,0,20,20,367,1,,,5bf2f728bd9f150001f6cc42,64391633b72c776bfc549256,2023-04-14_10h02.39.662,PRaM,2021.2.3,Linux x86_64,59.99160118,61b8f3437b89212fae0dfade
4,2.7971,space,0.9195,0,21,21,169,1,,,5bf2f728bd9f150001f6cc42,64391633b72c776bfc549256,2023-04-14_10h02.39.662,PRaM,2021.2.3,Linux x86_64,59.99160118,61b8f3437b89212fae0dfade
4,3.1237,space,1.4703,0,22,22,162,1,,,5bf2f728bd9f150001f6cc42,64391633b72c776bfc549256,2023-04-14_10h02.39.662,PRaM,2021.2.3,Linux x86_64,59.99160118,61b8f3437b89212fae0dfade
3,2.5295,space,0.923,0,23,23,46,1,,,5bf2f728bd9f150001f6cc42,64391633b72c776bfc549256,2023-04-14_10h02.39.662,PRaM,2021.2.3,Linux x86_64,59.99160118,61b8f3437b89212fae0dfade
7,3.0967,space,1.5671,0,24,24,249,1,,,5bf2f728bd9f150001f6cc42,64391633b72c776bfc549256,2023-04-14_10h02.39.662,PRaM,2021.2.3,Linux x86_64,59.99160118,61b8f3437b89212fae0dfade
1,2.9247,space,1.3979,0,25,25,71,1,,,5bf2f728bd9f150001f6cc42,64391633b72c776bfc549256,2023-04-14_10h02.39.662,PRaM,2021.2.3,Linux x86_64,59.99160118,61b8f3437b89212fae0dfade
3,3.0821,space,1.482,0,26,26,170,1,,,5bf2f728bd9f150001f6cc42,64391633b72c776bfc549256,2023-04-14_10h02.39.662,PRaM,2021.2.3,Linux x86_64,59.99160118,61b8f3437b89212fae0dfade
2,3.0787,space,1.5201,0,27,27,59,1,,,5bf2f728bd9f150001f6cc42,64391633b72c776bfc549256,2023-04-14_10h02.39.662,PRaM,2021.2.3,Linux x86_64,59.99160118,61b8f3437b89212fae0dfade
4,3.0969,space,1.5185,0,28,28,374,1,,,5bf2f728bd9f150001f6cc42,64391633b72c776bfc549256,2023-04-14_10h02.39.662,PRaM,2021.2.3,Linux x86_64,59.99160118,61b8f3437b89212fae0dfade
3,3.8058,space,2.3595,0,29,29,310,1,,,5bf2f728bd9f150001f6cc42,64391633b72c776bfc549256,2023-04-14_10h02.39.662,PRaM,2021.2.3,Linux x86_64,59.99160118,61b8f3437b89212fae0dfade
4,2.796,space,1.1463,0,30,30,237,1,,,5bf2f728bd9f150001f6cc42,64391633b72c776bfc549256,2023-04-14_10h02.39.662,PRaM,2021.2.3,Linux x86_64,59.99160118,61b8f3437b89212fae0dfade
6,2.7915,space,1.1528,0,31,31,61,1,,,5bf2f728bd9f150001f6cc42,64391633b72c776bfc549256,2023-04-14_10h02.39.662,PRaM,2021.2.3,Linux x86_64,59.99160118,61b8f3437b89212fae0dfade
3,2.9452,space,1.2845,0,32,32,234,1,,,5bf2f728bd9f150001f6cc42,64391633b72c776bfc549256,2023-04-14_10h02.39.662,PRaM,2021.2.3,Linux x86_64,59.99160118,61b8f3437b89212fae0dfade
4,2.8406,space,1.2024,0,33,33,4,1,,,5bf2f728bd9f150001f6cc42,64391633b72c776bfc549256,2023-04-14_10h02.39.662,PRaM,2021.2.3,Linux x86_64,59.99160118,61b8f3437b89212fae0dfade
3,2.5479,space,1.4164,0,34,34,175,1,,,5bf2f728bd9f150001f6cc42,64391633b72c776bfc549256,2023-04-14_10h02.39.662,PRaM,2021.2.3,Linux x86_64,59.99160118,61b8f3437b89212fae0dfade
5,4.4472,space,2.8521,0,35,35,297,1,,,5bf2f728bd9f150001f6cc42,64391633b72c776bfc549256,2023-04-14_10h02.39.662,PRaM,2021.2.3,Linux x86_64,59.99160118,61b8f3437b89212fae0dfade
5,3.6244,space,1.9295,0,36,36,150,1,,,5bf2f728bd9f150001f6cc42,64391633b72c776bfc549256,2023-04-14_10h02.39.662,PRaM,2021.2.3,Linux x86_64,59.99160118,61b8f3437b89212fae0dfade
4,3.1911,space,1.5691,0,37,37,90,1,,,5bf2f728bd9f150001f6cc42,64391633b72c776bfc549256,2023-04-14_10h02.39.662,PRaM,2021.2.3,Linux x86_64,59.99160118,61b8f3437b89212fae0dfade
6,2.6465,space,1.0336,0,38,38,114,1,,,5bf2f728bd9f150001f6cc42,64391633b72c776bfc549256,2023-04-14_10h02.39.662,PRaM,2021.2.3,Linux x86_64,59.99160118,61b8f3437b89212fae0dfade
5,3.0302,space,1.3836,0,39,39,375,1,,,5bf2f728bd9f150001f6cc42,64391633b72c776bfc549256,2023-04-14_10h02.39.662,PRaM,2021.2.3,Linux x86_64,59.99160118,61b8f3437b89212fae0dfade
1,5.2559,space,4.05,0,40,40,107,1,,,5bf2f728bd9f150001f6cc42,64391633b72c776bfc549256,2023-04-14_10h02.39.662,PRaM,2021.2.3,Linux x86_64,59.99160118,61b8f3437b89212fae0dfade
2,12.8607,space,11.3674,0,41,41,262,1,,,5bf2f728bd9f150001f6cc42,64391633b72c776bfc549256,2023-04-14_10h02.39.662,PRaM,2021.2.3,Linux x86_64,59.99160118,61b8f3437b89212fae0dfade
3,4.2282,space,2.6189,0,42,42,232,1,,,5bf2f728bd9f150001f6cc42,64391633b72c776bfc549256,2023-04-14_10h02.39.662,PRaM,2021.2.3,Linux x86_64,59.99160118,61b8f3437b89212fae0dfade
1,2.6623,space,1.0845,0,43,43,128,1,,,5bf2f728bd9f150001f6cc42,64391633b72c776bfc549256,2023-04-14_10h02.39.662,PRaM,2021.2.3,Linux x86_64,59.99160118,61b8f3437b89212fae0dfade
5,4.5535,space,3.0274,0,44,44,355,1,,,5bf2f728bd9f150001f6cc42,64391633b72c776bfc549256,2023-04-14_10h02.39.662,PRaM,2021.2.3,Linux x86_64,59.99160118,61b8f3437b89212fae0dfade
7,2.9904,space,1.4091,0,45,45,17,1,,,5bf2f728bd9f150001f6cc42,64391633b72c776bfc549256,2023-04-14_10h02.39.662,PRaM,2021.2.3,Linux x86_64,59.99160118,61b8f3437b89212fae0dfade
6,7.8184,space,6.3019,0,46,46,209,1,,,5bf2f728bd9f150001f6cc42,64391633b72c776bfc549256,2023-04-14_10h02.39.662,PRaM,2021.2.3,Linux x86_64,59.99160118,61b8f3437b89212fae0dfade
3,10.2414,space,8.5933,0,47,47,364,1,,,5bf2f728bd9f150001f6cc42,64391633b72c776bfc549256,2023-04-14_10h02.39.662,PRaM,2021.2.3,Linux x86_64,59.99160118,61b8f3437b89212fae0dfade
2,2.5799,space,1.0796,0,48,48,188,1,,,5bf2f728bd9f150001f6cc42,64391633b72c776bfc549256,2023-04-14_10h02.39.662,PRaM,2021.2.3,Linux x86_64,59.99160118,61b8f3437b89212fae0dfade
1,18.439,space,17.3012,0,49,49,121,1,,,5bf2f728bd9f150001f6cc42,64391633b72c776bfc549256,2023-04-14_10h02.39.662,PRaM,2021.2.3,Linux x86_64,59.99160118,61b8f3437b89212fae0dfade
1,4.6396,space,3.2727,0,50,50,113,1,,,5bf2f728bd9f150001f6cc42,64391633b72c776bfc549256,2023-04-14_10h02.39.662,PRaM,2021.2.3,Linux x86_64,59.99160118,61b8f3437b89212fae0dfade
6,3.3629,space,1.8509,0,51,51,347,1,,,5bf2f728bd9f150001f6cc42,64391633b72c776bfc549256,2023-04-14_10h02.39.662,PRaM,2021.2.3,Linux x86_64,59.99160118,61b8f3437b89212fae0dfade
6,2.73,space,1.1329,0,52,52,242,1,,,5bf2f728bd9f150001f6cc42,64391633b72c776bfc549256,2023-04-14_10h02.39.662,PRaM,2021.2.3,Linux x86_64,59.99160118,61b8f3437b89212fae0dfade
1,4.4784,space,2.9901,0,53,53,109,1,,,5bf2f728bd9f150001f6cc42,64391633b72c776bfc549256,2023-04-14_10h02.39.662,PRaM,2021.2.3,Linux x86_64,59.99160118,61b8f3437b89212fae0dfade
4,2.943,space,1.3838,0,54,54,171,1,,,5bf2f728bd9f150001f6cc42,64391633b72c776bfc549256,2023-04-14_10h02.39.662,PRaM,2021.2.3,Linux x86_64,59.99160118,61b8f3437b89212fae0dfade
3,2.674,space,1.001,0,55,55,340,1,,,5bf2f728bd9f150001f6cc42,64391633b72c776bfc549256,2023-04-14_10h02.39.662,PRaM,2021.2.3,Linux x86_64,59.99160118,61b8f3437b89212fae0dfade
2,2.6808,space,1.2159,0,56,56,103,1,,,5bf2f728bd9f150001f6cc42,64391633b72c776bfc549256,2023-04-14_10h02.39.662,PRaM,2021.2.3,Linux x86_64,59.99160118,61b8f3437b89212fae0dfade
3,3.6905,space,2.0194,0,57,57,369,1,,,5bf2f728bd9f150001f6cc42,64391633b72c776bfc549256,2023-04-14_10h02.39.662,PRaM,2021.2.3,Linux x86_64,59.99160118,61b8f3437b89212fae0dfade
3,4.072,space,2.4356,0,58,58,144,1,,,5bf2f728bd9f150001f6cc42,64391633b72c776bfc549256,2023-04-14_10h02.39.662,PRaM,2021.2.3,Linux x86_64,59.99160118,61b8f3437b89212fae0dfade
5,2.9493,space,1.2712,0,59,59,164,1,,,5bf2f728bd9f150001f6cc42,64391633b72c776bfc549256,2023-04-14_10h02.39.662,PRaM,2021.2.3,Linux x86_64,59.99160118,61b8f3437b89212fae0dfade
2,3.7088,space,2.2373,0,60,60,284,1,,,5bf2f728bd9f150001f6cc42,64391633b72c776bfc549256,2023-04-14_10h02.39.662,PRaM,2021.2.3,Linux x86_64,59.99160118,61b8f3437b89212fae0dfade
5,16.0823,space,14.4202,0,61,61,135,1,,,5bf2f728bd9f150001f6cc42,64391633b72c776bfc549256,2023-04-14_10h02.39.662,PRaM,2021.2.3,Linux x86_64,59.99160118,61b8f3437b89212fae0dfade
2,2.73,space,1.149,0,62,62,126,1,,,5bf2f728bd9f150001f6cc42,64391633b72c776bfc549256,2023-04-14_10h02.39.662,PRaM,2021.2.3,Linux x86_64,59.99160118,61b8f3437b89212fae0dfade
4,3.1575,space,1.5163,0,63,63,377,1,,,5bf2f728bd9f150001f6cc42,64391633b72c776bfc549256,2023-04-14_10h02.39.662,PRaM,2021.2.3,Linux x86_64,59.99160118,61b8f3437b89212fae0dfade
3,2.5139,space,0.8673,0,64,64,115,1,,,5bf2f728bd9f150001f6cc42,64391633b72c776bfc549256,2023-04-14_10h02.39.662,PRaM,2021.2.3,Linux x86_64,59.99160118,61b8f3437b89212fae0dfade
2,2.6264,space,0.8547,0,65,65,300,1,,,5bf2f728bd9f150001f6cc42,64391633b72c776bfc549256,2023-04-14_10h02.39.662,PRaM,2021.2.3,Linux x86_64,59.99160118,61b8f3437b89212fae0dfade
3,3.426,space,1.7329,0,66,66,97,1,,,5bf2f728bd9f150001f6cc42,64391633b72c776bfc549256,2023-04-14_10h02.39.662,PRaM,2021.2.3,Linux x86_64,59.99160118,61b8f3437b89212fae0dfade
5,2.43,space,0.7164,0,67,67,154,1,,,5bf2f728bd9f150001f6cc42,64391633b72c776bfc549256,2023-04-14_10h02.39.662,PRaM,2021.2.3,Linux x86_64,59.99160118,61b8f3437b89212fae0dfade
5,2.5622,space,0.8909,0,68,68,177,1,,,5bf2f728bd9f150001f6cc42,64391633b72c776bfc549256,2023-04-14_10h02.39.662,PRaM,2021.2.3,Linux x86_64,59.99160118,61b8f3437b89212fae0dfade
6,3.3785,space,1.7901,0,69,69,282,1,,,5bf2f728bd9f150001f6cc42,64391633b72c776bfc549256,2023-04-14_10h02.39.662,PRaM,2021.2.3,Linux x86_64,59.99160118,61b8f3437b89212fae0dfade
6,2.8241,space,1.1784,0,70,70,325,1,,,5bf2f728bd9f150001f6cc42,64391633b72c776bfc549256,2023-04-14_10h02.39.662,PRaM,2021.2.3,Linux x86_64,59.99160118,61b8f3437b89212fae0dfade
4,3.2742,space,1.6136,0,71,71,146,1,,,5bf2f728bd9f150001f6cc42,64391633b72c776bfc549256,2023-04-14_10h02.39.662,PRaM,2021.2.3,Linux x86_64,59.99160118,61b8f3437b89212fae0dfade
7,4.1673,space,2.6195,0,72,72,98,1,,,5bf2f728bd9f150001f6cc42,64391633b72c776bfc549256,2023-04-14_10h02.39.662,PRaM,2021.2.3,Linux x86_64,59.99160118,61b8f3437b89212fae0dfade
1,2.7623,space,1.534,0,73,73,92,1,,,5bf2f728bd9f150001f6cc42,64391633b72c776bfc549256,2023-04-14_10h02.39.662,PRaM,2021.2.3,Linux x86_64,59.99160118,61b8f3437b89212fae0dfade
2,3.1227,space,1.4181,0,74,74,338,1,,,5bf2f728bd9f150001f6cc42,64391633b72c776bfc549256,2023-04-14_10h02.39.662,PRaM,2021.2.3,Linux x86_64,59.99160118,61b8f3437b89212fae0dfade
7,3.6258,space,1.9896,0,75,75,216,1,,,5bf2f728bd9f150001f6cc42,64391633b72c776bfc549256,2023-04-14_10h02.39.662,PRaM,2021.2.3,Linux x86_64,59.99160118,61b8f3437b89212fae0dfade
6,2.7141,space,1.1344,0,76,76,295,1,,,5bf2f728bd9f150001f6cc42,64391633b72c776bfc549256,2023-04-14_10h02.39.662,PRaM,2021.2.3,Linux x86_64,59.99160118,61b8f3437b89212fae0dfade
6,2.9916,space,1.317,0,77,77,225,1,,,5bf2f728bd9f150001f6cc42,64391633b72c776bfc549256,2023-04-14_10h02.39.662,PRaM,2021.2.3,Linux x86_64,59.99160118,61b8f3437b89212fae0dfade
5,3.1121,space,1.4658,0,78,78,117,1,,,5bf2f728bd9f150001f6cc42,64391633b72c776bfc549256,2023-04-14_10h02.39.662,PRaM,2021.2.3,Linux x86_64,59.99160118,61b8f3437b89212fae0dfade
7,2.7802,space,1.1209,0,79,79,137,1,,,5bf2f728bd9f150001f6cc42,64391633b72c776bfc549256,2023-04-14_10h02.39.662,PRaM,2021.2.3,Linux x86_64,59.99160118,61b8f3437b89212fae0dfade
5,3.419,space,1.6676,0,80,80,223,1,,,5bf2f728bd9f150001f6cc42,64391633b72c776bfc549256,2023-04-14_10h02.39.662,PRaM,2021.2.3,Linux x86_64,59.99160118,61b8f3437b89212fae0dfade
4,3.2886,space,1.609,0,81,81,311,1,,,5bf2f728bd9f150001f6cc42,64391633b72c776bfc549256,2023-04-14_10h02.39.662,PRaM,2021.2.3,Linux x86_64,59.99160118,61b8f3437b89212fae0dfade
6,2.8711,space,1.1532,0,82,82,153,1,,,5bf2f728bd9f150001f6cc42,64391633b72c776bfc549256,2023-04-14_10h02.39.662,PRaM,2021.2.3,Linux x86_64,59.99160118,61b8f3437b89212fae0dfade
6,2.1954,space,0.5178,0,83,83,56,1,,,5bf2f728bd9f150001f6cc42,64391633b72c776bfc549256,2023-04-14_10h02.39.662,PRaM,2021.2.3,Linux x86_64,59.99160118,61b8f3437b89212fae0dfade
5,3.0953,space,1.3189,0,84,84,172,1,,,5bf2f728bd9f150001f6cc42,64391633b72c776bfc549256,2023-04-14_10h02.39.662,PRaM,2021.2.3,Linux x86_64,59.99160118,61b8f3437b89212fae0dfade
4,2.7322,space,0.96,0,85,85,272,1,,,5bf2f728bd9f150001f6cc42,64391633b72c776bfc549256,2023-04-14_10h02.39.662,PRaM,2021.2.3,Linux x86_64,59.99160118,61b8f3437b89212fae0dfade
2,3.1406,space,1.6168,0,86,86,243,1,,,5bf2f728bd9f150001f6cc42,64391633b72c776bfc549256,2023-04-14_10h02.39.662,PRaM,2021.2.3,Linux x86_64,59.99160118,61b8f3437b89212fae0dfade
6,3.2994,space,1.6201,0,87,87,149,1,,,5bf2f728bd9f150001f6cc42,64391633b72c776bfc549256,2023-04-14_10h02.39.662,PRaM,2021.2.3,Linux x86_64,59.99160118,61b8f3437b89212fae0dfade
4,3.1297,space,1.8516,0,88,88,294,1,,,5bf2f728bd9f150001f6cc42,64391633b72c776bfc549256,2023-04-14_10h02.39.662,PRaM,2021.2.3,Linux x86_64,59.99160118,61b8f3437b89212fae0dfade
6,2.9307,space,1.3002,0,89,89,348,1,,,5bf2f728bd9f150001f6cc42,64391633b72c776bfc549256,2023-04-14_10h02.39.662,PRaM,2021.2.3,Linux x86_64,59.99160118,61b8f3437b89212fae0dfade
6,4.1552,space,2.4529,0,90,90,259,1,,,5bf2f728bd9f150001f6cc42,64391633b72c776bfc549256,2023-04-14_10h02.39.662,PRaM,2021.2.3,Linux x86_64,59.99160118,61b8f3437b89212fae0dfade
3,3.4852,space,1.7932,0,91,91,28,1,,,5bf2f728bd9f150001f6cc42,64391633b72c776bfc549256,2023-04-14_10h02.39.662,PRaM,2021.2.3,Linux x86_64,59.99160118,61b8f3437b89212fae0dfade
4,2.7904,space,1.1009,0,92,92,165,1,,,5bf2f728bd9f150001f6cc42,64391633b72c776bfc549256,2023-04-14_10h02.39.662,PRaM,2021.2.3,Linux x86_64,59.99160118,61b8f3437b89212fae0dfade
1,2.9455,space,1.3177,0,93,93,68,1,,,5bf2f728bd9f150001f6cc42,64391633b72c776bfc549256,2023-04-14_10h02.39.662,PRaM,2021.2.3,Linux x86_64,59.99160118,61b8f3437b89212fae0dfade
2,2.5781,space,0.7028,0,94,94,77,1,,,5bf2f728bd9f150001f6cc42,64391633b72c776bfc549256,2023-04-14_10h02.39.662,PRaM,2021.2.3,Linux x86_64,59.99160118,61b8f3437b89212fae0dfade
2,3.0049,space,1.1373,0,95,95,78,1,,,5bf2f728bd9f150001f6cc42,64391633b72c776bfc549256,2023-04-14_10h02.39.662,PRaM,2021.2.3,Linux x86_64,59.99160118,61b8f3437b89212fae0dfade
1,2.8105,space,1.1507,0,96,96,214,1,,,5bf2f728bd9f150001f6cc42,64391633b72c776bfc549256,2023-04-14_10h02.39.662,PRaM,2021.2.3,Linux x86_64,59.99160118,61b8f3437b89212fae0dfade
8,4.2739,space,2.6563,0,97,97,326,1,,,5bf2f728bd9f150001f6cc42,64391633b72c776bfc549256,2023-04-14_10h02.39.662,PRaM,2021.2.3,Linux x86_64,59.99160118,61b8f3437b89212fae0dfade
3,3.0061,space,1.3513,0,98,98,376,1,,,5bf2f728bd9f150001f6cc42,64391633b72c776bfc549256,2023-04-14_10h02.39.662,PRaM,2021.2.3,Linux x86_64,59.99160118,61b8f3437b89212fae0dfade
3,2.1791,space,0.4316,0,99,99,210,1,,,5bf2f728bd9f150001f6cc42,64391633b72c776bfc549256,2023-04-14_10h02.39.662,PRaM,2021.2.3,Linux x86_64,59.99160118,61b8f3437b89212fae0dfade
6,3.3821,space,1.7031,0,100,100,66,1,,,5bf2f728bd9f150001f6cc42,64391633b72c776bfc549256,2023-04-14_10h02.39.662,PRaM,2021.2.3,Linux x86_64,59.99160118,61b8f3437b89212fae0dfade
7,3.9456,space,2.3138,0,101,101,366,1,,,5bf2f728bd9f150001f6cc42,64391633b72c776bfc549256,2023-04-14_10h02.39.662,PRaM,2021.2.3,Linux x86_64,59.99160118,61b8f3437b89212fae0dfade
1,3.9914,space,2.432,0,102,102,248,1,,,5bf2f728bd9f150001f6cc42,64391633b72c776bfc549256,2023-04-14_10h02.39.662,PRaM,2021.2.3,Linux x86_64,59.99160118,61b8f3437b89212fae0dfade
1,2.7169,space,1.0675,0,103,103,195,1,,,5bf2f728bd9f150001f6cc42,64391633b72c776bfc549256,2023-04-14_10h02.39.662,PRaM,2021.2.3,Linux x86_64,59.99160118,61b8f3437b89212fae0dfade
3,2.3971,space,0.7235,0,104,104,139,1,,,5bf2f728bd9f150001f6cc42,64391633b72c776bfc549256,2023-04-14_10h02.39.662,PRaM,2021.2.3,Linux x86_64,59.99160118,61b8f3437b89212fae0dfade
6,2.7306,space,1.0346,0,105,105,51,1,,,5bf2f728bd9f150001f6cc42,64391633b72c776bfc549256,2023-04-14_10h02.39.662,PRaM,2021.2.3,Linux x86_64,59.99160118,61b8f3437b89212fae0dfade
6,2.4474,space,0.7872,0,106,106,7,1,,,5bf2f728bd9f150001f6cc42,64391633b72c776bfc549256,2023-04-14_10h02.39.662,PRaM,2021.2.3,Linux x86_64,59.99160118,61b8f3437b89212fae0dfade
2,3.2065,space,1.4849,0,107,107,212,1,,,5bf2f728bd9f150001f6cc42,64391633b72c776bfc549256,2023-04-14_10h02.39.662,PRaM,2021.2.3,Linux x86_64,59.99160118,61b8f3437b89212fae0dfade
4,3.2737,space,1.5851,0,108,108,40,1,,,5bf2f728bd9f150001f6cc42,64391633b72c776bfc549256,2023-04-14_10h02.39.662,PRaM,2021.2.3,Linux x86_64,59.99160118,61b8f3437b89212fae0dfade
3,2.6966,space,1.0056,0,109,109,286,1,,,5bf2f728bd9f150001f6cc42,64391633b72c776bfc549256,2023-04-14_10h02.39.662,PRaM,2021.2.3,Linux x86_64,59.99160118,61b8f3437b89212fae0dfade
4,2.2784,space,0.8178,0,110,110,174,1,,,5bf2f728bd9f150001f6cc42,64391633b72c776bfc549256,2023-04-14_10h02.39.662,PRaM,2021.2.3,Linux x86_64,59.99160118,61b8f3437b89212fae0dfade
5,2.9123,space,1.2336,0,111,111,271,1,,,5bf2f728bd9f150001f6cc42,64391633b72c776bfc549256,2023-04-14_10h02.39.662,PRaM,2021.2.3,Linux x86_64,59.99160118,61b8f3437b89212fae0dfade
2,2.7739,space,1.0853,0,112,112,189,1,,,5bf2f728bd9f150001f6cc42,64391633b72c776bfc549256,2023-04-14_10h02.39.662,PRaM,2021.2.3,Linux x86_64,59.99160118,61b8f3437b89212fae0dfade
3,2.4634,space,0.703,0,113,113,45,1,,,5bf2f728bd9f150001f6cc42,64391633b72c776bfc549256,2023-04-14_10h02.39.662,PRaM,2021.2.3,Linux x86_64,59.99160118,61b8f3437b89212fae0dfade
7,3.8577,space,2.209,0,114,114,372,1,,,5bf2f728bd9f150001f6cc42,64391633b72c776bfc549256,2023-04-14_10h02.39.662,PRaM,2021.2.3,Linux x86_64,59.99160118,61b8f3437b89212fae0dfade
2,3.2793,space,1.5364,0,115,115,95,1,,,5bf2f728bd9f150001f6cc42,64391633b72c776bfc549256,2023-04-14_10h02.39.662,PRaM,2021.2.3,Linux x86_64,59.99160118,61b8f3437b89212fae0dfade
2,2.9896,space,1.3337,0,116,116,337,1,,,5bf2f728bd9f150001f6cc42,64391633b72c776bfc549256,2023-04-14_10h02.39.662,PRaM,2021.2.3,Linux x86_64,59.99160118,61b8f3437b89212fae0dfade
2,2.7844,space,0.9833,0,117,117,251,1,,,5bf2f728bd9f150001f6cc42,64391633b72c776bfc549256,2023-04-14_10h02.39.662,PRaM,2021.2.3,Linux x86_64,59.99160118,61b8f3437b89212fae0dfade
5,3.5634,space,1.9138,0,118,118,99,1,,,5bf2f728bd9f150001f6cc42,64391633b72c776bfc549256,2023-04-14_10h02.39.662,PRaM,2021.2.3,Linux x86_64,59.99160118,61b8f3437b89212fae0dfade
2,2.7732,space,1.079,0,119,119,245,1,,,5bf2f728bd9f150001f6cc42,64391633b72c776bfc549256,2023-04-14_10h02.39.662,PRaM,2021.2.3,Linux x86_64,59.99160118,61b8f3437b89212fae0dfade
6,4.5414,space,2.8464,0,120,120,270,1,,,5bf2f728bd9f150001f6cc42,64391633b72c776bfc549256,2023-04-14_10h02.39.662,PRaM,2021.2.3,Linux x86_64,59.99160118,61b8f3437b89212fae0dfade
6,2.5915,space,0.8858,0,121,121,296,1,,,5bf2f728bd9f150001f6cc42,64391633b72c776bfc549256,2023-04-14_10h02.39.662,PRaM,2021.2.3,Linux x86_64,59.99160118,61b8f3437b89212fae0dfade
1,3.2421,space,2.1177,0,122,122,266,1,,,5bf2f728bd9f150001f6cc42,64391633b72c776bfc549256,2023-04-14_10h02.39.662,PRaM,2021.2.3,Linux x86_64,59.99160118,61b8f3437b89212fae0dfade
1,4.3247,space,2.5174,0,123,123,35,1,,,5bf2f728bd9f150001f6cc42,64391633b72c776bfc549256,2023-04-14_10h02.39.662,PRaM,2021.2.3,Linux x86_64,59.99160118,61b8f3437b89212fae0dfade
7,5.2748,space,3.6677,0,124,124,351,1,,,5bf2f728bd9f150001f6cc42,64391633b72c776bfc549256,2023-04-14_10h02.39.662,PRaM,2021.2.3,Linux x86_64,59.99160118,61b8f3437b89212fae0dfade
1,3.9068,space,2.0758,0,125,125,283,1,,,5bf2f728bd9f150001f6cc42,64391633b72c776bfc549256,2023-04-14_10h02.39.662,PRaM,2021.2.3,Linux x86_64,59.99160118,61b8f3437b89212fae0dfade
6,3.3907,space,1.651,0,126,126,279,1,,,5bf2f728bd9f150001f6cc42,64391633b72c776bfc549256,2023-04-14_10h02.39.662,PRaM,2021.2.3,Linux x86_64,59.99160118,61b8f3437b89212fae0dfade
3,3.2904,space,1.7002,0,127,127,202,1,,,5bf2f728bd9f150001f6cc42,64391633b72c776bfc549256,2023-04-14_10h02.39.662,PRaM,2021.2.3,Linux x86_64,59.99160118,61b8f3437b89212fae0dfade
2,3.0297,space,1.2896,0,128,128,324,1,,,5bf2f728bd9f150001f6cc42,64391633b72c776bfc549256,2023-04-14_10h02.39.662,PRaM,2021.2.3,Linux x86_64,59.99160118,61b8f3437b89212fae0dfade
6,2.7083,space,1.0294,0,129,129,173,1,,,5bf2f728bd9f150001f6cc42,64391633b72c776bfc549256,2023-04-14_10h02.39.662,PRaM,2021.2.3,Linux x86_64,59.99160118,61b8f3437b89212fae0dfade
6,2.9157,space,1.2348,0,130,130,84,1,,,5bf2f728bd9f150001f6cc42,64391633b72c776bfc549256,2023-04-14_10h02.39.662,PRaM,2021.2.3,Linux x86_64,59.99160118,61b8f3437b89212fae0dfade
2,2.863,space,1.1015,0,131,131,287,1,,,5bf2f728bd9f150001f6cc42,64391633b72c776bfc549256,2023-04-14_10h02.39.662,PRaM,2021.2.3,Linux x86_64,59.99160118,61b8f3437b89212fae0dfade
1,3.0416,space,1.3343,0,132,132,215,1,,,5bf2f728bd9f150001f6cc42,64391633b72c776bfc549256,2023-04-14_10h02.39.662,PRaM,2021.2.3,Linux x86_64,59.99160118,61b8f3437b89212fae0dfade
1,2.7134,space,1.0364,0,133,133,231,1,,,5bf2f728bd9f150001f6cc42,64391633b72c776bfc549256,2023-04-14_10h02.39.662,PRaM,2021.2.3,Linux x86_64,59.99160118,61b8f3437b89212fae0dfade
6,2.4012,space,0.6506,0,134,134,370,1,,,5bf2f728bd9f150001f6cc42,64391633b72c776bfc549256,2023-04-14_10h02.39.662,PRaM,2021.2.3,Linux x86_64,59.99160118,61b8f3437b89212fae0dfade
3,2.631,space,0.8405,0,135,135,368,1,,,5bf2f728bd9f150001f6cc42,64391633b72c776bfc549256,2023-04-14_10h02.39.662,PRaM,2021.2.3,Linux x86_64,59.99160118,61b8f3437b89212fae0dfade
2,3.4912,space,1.7187,0,136,136,31,1,,,5bf2f728bd9f150001f6cc42,64391633b72c776bfc549256,2023-04-14_10h02.39.662,PRaM,2021.2.3,Linux x86_64,59.99160118,61b8f3437b89212fae0dfade
2,2.597,space,0.8362,0,137,137,5,1,,,5bf2f728bd9f150001f6cc42,64391633b72c776bfc549256,2023-04-14_10h02.39.662,PRaM,2021.2.3,Linux x86_64,59.99160118,61b8f3437b89212fae0dfade
1,2.6763,space,0.91,0,138,138,13,1,,,5bf2f728bd9f150001f6cc42,64391633b72c776bfc549256,2023-04-14_10h02.39.662,PRaM,2021.2.3,Linux x86_64,59.99160118,61b8f3437b89212fae0dfade
8,4.7389,space,3.4533,0,139,139,276,1,,,5bf2f728bd9f150001f6cc42,64391633b72c776bfc549256,2023-04-14_10h02.39.662,PRaM,2021.2.3,Linux x86_64,59.99160118,61b8f3437b89212fae0dfade
5,3.7301,space,2.1565,0,140,140,22,1,,,5bf2f728bd9f150001f6cc42,64391633b72c776bfc549256,2023-04-14_10h02.39.662,PRaM,2021.2.3,Linux x86_64,59.99160118,61b8f3437b89212fae0dfade
2,2.912,space,1.1827,0,141,141,359,1,,,5bf2f728bd9f150001f6cc42,64391633b72c776bfc549256,2023-04-14_10h02.39.662,PRaM,2021.2.3,Linux x86_64,59.99160118,61b8f3437b89212fae0dfade
6,2.4908,space,0.882,0,142,142,323,1,,,5bf2f728bd9f150001f6cc42,64391633b72c776bfc549256,2023-04-14_10h02.39.662,PRaM,2021.2.3,Linux x86_64,59.99160118,61b8f3437b89212fae0dfade
2,2.5338,space,0.8343,0,143,143,89,1,,,5bf2f728bd9f150001f6cc42,64391633b72c776bfc549256,2023-04-14_10h02.39.662,PRaM,2021.2.3,Linux x86_64,59.99160118,61b8f3437b89212fae0dfade
3,2.6415,space,0.9023,0,144,144,332,1,,,5bf2f728bd9f150001f6cc42,64391633b72c776bfc549256,2023-04-14_10h02.39.662,PRaM,2021.2.3,Linux x86_64,59.99160118,61b8f3437b89212fae0dfade
2,2.48,space,0.6894,0,145,145,178,1,,,5bf2f728bd9f150001f6cc42,64391633b72c776bfc549256,2023-04-14_10h02.39.662,PRaM,2021.2.3,Linux x86_64,59.99160118,61b8f3437b89212fae0dfade
6,2.6185,space,0.9519,0,146,146,220,1,,,5bf2f728bd9f150001f6cc42,64391633b72c776bfc549256,2023-04-14_10h02.39.662,PRaM,2021.2.3,Linux x86_64,59.99160118,61b8f3437b89212fae0dfade
1,3.4382,space,1.7619,0,147,147,190,1,,,5bf2f728bd9f150001f6cc42,64391633b72c776bfc549256,2023-04-14_10h02.39.662,PRaM,2021.2.3,Linux x86_64,59.99160118,61b8f3437b89212fae0dfade
1,4.0196,space,2.4093,0,148,148,108,1,,,5bf2f728bd9f150001f6cc42,64391633b72c776bfc549256,2023-04-14_10h02.39.662,PRaM,2021.2.3,Linux x86_64,59.99160118,61b8f3437b89212fae0dfade
3,3.1588,space,1.4182,0,149,149,229,1,,,5bf2f728bd9f150001f6cc42,64391633b72c776bfc549256,2023-04-14_10h02.39.662,PRaM,2021.2.3,Linux x86_64,59.99160118,61b8f3437b89212fae0dfade
3,2.5447,space,0.8492,0,150,150,299,1,,,5bf2f728bd9f150001f6cc42,64391633b72c776bfc549256,2023-04-14_10h02.39.662,PRaM,2021.2.3,Linux x86_64,59.99160118,61b8f3437b89212fae0dfade
4,2.494,space,0.7525,0,151,151,47,1,,,5bf2f728bd9f150001f6cc42,64391633b72c776bfc549256,2023-04-14_10h02.39.662,PRaM,2021.2.3,Linux x86_64,59.99160118,61b8f3437b89212fae0dfade
7,2.4012,space,0.784,0,152,152,285,1,,,5bf2f728bd9f150001f6cc42,64391633b72c776bfc549256,2023-04-14_10h02.39.662,PRaM,2021.2.3,Linux x86_64,59.99160118,61b8f3437b89212fae0dfade
8,2.7801,space,1.1015,0,153,153,221,1,,,5bf2f728bd9f150001f6cc42,64391633b72c776bfc549256,2023-04-14_10h02.39.662,PRaM,2021.2.3,Linux x86_64,59.99160118,61b8f3437b89212fae0dfade
7,5.0082,space,3.3276,0,154,154,159,1,,,5bf2f728bd9f150001f6cc42,64391633b72c776bfc549256,2023-04-14_10h02.39.662,PRaM,2021.2.3,Linux x86_64,59.99160118,61b8f3437b89212fae0dfade
8,2.4452,space,0.7345,0,155,155,291,1,,,5bf2f728bd9f150001f6cc42,64391633b72c776bfc549256,2023-04-14_10h02.39.662,PRaM,2021.2.3,Linux x86_64,59.99160118,61b8f3437b89212fae0dfade
4,3.1593,space,1.4767,0,156,156,72,1,,,5bf2f728bd9f150001f6cc42,64391633b72c776bfc549256,2023-04-14_10h02.39.662,PRaM,2021.2.3,Linux x86_64,59.99160118,61b8f3437b89212fae0dfade
,,space,0.9005,0,157,157,308,1,,,5bf2f728bd9f150001f6cc42,64391633b72c776bfc549256,2023-04-14_10h02.39.662,PRaM,2021.2.3,Linux x86_64,59.99160118,61b8f3437b89212fae0dfade
3,3.8407,space,2.2001,0,158,158,80,1,,,5bf2f728bd9f150001f6cc42,64391633b72c776bfc549256,2023-04-14_10h02.39.662,PRaM,2021.2.3,Linux x86_64,59.99160118,61b8f3437b89212fae0dfade
5,2.7303,space,1.0072,0,159,159,0,1,,,5bf2f728bd9f150001f6cc42,64391633b72c776bfc549256,2023-04-14_10h02.39.662,PRaM,2021.2.3,Linux x86_64,59.99160118,61b8f3437b89212fae0dfade
3,3.1731,space,1.3534,0,160,160,349,1,,,5bf2f728bd9f150001f6cc42,64391633b72c776bfc549256,2023-04-14_10h02.39.662,PRaM,2021.2.3,Linux x86_64,59.99160118,61b8f3437b89212fae0dfade
5,3.2609,space,1.5639,0,161,161,344,1,,,5bf2f728bd9f150001f6cc42,64391633b72c776bfc549256,2023-04-14_10h02.39.662,PRaM,2021.2.3,Linux x86_64,59.99160118,61b8f3437b89212fae0dfade
2,9.8641,space,8.2028,0,162,162,122,1,,,5bf2f728bd9f150001f6cc42,64391633b72c776bfc549256,2023-04-14_10h02.39.662,PRaM,2021.2.3,Linux x86_64,59.99160118,61b8f3437b89212fae0dfade
3,6.7379,space,5.0927,0,163,163,217,1,,,5bf2f728bd9f150001f6cc42,64391633b72c776bfc549256,2023-04-14_10h02.39.662,PRaM,2021.2.3,Linux x86_64,59.99160118,61b8f3437b89212fae0dfade
3,3.7738,space,2.2163,0,164,164,303,1,,,5bf2f728bd9f150001f6cc42,64391633b72c776bfc549256,2023-04-14_10h02.39.662,PRaM,2021.2.3,Linux x86_64,59.99160118,61b8f3437b89212fae0dfade
4,3.9624,space,2.2686,0,165,165,181,1,,,5bf2f728bd9f150001f6cc42,64391633b72c776bfc549256,2023-04-14_10h02.39.662,PRaM,2021.2.3,Linux x86_64,59.99160118,61b8f3437b89212fae0dfade
6,3.614,space,1.9698,0,166,166,239,1,,,5bf2f728bd9f150001f6cc42,64391633b72c776bfc549256,2023-04-14_10h02.39.662,PRaM,2021.2.3,Linux x86_64,59.99160118,61b8f3437b89212fae0dfade
7,2.6467,space,0.8674,0,167,167,207,1,,,5bf2f728bd9f150001f6cc42,64391633b72c776bfc549256,2023-04-14_10h02.39.662,PRaM,2021.2.3,Linux x86_64,59.99160118,61b8f3437b89212fae0dfade
1,2.7489,space,1.118,0,168,168,100,1,,,5bf2f728bd9f150001f6cc42,64391633b72c776bfc549256,2023-04-14_10h02.39.662,PRaM,2021.2.3,Linux x86_64,59.99160118,61b8f3437b89212fae0dfade
2,3.3447,space,1.5029,0,169,169,55,1,,,5bf2f728bd9f150001f6cc42,64391633b72c776bfc549256,2023-04-14_10h02.39.662,PRaM,2021.2.3,Linux x86_64,59.99160118,61b8f3437b89212fae0dfade
3,2.2491,space,0.6364,0,170,170,362,1,,,5bf2f728bd9f150001f6cc42,64391633b72c776bfc549256,2023-04-14_10h02.39.662,PRaM,2021.2.3,Linux x86_64,59.99160118,61b8f3437b89212fae0dfade
2,2.8734,space,1.1852,0,171,171,292,1,,,5bf2f728bd9f150001f6cc42,64391633b72c776bfc549256,2023-04-14_10h02.39.662,PRaM,2021.2.3,Linux x86_64,59.99160118,61b8f3437b89212fae0dfade
3,2.3048,space,0.6299,0,172,172,206,1,,,5bf2f728bd9f150001f6cc42,64391633b72c776bfc549256,2023-04-14_10h02.39.662,PRaM,2021.2.3,Linux x86_64,59.99160118,61b8f3437b89212fae0dfade
6,2.2157,space,0.5855,0,173,173,16,1,,,5bf2f728bd9f150001f6cc42,64391633b72c776bfc549256,2023-04-14_10h02.39.662,PRaM,2021.2.3,Linux x86_64,59.99160118,61b8f3437b89212fae0dfade
3,3.3577,space,1.6682,0,174,174,253,1,,,5bf2f728bd9f150001f6cc42,64391633b72c776bfc549256,2023-04-14_10h02.39.662,PRaM,2021.2.3,Linux x86_64,59.99160118,61b8f3437b89212fae0dfade
3,2.2287,space,0.564,0,175,175,306,1,,,5bf2f728bd9f150001f6cc42,64391633b72c776bfc549256,2023-04-14_10h02.39.662,PRaM,2021.2.3,Linux x86_64,59.99160118,61b8f3437b89212fae0dfade
2,2.6018,space,0.8266,0,176,176,18,1,,,5bf2f728bd9f150001f6cc42,64391633b72c776bfc549256,2023-04-14_10h02.39.662,PRaM,2021.2.3,Linux x86_64,59.99160118,61b8f3437b89212fae0dfade
1,2.6243,space,0.9724,0,177,177,131,1,,,5bf2f728bd9f150001f6cc42,64391633b72c776bfc549256,2023-04-14_10h02.39.662,PRaM,2021.2.3,Linux x86_64,59.99160118,61b8f3437b89212fae0dfade
2,2.8779,space,1.1839,0,178,178,275,1,,,5bf2f728bd9f150001f6cc42,64391633b72c776bfc549256,2023-04-14_10h02.39.662,PRaM,2021.2.3,Linux x86_64,59.99160118,61b8f3437b89212fae0dfade
5,3.4963,space,1.8522,0,179,179,73,1,,,5bf2f728bd9f150001f6cc42,64391633b72c776bfc549256,2023-04-14_10h02.39.662,PRaM,2021.2.3,Linux x86_64,59.99160118,61b8f3437b89212fae0dfade
7,3.1398,space,1.4525,0,180,180,75,1,,,5bf2f728bd9f150001f6cc42,64391633b72c776bfc549256,2023-04-14_10h02.39.662,PRaM,2021.2.3,Linux x86_64,59.99160118,61b8f3437b89212fae0dfade
2,3.1902,space,1.4677,0,181,181,235,1,,,5bf2f728bd9f150001f6cc42,64391633b72c776bfc549256,2023-04-14_10h02.39.662,PRaM,2021.2.3,Linux x86_64,59.99160118,61b8f3437b89212fae0dfade
,,space,0.8206,0,182,182,87,1,,,5bf2f728bd9f150001f6cc42,64391633b72c776bfc549256,2023-04-14_10h02.39.662,PRaM,2021.2.3,Linux x86_64,59.99160118,61b8f3437b89212fae0dfade
5,4.3635,space,2.7207,0,183,183,134,1,,,5bf2f728bd9f150001f6cc42,64391633b72c776bfc549256,2023-04-14_10h02.39.662,PRaM,2021.2.3,Linux x86_64,59.99160118,61b8f3437b89212fae0dfade
3,2.8786,space,1.2197,0,184,184,356,1,,,5bf2f728bd9f150001f6cc42,64391633b72c776bfc549256,2023-04-14_10h02.39.662,PRaM,2021.2.3,Linux x86_64,59.99160118,61b8f3437b89212fae0dfade
6,2.6071,space,1.0025,0,185,185,280,1,,,5bf2f728bd9f150001f6cc42,64391633b72c776bfc549256,2023-04-14_10h02.39.662,PRaM,2021.2.3,Linux x86_64,59.99160118,61b8f3437b89212fae0dfade
7,2.6138,space,0.9695,0,186,186,60,1,,,5bf2f728bd9f150001f6cc42,64391633b72c776bfc549256,2023-04-14_10h02.39.662,PRaM,2021.2.3,Linux x86_64,59.99160118,61b8f3437b89212fae0dfade
3,2.5575,space,0.8852,0,187,187,185,1,,,5bf2f728bd9f150001f6cc42,64391633b72c776bfc549256,2023-04-14_10h02.39.662,PRaM,2021.2.3,Linux x86_64,59.99160118,61b8f3437b89212fae0dfade
7,3.2301,space,1.594,0,188,188,211,1,,,5bf2f728bd9f150001f6cc42,64391633b72c776bfc549256,2023-04-14_10h02.39.662,PRaM,2021.2.3,Linux x86_64,59.99160118,61b8f3437b89212fae0dfade
5,2.8994,space,1.2099,0,189,189,219,1,,,5bf2f728bd9f150001f6cc42,64391633b72c776bfc549256,2023-04-14_10h02.39.662,PRaM,2021.2.3,Linux x86_64,59.99160118,61b8f3437b89212fae0dfade
2,2.5639,space,0.8842,0,190,190,250,1,,,5bf2f728bd9f150001f6cc42,64391633b72c776bfc549256,2023-04-14_10h02.39.662,PRaM,2021.2.3,Linux x86_64,59.99160118,61b8f3437b89212fae0dfade
3,2.1627,space,0.5178,0,191,191,140,1,,,5bf2f728bd9f150001f6cc42,64391633b72c776bfc549256,2023-04-14_10h02.39.662,PRaM,2021.2.3,Linux x86_64,59.99160118,61b8f3437b89212fae0dfade
7,2.6286,space,0.9946,0,192,192,3,1,,,5bf2f728bd9f150001f6cc42,64391633b72c776bfc549256,2023-04-14_10h02.39.662,PRaM,2021.2.3,Linux x86_64,59.99160118,61b8f3437b89212fae0dfade
5,3.253,space,1.5913,0,193,193,278,1,,,5bf2f728bd9f150001f6cc42,64391633b72c776bfc549256,2023-04-14_10h02.39.662,PRaM,2021.2.3,Linux x86_64,59.99160118,61b8f3437b89212fae0dfade
5,2.3708,space,0.7127,0,194,194,32,1,,,5bf2f728bd9f150001f6cc42,64391633b72c776bfc549256,2023-04-14_10h02.39.662,PRaM,2021.2.3,Linux x86_64,59.99160118,61b8f3437b89212fae0dfade
6,2.1991,space,0.4992,0,195,195,183,1,,,5bf2f728bd9f150001f6cc42,64391633b72c776bfc549256,2023-04-14_10h02.39.662,PRaM,2021.2.3,Linux x86_64,59.99160118,61b8f3437b89212fae0dfade
7,2.4627,space,0.7904,0,196,196,238,1,,,5bf2f728bd9f150001f6cc42,64391633b72c776bfc549256,2023-04-14_10h02.39.662,PRaM,2021.2.3,Linux x86_64,59.99160118,61b8f3437b89212fae0dfade
8,2.1532,space,0.5869,0,197,197,64,1,,,5bf2f728bd9f150001f6cc42,64391633b72c776bfc549256,2023-04-14_10h02.39.662,PRaM,2021.2.3,Linux x86_64,59.99160118,61b8f3437b89212fae0dfade
7,2.7994,space,1.1811,0,198,198,62,1,,,5bf2f728bd9f150001f6cc42,64391633b72c776bfc549256,2023-04-14_10h02.39.662,PRaM,2021.2.3,Linux x86_64,59.99160118,61b8f3437b89212fae0dfade
2,2.3849,space,0.6934,0,199,199,58,1,,,5bf2f728bd9f150001f6cc42,64391633b72c776bfc549256,2023-04-14_10h02.39.662,PRaM,2021.2.3,Linux x86_64,59.99160118,61b8f3437b89212fae0dfade
2,2.7073,space,1.0344,0,200,200,227,1,,,5bf2f728bd9f150001f6cc42,64391633b72c776bfc549256,2023-04-14_10h02.39.662,PRaM,2021.2.3,Linux x86_64,59.99160118,61b8f3437b89212fae0dfade
3,2.7788,space,1.1223,0,201,201,124,1,,,5bf2f728bd9f150001f6cc42,64391633b72c776bfc549256,2023-04-14_10h02.39.662,PRaM,2021.2.3,Linux x86_64,59.99160118,61b8f3437b89212fae0dfade
6,2.8319,space,1.1574,0,202,202,136,1,,,5bf2f728bd9f150001f6cc42,64391633b72c776bfc549256,2023-04-14_10h02.39.662,PRaM,2021.2.3,Linux x86_64,59.99160118,61b8f3437b89212fae0dfade
4,2.3604,space,0.6677,0,203,203,127,1,,,5bf2f728bd9f150001f6cc42,64391633b72c776bfc549256,2023-04-14_10h02.39.662,PRaM,2021.2.3,Linux x86_64,59.99160118,61b8f3437b89212fae0dfade
4,2.2126,space,0.4548,0,204,204,57,1,,,5bf2f728bd9f150001f6cc42,64391633b72c776bfc549256,2023-04-14_10h02.39.662,PRaM,2021.2.3,Linux x86_64,59.99160118,61b8f3437b89212fae0dfade
4,2.5995,space,0.9369,0,205,205,357,1,,,5bf2f728bd9f150001f6cc42,64391633b72c776bfc549256,2023-04-14_10h02.39.662,PRaM,2021.2.3,Linux x86_64,59.99160118,61b8f3437b89212fae0dfade
7,3.79,space,2.1152,0,206,206,346,1,,,5bf2f728bd9f150001f6cc42,64391633b72c776bfc549256,2023-04-14_10h02.39.662,PRaM,2021.2.3,Linux x86_64,59.99160118,61b8f3437b89212fae0dfade
5,2.4647,space,0.7179,0,207,207,6,1,,,5bf2f728bd9f150001f6cc42,64391633b72c776bfc549256,2023-04-14_10h02.39.662,PRaM,2021.2.3,Linux x86_64,59.99160118,61b8f3437b89212fae0dfade
1,3.0619,space,1.4028,0,208,208,339,1,,,5bf2f728bd9f150001f6cc42,64391633b72c776bfc549256,2023-04-14_10h02.39.662,PRaM,2021.2.3,Linux x86_64,59.99160118,61b8f3437b89212fae0dfade
,,space,1.202,0,209,209,143,1,,,5bf2f728bd9f150001f6cc42,64391633b72c776bfc549256,2023-04-14_10h02.39.662,PRaM,2021.2.3,Linux x86_64,59.99160118,61b8f3437b89212fae0dfade
1,3.4485,space,1.8371,0,210,210,129,1,,,5bf2f728bd9f150001f6cc42,64391633b72c776bfc549256,2023-04-14_10h02.39.662,PRaM,2021.2.3,Linux x86_64,59.99160118,61b8f3437b89212fae0dfade
5,3.4133,space,1.7848,0,211,211,373,1,,,5bf2f728bd9f150001f6cc42,64391633b72c776bfc549256,2023-04-14_10h02.39.662,PRaM,2021.2.3,Linux x86_64,59.99160118,61b8f3437b89212fae0dfade
3,2.4295,space,0.7826,0,212,212,30,1,,,5bf2f728bd9f150001f6cc42,64391633b72c776bfc549256,2023-04-14_10h02.39.662,PRaM,2021.2.3,Linux x86_64,59.99160118,61b8f3437b89212fae0dfade
3,2.5406,space,0.8861,0,213,213,52,1,,,5bf2f728bd9f150001f6cc42,64391633b72c776bfc549256,2023-04-14_10h02.39.662,PRaM,2021.2.3,Linux x86_64,59.99160118,61b8f3437b89212fae0dfade
3,2.2649,space,0.594,0,214,214,101,1,,,5bf2f728bd9f150001f6cc42,64391633b72c776bfc549256,2023-04-14_10h02.39.662,PRaM,2021.2.3,Linux x86_64,59.99160118,61b8f3437b89212fae0dfade
4,2.6158,space,0.9513,0,215,215,44,1,,,5bf2f728bd9f150001f6cc42,64391633b72c776bfc549256,2023-04-14_10h02.39.662,PRaM,2021.2.3,Linux x86_64,59.99160118,61b8f3437b89212fae0dfade
7,2.5283,space,0.9172,0,216,216,118,1,,,5bf2f728bd9f150001f6cc42,64391633b72c776bfc549256,2023-04-14_10h02.39.662,PRaM,2021.2.3,Linux x86_64,59.99160118,61b8f3437b89212fae0dfade
3,2.9135,space,1.219,0,217,217,193,1,,,5bf2f728bd9f150001f6cc42,64391633b72c776bfc549256,2023-04-14_10h02.39.662,PRaM,2021.2.3,Linux x86_64,59.99160118,61b8f3437b89212fae0dfade
3,2.7971,space,1.1193,0,218,218,141,1,,,5bf2f728bd9f150001f6cc42,64391633b72c776bfc549256,2023-04-14_10h02.39.662,PRaM,2021.2.3,Linux x86_64,59.99160118,61b8f3437b89212fae0dfade
2,2.3473,space,0.7227,0,219,219,49,1,,,5bf2f728bd9f150001f6cc42,64391633b72c776bfc549256,2023-04-14_10h02.39.662,PRaM,2021.2.3,Linux x86_64,59.99160118,61b8f3437b89212fae0dfade
8,3.4307,space,1.8541,0,220,220,222,1,,,5bf2f728bd9f150001f6cc42,64391633b72c776bfc549256,2023-04-14_10h02.39.662,PRaM,2021.2.3,Linux x86_64,59.99160118,61b8f3437b89212fae0dfade
2,2.8278,space,1.1126,0,221,221,125,1,,,5bf2f728bd9f150001f6cc42,64391633b72c776bfc549256,2023-04-14_10h02.39.662,PRaM,2021.2.3,Linux x86_64,59.99160118,61b8f3437b89212fae0dfade
4,2.1799,space,0.5349,0,222,222,104,1,,,5bf2f728bd9f150001f6cc42,64391633b72c776bfc549256,2023-04-14_10h02.39.662,PRaM,2021.2.3,Linux x86_64,59.99160118,61b8f3437b89212fae0dfade
2,2.4235,space,0.6375,0,223,223,41,1,,,5bf2f728bd9f150001f6cc42,64391633b72c776bfc549256,2023-04-14_10h02.39.662,PRaM,2021.2.3,Linux x86_64,59.99160118,61b8f3437b89212fae0dfade
7,3.4238,space,1.9137,0,224,224,102,1,,,5bf2f728bd9f150001f6cc42,64391633b72c776bfc549256,2023-04-14_10h02.39.662,PRaM,2021.2.3,Linux x86_64,59.99160118,61b8f3437b89212fae0dfade
2,2.9215,space,1.1745,0,225,225,203,1,,,5bf2f728bd9f150001f6cc42,64391633b72c776bfc549256,2023-04-14_10h02.39.662,PRaM,2021.2.3,Linux x86_64,59.99160118,61b8f3437b89212fae0dfade
5,2.702,space,0.9847,0,226,226,304,1,,,5bf2f728bd9f150001f6cc42,64391633b72c776bfc549256,2023-04-14_10h02.39.662,PRaM,2021.2.3,Linux x86_64,59.99160118,61b8f3437b89212fae0dfade
5,2.2225,space,0.5019,0,227,227,205,1,,,5bf2f728bd9f150001f6cc42,64391633b72c776bfc549256,2023-04-14_10h02.39.662,PRaM,2021.2.3,Linux x86_64,59.99160118,61b8f3437b89212fae0dfade
3,2.7308,space,1.0838,0,228,228,341,1,,,5bf2f728bd9f150001f6cc42,64391633b72c776bfc549256,2023-04-14_10h02.39.662,PRaM,2021.2.3,Linux x86_64,59.99160118,61b8f3437b89212fae0dfade
3,2.5802,space,0.7903,0,229,229,37,1,,,5bf2f728bd9f150001f6cc42,64391633b72c776bfc549256,2023-04-14_10h02.39.662,PRaM,2021.2.3,Linux x86_64,59.99160118,61b8f3437b89212fae0dfade
2,2.8284,space,1.1256,0,230,230,354,1,,,5bf2f728bd9f150001f6cc42,64391633b72c776bfc549256,2023-04-14_10h02.39.662,PRaM,2021.2.3,Linux x86_64,59.99160118,61b8f3437b89212fae0dfade
1,2.2456,space,0.6229,0,231,231,67,1,,,5bf2f728bd9f150001f6cc42,64391633b72c776bfc549256,2023-04-14_10h02.39.662,PRaM,2021.2.3,Linux x86_64,59.99160118,61b8f3437b89212fae0dfade
1,2.8775,space,1.1989,0,232,232,158,1,,,5bf2f728bd9f150001f6cc42,64391633b72c776bfc549256,2023-04-14_10h02.39.662,PRaM,2021.2.3,Linux x86_64,59.99160118,61b8f3437b89212fae0dfade
1,2.8125,space,1.1525,0,233,233,218,1,,,5bf2f728bd9f150001f6cc42,64391633b72c776bfc549256,2023-04-14_10h02.39.662,PRaM,2021.2.3,Linux x86_64,59.99160118,61b8f3437b89212fae0dfade
4,3.5908,space,1.9022,0,234,234,200,1,,,5bf2f728bd9f150001f6cc42,64391633b72c776bfc549256,2023-04-14_10h02.39.662,PRaM,2021.2.3,Linux x86_64,59.99160118,61b8f3437b89212fae0dfade
3,2.6142,space,0.904,0,235,235,258,1,,,5bf2f728bd9f150001f6cc42,64391633b72c776bfc549256,2023-04-14_10h02.39.662,PRaM,2021.2.3,Linux x86_64,59.99160118,61b8f3437b89212fae0dfade
1,2.6235,space,0.8865,0,236,236,79,1,,,5bf2f728bd9f150001f6cc42,64391633b72c776bfc549256,2023-04-14_10h02.39.662,PRaM,2021.2.3,Linux x86_64,59.99160118,61b8f3437b89212fae0dfade
7,3.0478,space,1.4113,0,237,237,264,1,,,5bf2f728bd9f150001f6cc42,64391633b72c776bfc549256,2023-04-14_10h02.39.662,PRaM,2021.2.3,Linux x86_64,59.99160118,61b8f3437b89212fae0dfade
6,2.9376,space,1.2171,0,238,238,152,1,,,5bf2f728bd9f150001f6cc42,64391633b72c776bfc549256,2023-04-14_10h02.39.662,PRaM,2021.2.3,Linux x86_64,59.99160118,61b8f3437b89212fae0dfade
3,2.9114,space,1.2055,0,239,239,11,1,,,5bf2f728bd9f150001f6cc42,64391633b72c776bfc549256,2023-04-14_10h02.39.662,PRaM,2021.2.3,Linux x86_64,59.99160118,61b8f3437b89212fae0dfade
5,2.4136,space,0.7829,0,240,240,12,1,,,5bf2f728bd9f150001f6cc42,64391633b72c776bfc549256,2023-04-14_10h02.39.662,PRaM,2021.2.3,Linux x86_64,59.99160118,61b8f3437b89212fae0dfade
6,3.4927,space,1.765,0,241,241,261,1,,,5bf2f728bd9f150001f6cc42,64391633b72c776bfc549256,2023-04-14_10h02.39.662,PRaM,2021.2.3,Linux x86_64,59.99160118,61b8f3437b89212fae0dfade
6,2.3463,space,0.6441,0,242,242,331,1,,,5bf2f728bd9f150001f6cc42,64391633b72c776bfc549256,2023-04-14_10h02.39.662,PRaM,2021.2.3,Linux x86_64,59.99160118,61b8f3437b89212fae0dfade
2,3.014,space,1.4784,0,243,243,260,1,,,5bf2f728bd9f150001f6cc42,64391633b72c776bfc549256,2023-04-14_10h02.39.662,PRaM,2021.2.3,Linux x86_64,59.99160118,61b8f3437b89212fae0dfade
2,2.7906,space,1.0201,0,244,244,15,1,,,5bf2f728bd9f150001f6cc42,64391633b72c776bfc549256,2023-04-14_10h02.39.662,PRaM,2021.2.3,Linux x86_64,59.99160118,61b8f3437b89212fae0dfade
6,2.6793,space,1.2086,0,245,245,335,1,,,5bf2f728bd9f150001f6cc42,64391633b72c776bfc549256,2023-04-14_10h02.39.662,PRaM,2021.2.3,Linux x86_64,59.99160118,61b8f3437b89212fae0dfade
2,3.2053,space,1.4955,0,246,246,316,1,,,5bf2f728bd9f150001f6cc42,64391633b72c776bfc549256,2023-04-14_10h02.39.662,PRaM,2021.2.3,Linux x86_64,59.99160118,61b8f3437b89212fae0dfade
3,2.6281,space,0.8397,0,247,247,96,1,,,5bf2f728bd9f150001f6cc42,64391633b72c776bfc549256,2023-04-14_10h02.39.662,PRaM,2021.2.3,Linux x86_64,59.99160118,61b8f3437b89212fae0dfade
5,2.4459,space,0.6337,0,248,248,274,1,,,5bf2f728bd9f150001f6cc42,64391633b72c776bfc549256,2023-04-14_10h02.39.662,PRaM,2021.2.3,Linux x86_64,59.99160118,61b8f3437b89212fae0dfade
5,2.6676,space,0.9191,0,249,249,230,1,,,5bf2f728bd9f150001f6cc42,64391633b72c776bfc549256,2023-04-14_10h02.39.662,PRaM,2021.2.3,Linux x86_64,59.99160118,61b8f3437b89212fae0dfade
6,2.7286,space,0.9213,0,250,250,74,1,,,5bf2f728bd9f150001f6cc42,64391633b72c776bfc549256,2023-04-14_10h02.39.662,PRaM,2021.2.3,Linux x86_64,59.99160118,61b8f3437b89212fae0dfade
6,2.4766,space,0.8019,0,251,251,314,1,,,5bf2f728bd9f150001f6cc42,64391633b72c776bfc549256,2023-04-14_10h02.39.662,PRaM,2021.2.3,Linux x86_64,59.99160118,61b8f3437b89212fae0dfade
5,2.3963,space,0.735,0,252,252,33,1,,,5bf2f728bd9f150001f6cc42,64391633b72c776bfc549256,2023-04-14_10h02.39.662,PRaM,2021.2.3,Linux x86_64,59.99160118,61b8f3437b89212fae0dfade
5,4.5453,space,2.873,0,253,253,120,1,,,5bf2f728bd9f150001f6cc42,64391633b72c776bfc549256,2023-04-14_10h02.39.662,PRaM,2021.2.3,Linux x86_64,59.99160118,61b8f3437b89212fae0dfade
2,3.5888,space,1.8555,0,254,254,333,1,,,5bf2f728bd9f150001f6cc42,64391633b72c776bfc549256,2023-04-14_10h02.39.662,PRaM,2021.2.3,Linux x86_64,59.99160118,61b8f3437b89212fae0dfade
9,4.2231,space,2.5086,0,255,255,85,1,,,5bf2f728bd9f150001f6cc42,64391633b72c776bfc549256,2023-04-14_10h02.39.662,PRaM,2021.2.3,Linux x86_64,59.99160118,61b8f3437b89212fae0dfade
5,2.8212,space,1.067,0,256,256,201,1,,,5bf2f728bd9f150001f6cc42,64391633b72c776bfc549256,2023-04-14_10h02.39.662,PRaM,2021.2.3,Linux x86_64,59.99160118,61b8f3437b89212fae0dfade
3,2.5219,space,0.9517,0,257,257,241,1,,,5bf2f728bd9f150001f6cc42,64391633b72c776bfc549256,2023-04-14_10h02.39.662,PRaM,2021.2.3,Linux x86_64,59.99160118,61b8f3437b89212fae0dfade
6,2.8891,space,1.0988,0,258,258,363,1,,,5bf2f728bd9f150001f6cc42,64391633b72c776bfc549256,2023-04-14_10h02.39.662,PRaM,2021.2.3,Linux x86_64,59.99160118,61b8f3437b89212fae0dfade
7,2.7177,space,1.0169,0,259,259,254,1,,,5bf2f728bd9f150001f6cc42,64391633b72c776bfc549256,2023-04-14_10h02.39.662,PRaM,2021.2.3,Linux x86_64,59.99160118,61b8f3437b89212fae0dfade
7,2.6537,space,0.8651,0,260,260,213,1,,,5bf2f728bd9f150001f6cc42,64391633b72c776bfc549256,2023-04-14_10h02.39.662,PRaM,2021.2.3,Linux x86_64,59.99160118,61b8f3437b89212fae0dfade
9,2.8303,space,1.1997,0,261,261,320,1,,,5bf2f728bd9f150001f6cc42,64391633b72c776bfc549256,2023-04-14_10h02.39.662,PRaM,2021.2.3,Linux x86_64,59.99160118,61b8f3437b89212fae0dfade
2,2.3075,space,0.5989,0,262,262,329,1,,,5bf2f728bd9f150001f6cc42,64391633b72c776bfc549256,2023-04-14_10h02.39.662,PRaM,2021.2.3,Linux x86_64,59.99160118,61b8f3437b89212fae0dfade
2,2.9333,space,1.1653,0,263,263,246,1,,,5bf2f728bd9f150001f6cc42,64391633b72c776bfc549256,2023-04-14_10h02.39.662,PRaM,2021.2.3,Linux x86_64,59.99160118,61b8f3437b89212fae0dfade
1,1.9973,space,0.2801,0,264,264,313,1,,,5bf2f728bd9f150001f6cc42,64391633b72c776bfc549256,2023-04-14_10h02.39.662,PRaM,2021.2.3,Linux x86_64,59.99160118,61b8f3437b89212fae0dfade
2,3.0552,space,1.302,0,265,265,133,1,,,5bf2f728bd9f150001f6cc42,64391633b72c776bfc549256,2023-04-14_10h02.39.662,PRaM,2021.2.3,Linux x86_64,59.99160118,61b8f3437b89212fae0dfade
8,2.9234,space,1.2502,0,266,266,186,1,,,5bf2f728bd9f150001f6cc42,64391633b72c776bfc549256,2023-04-14_10h02.39.662,PRaM,2021.2.3,Linux x86_64,59.99160118,61b8f3437b89212fae0dfade
7,2.4191,space,0.575,0,267,267,105,1,,,5bf2f728bd9f150001f6cc42,64391633b72c776bfc549256,2023-04-14_10h02.39.662,PRaM,2021.2.3,Linux x86_64,59.99160118,61b8f3437b89212fae0dfade
4,3.2559,space,1.5236,0,268,268,302,1,,,5bf2f728bd9f150001f6cc42,64391633b72c776bfc549256,2023-04-14_10h02.39.662,PRaM,2021.2.3,Linux x86_64,59.99160118,61b8f3437b89212fae0dfade
7,2.5252,space,0.8682,0,269,269,319,1,,,5bf2f728bd9f150001f6cc42,64391633b72c776bfc549256,2023-04-14_10h02.39.662,PRaM,2021.2.3,Linux x86_64,59.99160118,61b8f3437b89212fae0dfade
4,2.7717,space,1.0676,0,270,270,343,1,,,5bf2f728bd9f150001f6cc42,64391633b72c776bfc549256,2023-04-14_10h02.39.662,PRaM,2021.2.3,Linux x86_64,59.99160118,61b8f3437b89212fae0dfade
2,2.6789,space,1.0204,0,271,271,353,1,,,5bf2f728bd9f150001f6cc42,64391633b72c776bfc549256,2023-04-14_10h02.39.662,PRaM,2021.2.3,Linux x86_64,59.99160118,61b8f3437b89212fae0dfade
2,2.9479,space,1.1984,0,272,272,106,1,,,5bf2f728bd9f150001f6cc42,64391633b72c776bfc549256,2023-04-14_10h02.39.662,PRaM,2021.2.3,Linux x86_64,59.99160118,61b8f3437b89212fae0dfade
3,2.6835,space,0.9337,0,273,273,145,1,,,5bf2f728bd9f150001f6cc42,64391633b72c776bfc549256,2023-04-14_10h02.39.662,PRaM,2021.2.3,Linux x86_64,59.99160118,61b8f3437b89212fae0dfade
3,2.4099,space,0.6614,0,274,274,224,1,,,5bf2f728bd9f150001f6cc42,64391633b72c776bfc549256,2023-04-14_10h02.39.662,PRaM,2021.2.3,Linux x86_64,59.99160118,61b8f3437b89212fae0dfade
3,2.2121,space,0.5033,0,275,275,198,1,,,5bf2f728bd9f150001f6cc42,64391633b72c776bfc549256,2023-04-14_10h02.39.662,PRaM,2021.2.3,Linux x86_64,59.99160118,61b8f3437b89212fae0dfade
2,4.0241,space,2.3527,0,276,276,240,1,,,5bf2f728bd9f150001f6cc42,64391633b72c776bfc549256,2023-04-14_10h02.39.662,PRaM,2021.2.3,Linux x86_64,59.99160118,61b8f3437b89212fae0dfade
6,2.7578,space,1.0863,0,277,277,123,1,,,5bf2f728bd9f150001f6cc42,64391633b72c776bfc549256,2023-04-14_10h02.39.662,PRaM,2021.2.3,Linux x86_64,59.99160118,61b8f3437b89212fae0dfade
2,2.797,space,1.0507,0,278,278,293,1,,,5bf2f728bd9f150001f6cc42,64391633b72c776bfc549256,2023-04-14_10h02.39.662,PRaM,2021.2.3,Linux x86_64,59.99160118,61b8f3437b89212fae0dfade
1,3.9053,space,2.3698,0,279,279,263,1,,,5bf2f728bd9f150001f6cc42,64391633b72c776bfc549256,2023-04-14_10h02.39.662,PRaM,2021.2.3,Linux x86_64,59.99160118,61b8f3437b89212fae0dfade
2,2.7961,space,1.1449,0,280,280,309,1,,,5bf2f728bd9f150001f6cc42,64391633b72c776bfc549256,2023-04-14_10h02.39.662,PRaM,2021.2.3,Linux x86_64,59.99160118,61b8f3437b89212fae0dfade
3,2.9236,space,1.2833,0,281,281,116,1,,,5bf2f728bd9f150001f6cc42,64391633b72c776bfc549256,2023-04-14_10h02.39.662,PRaM,2021.2.3,Linux x86_64,59.99160118,61b8f3437b89212fae0dfade
2,2.5305,space,0.8774,0,282,282,2,1,,,5bf2f728bd9f150001f6cc42,64391633b72c776bfc549256,2023-04-14_10h02.39.662,PRaM,2021.2.3,Linux x86_64,59.99160118,61b8f3437b89212fae0dfade
6,3.2418,space,1.6009,0,283,283,269,1,,,5bf2f728bd9f150001f6cc42,64391633b72c776bfc549256,2023-04-14_10h02.39.662,PRaM,2021.2.3,Linux x86_64,59.99160118,61b8f3437b89212fae0dfade
7,2.6131,space,0.9329,0,284,284,20,1,,,5bf2f728bd9f150001f6cc42,64391633b72c776bfc549256,2023-04-14_10h02.39.662,PRaM,2021.2.3,Linux x86_64,59.99160118,61b8f3437b89212fae0dfade
7,2.597,space,0.8683,0,285,285,86,1,,,5bf2f728bd9f150001f6cc42,64391633b72c776bfc549256,2023-04-14_10h02.39.662,PRaM,2021.2.3,Linux x86_64,59.99160118,61b8f3437b89212fae0dfade
2,2.5132,space,0.8124,0,286,286,27,1,,,5bf2f728bd9f150001f6cc42,64391633b72c776bfc549256,2023-04-14_10h02.39.662,PRaM,2021.2.3,Linux x86_64,59.99160118,61b8f3437b89212fae0dfade
1,2.3866,space,0.6916,0,287,287,247,1,,,5bf2f728bd9f150001f6cc42,64391633b72c776bfc549256,2023-04-14_10h02.39.662,PRaM,2021.2.3,Linux x86_64,59.99160118,61b8f3437b89212fae0dfade
1,2.7802,space,1.1011,0,288,288,50,1,,,5bf2f728bd9f150001f6cc42,64391633b72c776bfc549256,2023-04-14_10h02.39.662,PRaM,2021.2.3,Linux x86_64,59.99160118,61b8f3437b89212fae0dfade
7,4.2824,space,2.5692,0,289,289,168,1,,,5bf2f728bd9f150001f6cc42,64391633b72c776bfc549256,2023-04-14_10h02.39.662,PRaM,2021.2.3,Linux x86_64,59.99160118,61b8f3437b89212fae0dfade
3,3.0299,space,1.3132,0,290,290,191,1,,,5bf2f728bd9f150001f6cc42,64391633b72c776bfc549256,2023-04-14_10h02.39.662,PRaM,2021.2.3,Linux x86_64,59.99160118,61b8f3437b89212fae0dfade
7,2.7727,space,1.0842,0,291,291,182,1,,,5bf2f728bd9f150001f6cc42,64391633b72c776bfc549256,2023-04-14_10h02.39.662,PRaM,2021.2.3,Linux x86_64,59.99160118,61b8f3437b89212fae0dfade
6,2.4972,space,0.7298,0,292,292,358,1,,,5bf2f728bd9f150001f6cc42,64391633b72c776bfc549256,2023-04-14_10h02.39.662,PRaM,2021.2.3,Linux x86_64,59.99160118,61b8f3437b89212fae0dfade
5,2.4299,space,0.7231,0,293,293,21,1,,,5bf2f728bd9f150001f6cc42,64391633b72c776bfc549256,2023-04-14_10h02.39.662,PRaM,2021.2.3,Linux x86_64,59.99160118,61b8f3437b89212fae0dfade
6,2.6956,space,0.9268,0,294,294,255,1,,,5bf2f728bd9f150001f6cc42,64391633b72c776bfc549256,2023-04-14_10h02.39.662,PRaM,2021.2.3,Linux x86_64,59.99160118,61b8f3437b89212fae0dfade
3,2.5618,space,0.8033,0,295,295,315,1,,,5bf2f728bd9f150001f6cc42,64391633b72c776bfc549256,2023-04-14_10h02.39.662,PRaM,2021.2.3,Linux x86_64,59.99160118,61b8f3437b89212fae0dfade
2,2.4185,space,0.6513,0,296,296,23,1,,,5bf2f728bd9f150001f6cc42,64391633b72c776bfc549256,2023-04-14_10h02.39.662,PRaM,2021.2.3,Linux x86_64,59.99160118,61b8f3437b89212fae0dfade
6,2.1466,space,0.4675,0,297,297,228,1,,,5bf2f728bd9f150001f6cc42,64391633b72c776bfc549256,2023-04-14_10h02.39.662,PRaM,2021.2.3,Linux x86_64,59.99160118,61b8f3437b89212fae0dfade
1,2.9575,space,1.3035,0,298,298,130,1,,,5bf2f728bd9f150001f6cc42,64391633b72c776bfc549256,2023-04-14_10h02.39.662,PRaM,2021.2.3,Linux x86_64,59.99160118,61b8f3437b89212fae0dfade
2,2.5794,space,0.8304,0,299,299,156,1,,,5bf2f728bd9f150001f6cc42,64391633b72c776bfc549256,2023-04-14_10h02.39.662,PRaM,2021.2.3,Linux x86_64,59.99160118,61b8f3437b89212fae0dfade
7,2.4297,space,0.7177,0,300,300,192,1,,,5bf2f728bd9f150001f6cc42,64391633b72c776bfc549256,2023-04-14_10h02.39.662,PRaM,2021.2.3,Linux x86_64,59.99160118,61b8f3437b89212fae0dfade
1,2.1828,space,0.4191,0,301,301,312,1,,,5bf2f728bd9f150001f6cc42,64391633b72c776bfc549256,2023-04-14_10h02.39.662,PRaM,2021.2.3,Linux x86_64,59.99160118,61b8f3437b89212fae0dfade
7,2.6142,space,0.9247,0,302,302,305,1,,,5bf2f728bd9f150001f6cc42,64391633b72c776bfc549256,2023-04-14_10h02.39.662,PRaM,2021.2.3,Linux x86_64,59.99160118,61b8f3437b89212fae0dfade
3,2.2922,space,0.5264,0,303,303,371,1,,,5bf2f728bd9f150001f6cc42,64391633b72c776bfc549256,2023-04-14_10h02.39.662,PRaM,2021.2.3,Linux x86_64,59.99160118,61b8f3437b89212fae0dfade
6,2.1883,space,0.3979,0,304,304,119,1,,,5bf2f728bd9f150001f6cc42,64391633b72c776bfc549256,2023-04-14_10h02.39.662,PRaM,2021.2.3,Linux x86_64,59.99160118,61b8f3437b89212fae0dfade
3,2.2282,space,0.5212,0,305,305,187,1,,,5bf2f728bd9f150001f6cc42,64391633b72c776bfc549256,2023-04-14_10h02.39.662,PRaM,2021.2.3,Linux x86_64,59.99160118,61b8f3437b89212fae0dfade
4,3.3593,space,1.5895,0,306,306,163,1,,,5bf2f728bd9f150001f6cc42,64391633b72c776bfc549256,2023-04-14_10h02.39.662,PRaM,2021.2.3,Linux x86_64,59.99160118,61b8f3437b89212fae0dfade
4,2.2124,space,0.3929,0,307,307,252,1,,,5bf2f728bd9f150001f6cc42,64391633b72c776bfc549256,2023-04-14_10h02.39.662,PRaM,2021.2.3,Linux x86_64,59.99160118,61b8f3437b89212fae0dfade
5,2.2458,space,0.5341,0,308,308,199,1,,,5bf2f728bd9f150001f6cc42,64391633b72c776bfc549256,2023-04-14_10h02.39.662,PRaM,2021.2.3,Linux x86_64,59.99160118,61b8f3437b89212fae0dfade
3,2.3943,space,0.6466,0,309,309,82,1,,,5bf2f728bd9f150001f6cc42,64391633b72c776bfc549256,2023-04-14_10h02.39.662,PRaM,2021.2.3,Linux x86_64,59.99160118,61b8f3437b89212fae0dfade
4,2.6139,space,0.7991,0,310,310,81,1,,,5bf2f728bd9f150001f6cc42,64391633b72c776bfc549256,2023-04-14_10h02.39.662,PRaM,2021.2.3,Linux x86_64,59.99160118,61b8f3437b89212fae0dfade
6,3.2733,space,1.5115,0,311,311,151,1,,,5bf2f728bd9f150001f6cc42,64391633b72c776bfc549256,2023-04-14_10h02.39.662,PRaM,2021.2.3,Linux x86_64,59.99160118,61b8f3437b89212fae0dfade
2,3.1814,space,1.3587,0,312,312,111,1,,,5bf2f728bd9f150001f6cc42,64391633b72c776bfc549256,2023-04-14_10h02.39.662,PRaM,2021.2.3,Linux x86_64,59.99160118,61b8f3437b89212fae0dfade
2,79.1884,space,79.6186,0,313,313,176,1,,,5bf2f728bd9f150001f6cc42,64391633b72c776bfc549256,2023-04-14_10h02.39.662,PRaM,2021.2.3,Linux x86_64,59.99160118,61b8f3437b89212fae0dfade
3,2.1545,space,0.2769,0,314,314,48,1,,,5bf2f728bd9f150001f6cc42,64391633b72c776bfc549256,2023-04-14_10h02.39.662,PRaM,2021.2.3,Linux x86_64,59.99160118,61b8f3437b89212fae0dfade
8,2.6068,space,0.8014,0,315,315,197,1,,,5bf2f728bd9f150001f6cc42,64391633b72c776bfc549256,2023-04-14_10h02.39.662,PRaM,2021.2.3,Linux x86_64,59.99160118,61b8f3437b89212fae0dfade
3,2.6068,space,0.8653,0,316,316,257,1,,,5bf2f728bd9f150001f6cc42,64391633b72c776bfc549256,2023-04-14_10h02.39.662,PRaM,2021.2.3,Linux x86_64,59.99160118,61b8f3437b89212fae0dfade
1,2.5289,space,0.7349,0,317,317,290,1,,,5bf2f728bd9f150001f6cc42,64391633b72c776bfc549256,2023-04-14_10h02.39.662,PRaM,2021.2.3,Linux x86_64,59.99160118,61b8f3437b89212fae0dfade
2,2.4632,space,0.5561,0,318,318,9,1,,,5bf2f728bd9f150001f6cc42,64391633b72c776bfc549256,2023-04-14_10h02.39.662,PRaM,2021.2.3,Linux x86_64,59.99160118,61b8f3437b89212fae0dfade
6,3.0398,space,1.3038,0,319,319,180,1,,,5bf2f728bd9f150001f6cc42,64391633b72c776bfc549256,2023-04-14_10h02.39.662,PRaM,2021.2.3,Linux x86_64,59.99160118,61b8f3437b89212fae0dfade
3,2.296,space,0.6912,0,320,320,204,1,,,5bf2f728bd9f150001f6cc42,64391633b72c776bfc549256,2023-04-14_10h02.39.662,PRaM,2021.2.3,Linux x86_64,59.99160118,61b8f3437b89212fae0dfade
2,3.4887,space,1.5855,0,321,321,36,1,,,5bf2f728bd9f150001f6cc42,64391633b72c776bfc549256,2023-04-14_10h02.39.662,PRaM,2021.2.3,Linux x86_64,59.99160118,61b8f3437b89212fae0dfade
6,3.1462,space,1.3683,0,322,322,69,1,,,5bf2f728bd9f150001f6cc42,64391633b72c776bfc549256,2023-04-14_10h02.39.662,PRaM,2021.2.3,Linux x86_64,59.99160118,61b8f3437b89212fae0dfade
5,2.4477,space,0.6339,0,323,323,88,1,,,5bf2f728bd9f150001f6cc42,64391633b72c776bfc549256,2023-04-14_10h02.39.662,PRaM,2021.2.3,Linux x86_64,59.99160118,61b8f3437b89212fae0dfade
6,2.0646,space,0.3525,0,324,324,256,1,,,5bf2f728bd9f150001f6cc42,64391633b72c776bfc549256,2023-04-14_10h02.39.662,PRaM,2021.2.3,Linux x86_64,59.99160118,61b8f3437b89212fae0dfade
6,2.6568,space,0.8225,0,325,325,268,1,,,5bf2f728bd9f150001f6cc42,64391633b72c776bfc549256,2023-04-14_10h02.39.662,PRaM,2021.2.3,Linux x86_64,59.99160118,61b8f3437b89212fae0dfade
2,2.6644,space,0.831,0,326,326,8,1,,,5bf2f728bd9f150001f6cc42,64391633b72c776bfc549256,2023-04-14_10h02.39.662,PRaM,2021.2.3,Linux x86_64,59.99160118,61b8f3437b89212fae0dfade
4,2.6412,space,0.9811,0,327,327,155,1,,,5bf2f728bd9f150001f6cc42,64391633b72c776bfc549256,2023-04-14_10h02.39.662,PRaM,2021.2.3,Linux x86_64,59.99160118,61b8f3437b89212fae0dfade
5,2.4437,space,0.5944,0,328,328,157,1,,,5bf2f728bd9f150001f6cc42,64391633b72c776bfc549256,2023-04-14_10h02.39.662,PRaM,2021.2.3,Linux x86_64,59.99160118,61b8f3437b89212fae0dfade
4,2.3251,space,0.5608,0,329,329,76,1,,,5bf2f728bd9f150001f6cc42,64391633b72c776bfc549256,2023-04-14_10h02.39.662,PRaM,2021.2.3,Linux x86_64,59.99160118,61b8f3437b89212fae0dfade
2,3.2387,space,1.5099,0,330,330,65,1,,,5bf2f728bd9f150001f6cc42,64391633b72c776bfc549256,2023-04-14_10h02.39.662,PRaM,2021.2.3,Linux x86_64,59.99160118,61b8f3437b89212fae0dfade
2,2.7426,space,0.951,0,331,331,236,1,,,5bf2f728bd9f150001f6cc42,64391633b72c776bfc549256,2023-04-14_10h02.39.662,PRaM,2021.2.3,Linux x86_64,59.99160118,61b8f3437b89212fae0dfade
3,3.0964,space,1.3519,0,332,332,167,1,,,5bf2f728bd9f150001f6cc42,64391633b72c776bfc549256,2023-04-14_10h02.39.662,PRaM,2021.2.3,Linux x86_64,59.99160118,61b8f3437b89212fae0dfade
7,2.7082,space,0.9524,0,333,333,208,1,,,5bf2f728bd9f150001f6cc42,64391633b72c776bfc549256,2023-04-14_10h02.39.662,PRaM,2021.2.3,Linux x86_64,59.99160118,61b8f3437b89212fae0dfade
3,2.3629,space,0.5865,0,334,334,161,1,,,5bf2f728bd9f150001f6cc42,64391633b72c776bfc549256,2023-04-14_10h02.39.662,PRaM,2021.2.3,Linux x86_64,59.99160118,61b8f3437b89212fae0dfade
6,2.9924,space,1.2691,0,335,335,226,1,,,5bf2f728bd9f150001f6cc42,64391633b72c776bfc549256,2023-04-14_10h02.39.662,PRaM,2021.2.3,Linux x86_64,59.99160118,61b8f3437b89212fae0dfade
3,2.3095,space,0.47,0,336,336,26,1,,,5bf2f728bd9f150001f6cc42,64391633b72c776bfc549256,2023-04-14_10h02.39.662,PRaM,2021.2.3,Linux x86_64,59.99160118,61b8f3437b89212fae0dfade
6,2.6302,space,0.9343,0,337,337,352,1,,,5bf2f728bd9f150001f6cc42,64391633b72c776bfc549256,2023-04-14_10h02.39.662,PRaM,2021.2.3,Linux x86_64,59.99160118,61b8f3437b89212fae0dfade
6,2.7465,space,0.9269,0,338,338,194,1,,,5bf2f728bd9f150001f6cc42,64391633b72c776bfc549256,2023-04-14_10h02.39.662,PRaM,2021.2.3,Linux x86_64,59.99160118,61b8f3437b89212fae0dfade
7,2.3632,space,0.5827,0,339,339,288,1,,,5bf2f728bd9f150001f6cc42,64391633b72c776bfc549256,2023-04-14_10h02.39.662,PRaM,2021.2.3,Linux x86_64,59.99160118,61b8f3437b89212fae0dfade
4,2.8223,space,0.9652,0,340,340,281,1,,,5bf2f728bd9f150001f6cc42,64391633b72c776bfc549256,2023-04-14_10h02.39.662,PRaM,2021.2.3,Linux x86_64,59.99160118,61b8f3437b89212fae0dfade
3,2.4523,space,0.5695,0,341,341,327,1,,,5bf2f728bd9f150001f6cc42,64391633b72c776bfc549256,2023-04-14_10h02.39.662,PRaM,2021.2.3,Linux x86_64,59.99160118,61b8f3437b89212fae0dfade
4,2.4497,space,0.5517,0,342,342,93,1,,,5bf2f728bd9f150001f6cc42,64391633b72c776bfc549256,2023-04-14_10h02.39.662,PRaM,2021.2.3,Linux x86_64,59.99160118,61b8f3437b89212fae0dfade
7,2.3556,space,0.5339,0,343,343,112,1,,,5bf2f728bd9f150001f6cc42,64391633b72c776bfc549256,2023-04-14_10h02.39.662,PRaM,2021.2.3,Linux x86_64,59.99160118,61b8f3437b89212fae0dfade
7,2.1306,space,0.3194,0,344,344,196,1,,,5bf2f728bd9f150001f6cc42,64391633b72c776bfc549256,2023-04-14_10h02.39.662,PRaM,2021.2.3,Linux x86_64,59.99160118,61b8f3437b89212fae0dfade
5,2.3801,space,0.5375,0,345,345,365,1,,,5bf2f728bd9f150001f6cc42,64391633b72c776bfc549256,2023-04-14_10h02.39.662,PRaM,2021.2.3,Linux x86_64,59.99160118,61b8f3437b89212fae0dfade
4,2.5623,space,0.7209,0,346,346,19,1,,,5bf2f728bd9f150001f6cc42,64391633b72c776bfc549256,2023-04-14_10h02.39.662,PRaM,2021.2.3,Linux x86_64,59.99160118,61b8f3437b89212fae0dfade
2,2.6363,space,0.8527,0,347,347,54,1,,,5bf2f728bd9f150001f6cc42,64391633b72c776bfc549256,2023-04-14_10h02.39.662,PRaM,2021.2.3,Linux x86_64,59.99160118,61b8f3437b89212fae0dfade
5,2.5448,space,0.7194,0,348,348,132,1,,,5bf2f728bd9f150001f6cc42,64391633b72c776bfc549256,2023-04-14_10h02.39.662,PRaM,2021.2.3,Linux x86_64,59.99160118,61b8f3437b89212fae0dfade
3,2.5391,space,0.7179,0,349,349,94,1,,,5bf2f728bd9f150001f6cc42,64391633b72c776bfc549256,2023-04-14_10h02.39.662,PRaM,2021.2.3,Linux x86_64,59.99160118,61b8f3437b89212fae0dfade
1,2.3286,space,0.5205,0,350,350,91,1,,,5bf2f728bd9f150001f6cc42,64391633b72c776bfc549256,2023-04-14_10h02.39.662,PRaM,2021.2.3,Linux x86_64,59.99160118,61b8f3437b89212fae0dfade
9,4.4419,space,2.9678,0,351,351,53,1,,,5bf2f728bd9f150001f6cc42,64391633b72c776bfc549256,2023-04-14_10h02.39.662,PRaM,2021.2.3,Linux x86_64,59.99160118,61b8f3437b89212fae0dfade
8,2.4775,space,0.8007,0,352,352,83,1,,,5bf2f728bd9f150001f6cc42,64391633b72c776bfc549256,2023-04-14_10h02.39.662,PRaM,2021.2.3,Linux x86_64,59.99160118,61b8f3437b89212fae0dfade
2,2.7299,space,1.4021,0,353,353,1,1,,,5bf2f728bd9f150001f6cc42,64391633b72c776bfc549256,2023-04-14_10h02.39.662,PRaM,2021.2.3,Linux x86_64,59.99160118,61b8f3437b89212fae0dfade
3,2.1635,space,0.5852,0,354,354,265,1,,,5bf2f728bd9f150001f6cc42,64391633b72c776bfc549256,2023-04-14_10h02.39.662,PRaM,2021.2.3,Linux x86_64,59.99160118,61b8f3437b89212fae0dfade
1,3.263,space,1.6694,0,355,355,330,1,,,5bf2f728bd9f150001f6cc42,64391633b72c776bfc549256,2023-04-14_10h02.39.662,PRaM,2021.2.3,Linux x86_64,59.99160118,61b8f3437b89212fae0dfade
6,2.2342,space,0.5342,0,356,356,38,1,,,5bf2f728bd9f150001f6cc42,64391633b72c776bfc549256,2023-04-14_10h02.39.662,PRaM,2021.2.3,Linux x86_64,59.99160118,61b8f3437b89212fae0dfade
3,2.4117,space,0.5704,0,357,357,273,1,,,5bf2f728bd9f150001f6cc42,64391633b72c776bfc549256,2023-04-14_10h02.39.662,PRaM,2021.2.3,Linux x86_64,59.99160118,61b8f3437b89212fae0dfade
6,2.3294,space,0.5352,0,358,358,233,1,,,5bf2f728bd9f150001f6cc42,64391633b72c776bfc549256,2023-04-14_10h02.39.662,PRaM,2021.2.3,Linux x86_64,59.99160118,61b8f3437b89212fae0dfade
2,2.6796,space,0.8695,0,359,359,10,1,,,5bf2f728bd9f150001f6cc42,64391633b72c776bfc549256,2023-04-14_10h02.39.662,PRaM,2021.2.3,Linux x86_64,59.99160118,61b8f3437b89212fae0dfade
6,2.3123,space,0.6347,0,360,360,307,1,,,5bf2f728bd9f150001f6cc42,64391633b72c776bfc549256,2023-04-14_10h02.39.662,PRaM,2021.2.3,Linux x86_64,59.99160118,61b8f3437b89212fae0dfade
4,3.0738,space,1.3398,0,361,361,334,1,,,5bf2f728bd9f150001f6cc42,64391633b72c776bfc549256,2023-04-14_10h02.39.662,PRaM,2021.2.3,Linux x86_64,59.99160118,61b8f3437b89212fae0dfade
4,2.1757,space,0.3529,0,362,362,43,1,,,5bf2f728bd9f150001f6cc42,64391633b72c776bfc549256,2023-04-14_10h02.39.662,PRaM,2021.2.3,Linux x86_64,59.99160118,61b8f3437b89212fae0dfade
3,2.3357,space,0.6205,0,363,363,322,1,,,5bf2f728bd9f150001f6cc42,64391633b72c776bfc549256,2023-04-14_10h02.39.662,PRaM,2021.2.3,Linux x86_64,59.99160118,61b8f3437b89212fae0dfade
5,2.1505,space,0.6337,0,364,364,350,1,,,5bf2f728bd9f150001f6cc42,64391633b72c776bfc549256,2023-04-14_10h02.39.662,PRaM,2021.2.3,Linux x86_64,59.99160118,61b8f3437b89212fae0dfade
7,2.6214,space,0.9243,0,365,365,277,1,,,5bf2f728bd9f150001f6cc42,64391633b72c776bfc549256,2023-04-14_10h02.39.662,PRaM,2021.2.3,Linux x86_64,59.99160118,61b8f3437b89212fae0dfade
6,2.6221,space,0.9029,0,366,366,328,1,,,5bf2f728bd9f150001f6cc42,64391633b72c776bfc549256,2023-04-14_10h02.39.662,PRaM,2021.2.3,Linux x86_64,59.99160118,61b8f3437b89212fae0dfade
6,1.9454,space,0.2402,0,367,367,142,1,,,5bf2f728bd9f150001f6cc42,64391633b72c776bfc549256,2023-04-14_10h02.39.662,PRaM,2021.2.3,Linux x86_64,59.99160118,61b8f3437b89212fae0dfade
6,2.1961,space,0.4699,0,368,368,345,1,,,5bf2f728bd9f150001f6cc42,64391633b72c776bfc549256,2023-04-14_10h02.39.662,PRaM,2021.2.3,Linux x86_64,59.99160118,61b8f3437b89212fae0dfade
2,2.613,space,0.7352,0,369,369,39,1,,,5bf2f728bd9f150001f6cc42,64391633b72c776bfc549256,2023-04-14_10h02.39.662,PRaM,2021.2.3,Linux x86_64,59.99160118,61b8f3437b89212fae0dfade
4,2.9627,space,1.3256,0,370,370,318,1,,,5bf2f728bd9f150001f6cc42,64391633b72c776bfc549256,2023-04-14_10h02.39.662,PRaM,2021.2.3,Linux x86_64,59.99160118,61b8f3437b89212fae0dfade
4,2.5299,space,0.7995,0,371,371,179,1,,,5bf2f728bd9f150001f6cc42,64391633b72c776bfc549256,2023-04-14_10h02.39.662,PRaM,2021.2.3,Linux x86_64,59.99160118,61b8f3437b89212fae0dfade
3,2.2127,space,0.2787,0,372,372,63,1,,,5bf2f728bd9f150001f6cc42,64391633b72c776bfc549256,2023-04-14_10h02.39.662,PRaM,2021.2.3,Linux x86_64,59.99160118,61b8f3437b89212fae0dfade
5,2.2949,space,0.5481,0,373,373,29,1,,,5bf2f728bd9f150001f6cc42,64391633b72c776bfc549256,2023-04-14_10h02.39.662,PRaM,2021.2.3,Linux x86_64,59.99160118,61b8f3437b89212fae0dfade
3,3.0389,space,1.3367,0,374,374,317,1,,,5bf2f728bd9f150001f6cc42,64391633b72c776bfc549256,2023-04-14_10h02.39.662,PRaM,2021.2.3,Linux x86_64,59.99160118,61b8f3437b89212fae0dfade
2,2.913,space,1.2005,0,375,375,138,1,,,5bf2f728bd9f150001f6cc42,64391633b72c776bfc549256,2023-04-14_10h02.39.662,PRaM,2021.2.3,Linux x86_64,59.99160118,61b8f3437b89212fae0dfade
1,2.266,space,0.5235,0,376,376,24,1,,,5bf2f728bd9f150001f6cc42,64391633b72c776bfc549256,2023-04-14_10h02.39.662,PRaM,2021.2.3,Linux x86_64,59.99160118,61b8f3437b89212fae0dfade
5,2.4951,space,0.6836,0,377,377,301,1,,,5bf2f728bd9f150001f6cc42,64391633b72c776bfc549256,2023-04-14_10h02.39.662,PRaM,2021.2.3,Linux x86_64,59.99160118,61b8f3437b89212fae0dfade
