Rating.response,Rating.rt,EndTrial.keys,EndTrial.rt,trials.thisRepN,trials.thisTrialN,trials.thisN,trials.thisIndex,trials.ran,Pos1,Pos2,participant,session,date,expName,psychopyVersion,OS,frameRate,study_id
1,5.241,space,8.772,0,0,0,9,1,,,5c5cad3e4ee81200018eafe2,64391625bd68fab662220628,04-14-2023_10h01.16.545,PRaM,2021.2.3,Win32,59.95203837,61b8f3437b89212fae0dfadf
1,7.358,space,7.209,0,1,1,194,1,,,5c5cad3e4ee81200018eafe2,64391625bd68fab662220628,04-14-2023_10h01.16.545,PRaM,2021.2.3,Win32,59.95203837,61b8f3437b89212fae0dfadf
4,7.519,space,7.393,0,2,2,83,1,,,5c5cad3e4ee81200018eafe2,64391625bd68fab662220628,04-14-2023_10h01.16.545,PRaM,2021.2.3,Win32,59.95203837,61b8f3437b89212fae0dfadf
1,4.851,space,3.972,0,3,3,26,1,,,5c5cad3e4ee81200018eafe2,64391625bd68fab662220628,04-14-2023_10h01.16.545,PRaM,2021.2.3,Win32,59.95203837,61b8f3437b89212fae0dfadf
6,3.883,space,4.008,0,4,4,16,1,,,5c5cad3e4ee81200018eafe2,64391625bd68fab662220628,04-14-2023_10h01.16.545,PRaM,2021.2.3,Win32,59.95203837,61b8f3437b89212fae0dfadf
4,4.732,space,3.875,0,5,5,375,1,,,5c5cad3e4ee81200018eafe2,64391625bd68fab662220628,04-14-2023_10h01.16.545,PRaM,2021.2.3,Win32,59.95203837,61b8f3437b89212fae0dfadf
7,4.195,space,5.208,0,6,6,199,1,,,5c5cad3e4ee81200018eafe2,64391625bd68fab662220628,04-14-2023_10h01.16.545,PRaM,2021.2.3,Win32,59.95203837,61b8f3437b89212fae0dfadf
5,7.668,space,6.726,0,7,7,297,1,,,5c5cad3e4ee81200018eafe2,64391625bd68fab662220628,04-14-2023_10h01.16.545,PRaM,2021.2.3,Win32,59.95203837,61b8f3437b89212fae0dfadf
7,3.782,space,2.873,0,8,8,213,1,,,5c5cad3e4ee81200018eafe2,64391625bd68fab662220628,04-14-2023_10h01.16.545,PRaM,2021.2.3,Win32,59.95203837,61b8f3437b89212fae0dfadf
1,7.125,space,5.824,0,9,9,292,1,,,5c5cad3e4ee81200018eafe2,64391625bd68fab662220628,04-14-2023_10h01.16.545,PRaM,2021.2.3,Win32,59.95203837,61b8f3437b89212fae0dfadf
2,9.424,space,7.944,0,10,10,224,1,,,5c5cad3e4ee81200018eafe2,64391625bd68fab662220628,04-14-2023_10h01.16.545,PRaM,2021.2.3,Win32,59.95203837,61b8f3437b89212fae0dfadf
8,3.23,space,2.955,0,11,11,38,1,,,5c5cad3e4ee81200018eafe2,64391625bd68fab662220628,04-14-2023_10h01.16.545,PRaM,2021.2.3,Win32,59.95203837,61b8f3437b89212fae0dfadf
6,3.213,space,2.155,0,12,12,270,1,,,5c5cad3e4ee81200018eafe2,64391625bd68fab662220628,04-14-2023_10h01.16.545,PRaM,2021.2.3,Win32,59.95203837,61b8f3437b89212fae0dfadf
6,5.465,space,4.188,0,13,13,260,1,,,5c5cad3e4ee81200018eafe2,64391625bd68fab662220628,04-14-2023_10h01.16.545,PRaM,2021.2.3,Win32,59.95203837,61b8f3437b89212fae0dfadf
1,2.713,space,2.573,0,14,14,107,1,,,5c5cad3e4ee81200018eafe2,64391625bd68fab662220628,04-14-2023_10h01.16.545,PRaM,2021.2.3,Win32,59.95203837,61b8f3437b89212fae0dfadf
4,7.184,space,7.03,0,15,15,64,1,,,5c5cad3e4ee81200018eafe2,64391625bd68fab662220628,04-14-2023_10h01.16.545,PRaM,2021.2.3,Win32,59.95203837,61b8f3437b89212fae0dfadf
2,6.716,space,5.523,0,16,16,157,1,,,5c5cad3e4ee81200018eafe2,64391625bd68fab662220628,04-14-2023_10h01.16.545,PRaM,2021.2.3,Win32,59.95203837,61b8f3437b89212fae0dfadf
9,6.736,space,5.727,0,17,17,53,1,,,5c5cad3e4ee81200018eafe2,64391625bd68fab662220628,04-14-2023_10h01.16.545,PRaM,2021.2.3,Win32,59.95203837,61b8f3437b89212fae0dfadf
6,3.581,space,2.488,0,18,18,154,1,,,5c5cad3e4ee81200018eafe2,64391625bd68fab662220628,04-14-2023_10h01.16.545,PRaM,2021.2.3,Win32,59.95203837,61b8f3437b89212fae0dfadf
9,4.032,space,3.326,0,19,19,320,1,,,5c5cad3e4ee81200018eafe2,64391625bd68fab662220628,04-14-2023_10h01.16.545,PRaM,2021.2.3,Win32,59.95203837,61b8f3437b89212fae0dfadf
1,7.739,space,6.493,0,20,20,220,1,,,5c5cad3e4ee81200018eafe2,64391625bd68fab662220628,04-14-2023_10h01.16.545,PRaM,2021.2.3,Win32,59.95203837,61b8f3437b89212fae0dfadf
8,2.697,space,8.094,0,21,21,118,1,,,5c5cad3e4ee81200018eafe2,64391625bd68fab662220628,04-14-2023_10h01.16.545,PRaM,2021.2.3,Win32,59.95203837,61b8f3437b89212fae0dfadf
3,6.367,space,5.241,0,22,22,69,1,,,5c5cad3e4ee81200018eafe2,64391625bd68fab662220628,04-14-2023_10h01.16.545,PRaM,2021.2.3,Win32,59.95203837,61b8f3437b89212fae0dfadf
1,4.701,space,3.439,0,23,23,229,1,,,5c5cad3e4ee81200018eafe2,64391625bd68fab662220628,04-14-2023_10h01.16.545,PRaM,2021.2.3,Win32,59.95203837,61b8f3437b89212fae0dfadf
8,4.683,space,3.456,0,24,24,291,1,,,5c5cad3e4ee81200018eafe2,64391625bd68fab662220628,04-14-2023_10h01.16.545,PRaM,2021.2.3,Win32,59.95203837,61b8f3437b89212fae0dfadf
1,3.498,space,3.141,0,25,25,251,1,,,5c5cad3e4ee81200018eafe2,64391625bd68fab662220628,04-14-2023_10h01.16.545,PRaM,2021.2.3,Win32,59.95203837,61b8f3437b89212fae0dfadf
1,3.615,space,2.355,0,26,26,55,1,,,5c5cad3e4ee81200018eafe2,64391625bd68fab662220628,04-14-2023_10h01.16.545,PRaM,2021.2.3,Win32,59.95203837,61b8f3437b89212fae0dfadf
5,5.318,space,4.39,0,27,27,305,1,,,5c5cad3e4ee81200018eafe2,64391625bd68fab662220628,04-14-2023_10h01.16.545,PRaM,2021.2.3,Win32,59.95203837,61b8f3437b89212fae0dfadf
7,5.251,space,4.006,0,28,28,85,1,,,5c5cad3e4ee81200018eafe2,64391625bd68fab662220628,04-14-2023_10h01.16.545,PRaM,2021.2.3,Win32,59.95203837,61b8f3437b89212fae0dfadf
2,6.87,space,5.475,0,29,29,308,1,,,5c5cad3e4ee81200018eafe2,64391625bd68fab662220628,04-14-2023_10h01.16.545,PRaM,2021.2.3,Win32,59.95203837,61b8f3437b89212fae0dfadf
6,2.745,space,1.914,0,30,30,361,1,,,5c5cad3e4ee81200018eafe2,64391625bd68fab662220628,04-14-2023_10h01.16.545,PRaM,2021.2.3,Win32,59.95203837,61b8f3437b89212fae0dfadf
3,3.023,space,1.839,0,31,31,262,1,,,5c5cad3e4ee81200018eafe2,64391625bd68fab662220628,04-14-2023_10h01.16.545,PRaM,2021.2.3,Win32,59.95203837,61b8f3437b89212fae0dfadf
1,5.365,space,4.39,0,32,32,89,1,,,5c5cad3e4ee81200018eafe2,64391625bd68fab662220628,04-14-2023_10h01.16.545,PRaM,2021.2.3,Win32,59.95203837,61b8f3437b89212fae0dfadf
1,3.648,space,6.575,0,33,33,203,1,,,5c5cad3e4ee81200018eafe2,64391625bd68fab662220628,04-14-2023_10h01.16.545,PRaM,2021.2.3,Win32,59.95203837,61b8f3437b89212fae0dfadf
1,2.814,space,3.338,0,34,34,217,1,,,5c5cad3e4ee81200018eafe2,64391625bd68fab662220628,04-14-2023_10h01.16.545,PRaM,2021.2.3,Win32,59.95203837,61b8f3437b89212fae0dfadf
2,4.299,space,2.893,0,35,35,172,1,,,5c5cad3e4ee81200018eafe2,64391625bd68fab662220628,04-14-2023_10h01.16.545,PRaM,2021.2.3,Win32,59.95203837,61b8f3437b89212fae0dfadf
1,4.396,space,3.541,0,36,36,283,1,,,5c5cad3e4ee81200018eafe2,64391625bd68fab662220628,04-14-2023_10h01.16.545,PRaM,2021.2.3,Win32,59.95203837,61b8f3437b89212fae0dfadf
1,3.514,space,2.756,0,37,37,109,1,,,5c5cad3e4ee81200018eafe2,64391625bd68fab662220628,04-14-2023_10h01.16.545,PRaM,2021.2.3,Win32,59.95203837,61b8f3437b89212fae0dfadf
6,5.469,space,4.757,0,38,38,236,1,,,5c5cad3e4ee81200018eafe2,64391625bd68fab662220628,04-14-2023_10h01.16.545,PRaM,2021.2.3,Win32,59.95203837,61b8f3437b89212fae0dfadf
3,9.456,space,8.094,0,39,39,145,1,,,5c5cad3e4ee81200018eafe2,64391625bd68fab662220628,04-14-2023_10h01.16.545,PRaM,2021.2.3,Win32,59.95203837,61b8f3437b89212fae0dfadf
2,3.365,space,2.387,0,40,40,343,1,,,5c5cad3e4ee81200018eafe2,64391625bd68fab662220628,04-14-2023_10h01.16.545,PRaM,2021.2.3,Win32,59.95203837,61b8f3437b89212fae0dfadf
1,4.014,space,2.819,0,41,41,185,1,,,5c5cad3e4ee81200018eafe2,64391625bd68fab662220628,04-14-2023_10h01.16.545,PRaM,2021.2.3,Win32,59.95203837,61b8f3437b89212fae0dfadf
6,8.908,space,7.495,0,42,42,317,1,,,5c5cad3e4ee81200018eafe2,64391625bd68fab662220628,04-14-2023_10h01.16.545,PRaM,2021.2.3,Win32,59.95203837,61b8f3437b89212fae0dfadf
3,6.416,space,5.023,0,43,43,131,1,,,5c5cad3e4ee81200018eafe2,64391625bd68fab662220628,04-14-2023_10h01.16.545,PRaM,2021.2.3,Win32,59.95203837,61b8f3437b89212fae0dfadf
7,5.053,space,3.591,0,44,44,355,1,,,5c5cad3e4ee81200018eafe2,64391625bd68fab662220628,04-14-2023_10h01.16.545,PRaM,2021.2.3,Win32,59.95203837,61b8f3437b89212fae0dfadf
6,8.407,space,7.012,0,45,45,348,1,,,5c5cad3e4ee81200018eafe2,64391625bd68fab662220628,04-14-2023_10h01.16.545,PRaM,2021.2.3,Win32,59.95203837,61b8f3437b89212fae0dfadf
2,4.931,space,4.29,0,46,46,314,1,,,5c5cad3e4ee81200018eafe2,64391625bd68fab662220628,04-14-2023_10h01.16.545,PRaM,2021.2.3,Win32,59.95203837,61b8f3437b89212fae0dfadf
7,7.067,space,6.157,0,47,47,134,1,,,5c5cad3e4ee81200018eafe2,64391625bd68fab662220628,04-14-2023_10h01.16.545,PRaM,2021.2.3,Win32,59.95203837,61b8f3437b89212fae0dfadf
1,3.832,space,2.521,0,48,48,92,1,,,5c5cad3e4ee81200018eafe2,64391625bd68fab662220628,04-14-2023_10h01.16.545,PRaM,2021.2.3,Win32,59.95203837,61b8f3437b89212fae0dfadf
1,6.221,space,5.091,0,49,49,187,1,,,5c5cad3e4ee81200018eafe2,64391625bd68fab662220628,04-14-2023_10h01.16.545,PRaM,2021.2.3,Win32,59.95203837,61b8f3437b89212fae0dfadf
7,3.499,space,2.474,0,50,50,267,1,,,5c5cad3e4ee81200018eafe2,64391625bd68fab662220628,04-14-2023_10h01.16.545,PRaM,2021.2.3,Win32,59.95203837,61b8f3437b89212fae0dfadf
1,4.951,space,4.139,0,51,51,95,1,,,5c5cad3e4ee81200018eafe2,64391625bd68fab662220628,04-14-2023_10h01.16.545,PRaM,2021.2.3,Win32,59.95203837,61b8f3437b89212fae0dfadf
6,5.55,space,6.343,0,52,52,37,1,,,5c5cad3e4ee81200018eafe2,64391625bd68fab662220628,04-14-2023_10h01.16.545,PRaM,2021.2.3,Win32,59.95203837,61b8f3437b89212fae0dfadf
8,3.464,space,2.59,0,53,53,331,1,,,5c5cad3e4ee81200018eafe2,64391625bd68fab662220628,04-14-2023_10h01.16.545,PRaM,2021.2.3,Win32,59.95203837,61b8f3437b89212fae0dfadf
6,4.081,space,3.305,0,54,54,263,1,,,5c5cad3e4ee81200018eafe2,64391625bd68fab662220628,04-14-2023_10h01.16.545,PRaM,2021.2.3,Win32,59.95203837,61b8f3437b89212fae0dfadf
1,7.503,space,6.659,0,55,55,63,1,,,5c5cad3e4ee81200018eafe2,64391625bd68fab662220628,04-14-2023_10h01.16.545,PRaM,2021.2.3,Win32,59.95203837,61b8f3437b89212fae0dfadf
6,6.653,space,5.726,0,56,56,156,1,,,5c5cad3e4ee81200018eafe2,64391625bd68fab662220628,04-14-2023_10h01.16.545,PRaM,2021.2.3,Win32,59.95203837,61b8f3437b89212fae0dfadf
1,4.765,space,4.224,0,57,57,329,1,,,5c5cad3e4ee81200018eafe2,64391625bd68fab662220628,04-14-2023_10h01.16.545,PRaM,2021.2.3,Win32,59.95203837,61b8f3437b89212fae0dfadf
7,3.945,space,2.939,0,58,58,370,1,,,5c5cad3e4ee81200018eafe2,64391625bd68fab662220628,04-14-2023_10h01.16.545,PRaM,2021.2.3,Win32,59.95203837,61b8f3437b89212fae0dfadf
2,8.208,space,6.915,0,59,59,238,1,,,5c5cad3e4ee81200018eafe2,64391625bd68fab662220628,04-14-2023_10h01.16.545,PRaM,2021.2.3,Win32,59.95203837,61b8f3437b89212fae0dfadf
6,4.164,space,2.938,0,60,60,344,1,,,5c5cad3e4ee81200018eafe2,64391625bd68fab662220628,04-14-2023_10h01.16.545,PRaM,2021.2.3,Win32,59.95203837,61b8f3437b89212fae0dfadf
1,3.782,space,2.772,0,61,61,71,1,,,5c5cad3e4ee81200018eafe2,64391625bd68fab662220628,04-14-2023_10h01.16.545,PRaM,2021.2.3,Win32,59.95203837,61b8f3437b89212fae0dfadf
7,8.184,space,7.862,0,62,62,301,1,,,5c5cad3e4ee81200018eafe2,64391625bd68fab662220628,04-14-2023_10h01.16.545,PRaM,2021.2.3,Win32,59.95203837,61b8f3437b89212fae0dfadf
1,3.246,space,2.272,0,63,63,49,1,,,5c5cad3e4ee81200018eafe2,64391625bd68fab662220628,04-14-2023_10h01.16.545,PRaM,2021.2.3,Win32,59.95203837,61b8f3437b89212fae0dfadf
1,4.481,space,3.924,0,64,64,94,1,,,5c5cad3e4ee81200018eafe2,64391625bd68fab662220628,04-14-2023_10h01.16.545,PRaM,2021.2.3,Win32,59.95203837,61b8f3437b89212fae0dfadf
6,10.373,space,14.236,0,65,65,76,1,,,5c5cad3e4ee81200018eafe2,64391625bd68fab662220628,04-14-2023_10h01.16.545,PRaM,2021.2.3,Win32,59.95203837,61b8f3437b89212fae0dfadf
1,3.046,space,1.856,0,66,66,190,1,,,5c5cad3e4ee81200018eafe2,64391625bd68fab662220628,04-14-2023_10h01.16.545,PRaM,2021.2.3,Win32,59.95203837,61b8f3437b89212fae0dfadf
1,6.765,space,5.808,0,67,67,257,1,,,5c5cad3e4ee81200018eafe2,64391625bd68fab662220628,04-14-2023_10h01.16.545,PRaM,2021.2.3,Win32,59.95203837,61b8f3437b89212fae0dfadf
8,2.683,space,2.192,0,68,68,173,1,,,5c5cad3e4ee81200018eafe2,64391625bd68fab662220628,04-14-2023_10h01.16.545,PRaM,2021.2.3,Win32,59.95203837,61b8f3437b89212fae0dfadf
3,7.985,space,7.009,0,69,69,369,1,,,5c5cad3e4ee81200018eafe2,64391625bd68fab662220628,04-14-2023_10h01.16.545,PRaM,2021.2.3,Win32,59.95203837,61b8f3437b89212fae0dfadf
8,3.665,space,4.34,0,70,70,14,1,,,5c5cad3e4ee81200018eafe2,64391625bd68fab662220628,04-14-2023_10h01.16.545,PRaM,2021.2.3,Win32,59.95203837,61b8f3437b89212fae0dfadf
1,2.953,space,1.955,0,71,71,28,1,,,5c5cad3e4ee81200018eafe2,64391625bd68fab662220628,04-14-2023_10h01.16.545,PRaM,2021.2.3,Win32,59.95203837,61b8f3437b89212fae0dfadf
8,3.95,space,2.807,0,72,72,60,1,,,5c5cad3e4ee81200018eafe2,64391625bd68fab662220628,04-14-2023_10h01.16.545,PRaM,2021.2.3,Win32,59.95203837,61b8f3437b89212fae0dfadf
1,2.995,space,2.574,0,73,73,113,1,,,5c5cad3e4ee81200018eafe2,64391625bd68fab662220628,04-14-2023_10h01.16.545,PRaM,2021.2.3,Win32,59.95203837,61b8f3437b89212fae0dfadf
1,3.335,space,2.176,0,74,74,111,1,,,5c5cad3e4ee81200018eafe2,64391625bd68fab662220628,04-14-2023_10h01.16.545,PRaM,2021.2.3,Win32,59.95203837,61b8f3437b89212fae0dfadf
9,3.747,space,3.327,0,75,75,323,1,,,5c5cad3e4ee81200018eafe2,64391625bd68fab662220628,04-14-2023_10h01.16.545,PRaM,2021.2.3,Win32,59.95203837,61b8f3437b89212fae0dfadf
7,6.351,space,5.307,0,76,76,209,1,,,5c5cad3e4ee81200018eafe2,64391625bd68fab662220628,04-14-2023_10h01.16.545,PRaM,2021.2.3,Win32,59.95203837,61b8f3437b89212fae0dfadf
3,8.005,space,6.926,0,77,77,183,1,,,5c5cad3e4ee81200018eafe2,64391625bd68fab662220628,04-14-2023_10h01.16.545,PRaM,2021.2.3,Win32,59.95203837,61b8f3437b89212fae0dfadf
7,10.871,space,9.38,0,78,78,304,1,,,5c5cad3e4ee81200018eafe2,64391625bd68fab662220628,04-14-2023_10h01.16.545,PRaM,2021.2.3,Win32,59.95203837,61b8f3437b89212fae0dfadf
8,4.884,space,3.792,0,79,79,110,1,,,5c5cad3e4ee81200018eafe2,64391625bd68fab662220628,04-14-2023_10h01.16.545,PRaM,2021.2.3,Win32,59.95203837,61b8f3437b89212fae0dfadf
8,3.982,space,2.62,0,80,80,17,1,,,5c5cad3e4ee81200018eafe2,64391625bd68fab662220628,04-14-2023_10h01.16.545,PRaM,2021.2.3,Win32,59.95203837,61b8f3437b89212fae0dfadf
7,9.572,space,8.428,0,81,81,84,1,,,5c5cad3e4ee81200018eafe2,64391625bd68fab662220628,04-14-2023_10h01.16.545,PRaM,2021.2.3,Win32,59.95203837,61b8f3437b89212fae0dfadf
1,3.312,space,2.105,0,82,82,81,1,,,5c5cad3e4ee81200018eafe2,64391625bd68fab662220628,04-14-2023_10h01.16.545,PRaM,2021.2.3,Win32,59.95203837,61b8f3437b89212fae0dfadf
1,5.266,space,4.01,0,83,83,367,1,,,5c5cad3e4ee81200018eafe2,64391625bd68fab662220628,04-14-2023_10h01.16.545,PRaM,2021.2.3,Win32,59.95203837,61b8f3437b89212fae0dfadf
4,9.987,space,8.928,0,84,84,43,1,,,5c5cad3e4ee81200018eafe2,64391625bd68fab662220628,04-14-2023_10h01.16.545,PRaM,2021.2.3,Win32,59.95203837,61b8f3437b89212fae0dfadf
7,3.666,space,2.923,0,85,85,4,1,,,5c5cad3e4ee81200018eafe2,64391625bd68fab662220628,04-14-2023_10h01.16.545,PRaM,2021.2.3,Win32,59.95203837,61b8f3437b89212fae0dfadf
6,10.69,space,9.231,0,86,86,86,1,,,5c5cad3e4ee81200018eafe2,64391625bd68fab662220628,04-14-2023_10h01.16.545,PRaM,2021.2.3,Win32,59.95203837,61b8f3437b89212fae0dfadf
1,2.56,space,1.688,0,87,87,68,1,,,5c5cad3e4ee81200018eafe2,64391625bd68fab662220628,04-14-2023_10h01.16.545,PRaM,2021.2.3,Win32,59.95203837,61b8f3437b89212fae0dfadf
1,6.652,space,5.475,0,88,88,356,1,,,5c5cad3e4ee81200018eafe2,64391625bd68fab662220628,04-14-2023_10h01.16.545,PRaM,2021.2.3,Win32,59.95203837,61b8f3437b89212fae0dfadf
7,2.796,space,1.653,0,89,89,142,1,,,5c5cad3e4ee81200018eafe2,64391625bd68fab662220628,04-14-2023_10h01.16.545,PRaM,2021.2.3,Win32,59.95203837,61b8f3437b89212fae0dfadf
6,4.631,space,3.423,0,90,90,298,1,,,5c5cad3e4ee81200018eafe2,64391625bd68fab662220628,04-14-2023_10h01.16.545,PRaM,2021.2.3,Win32,59.95203837,61b8f3437b89212fae0dfadf
1,2.869,space,1.739,0,91,91,91,1,,,5c5cad3e4ee81200018eafe2,64391625bd68fab662220628,04-14-2023_10h01.16.545,PRaM,2021.2.3,Win32,59.95203837,61b8f3437b89212fae0dfadf
8,2.884,space,1.771,0,92,92,280,1,,,5c5cad3e4ee81200018eafe2,64391625bd68fab662220628,04-14-2023_10h01.16.545,PRaM,2021.2.3,Win32,59.95203837,61b8f3437b89212fae0dfadf
1,3.485,space,2.438,0,93,93,1,1,,,5c5cad3e4ee81200018eafe2,64391625bd68fab662220628,04-14-2023_10h01.16.545,PRaM,2021.2.3,Win32,59.95203837,61b8f3437b89212fae0dfadf
6,4.017,space,3.976,0,94,94,135,1,,,5c5cad3e4ee81200018eafe2,64391625bd68fab662220628,04-14-2023_10h01.16.545,PRaM,2021.2.3,Win32,59.95203837,61b8f3437b89212fae0dfadf
7,3.63,space,2.571,0,95,95,136,1,,,5c5cad3e4ee81200018eafe2,64391625bd68fab662220628,04-14-2023_10h01.16.545,PRaM,2021.2.3,Win32,59.95203837,61b8f3437b89212fae0dfadf
1,4.7,space,3.472,0,96,96,124,1,,,5c5cad3e4ee81200018eafe2,64391625bd68fab662220628,04-14-2023_10h01.16.545,PRaM,2021.2.3,Win32,59.95203837,61b8f3437b89212fae0dfadf
6,5.285,space,3.94,0,97,97,228,1,,,5c5cad3e4ee81200018eafe2,64391625bd68fab662220628,04-14-2023_10h01.16.545,PRaM,2021.2.3,Win32,59.95203837,61b8f3437b89212fae0dfadf
7,3.898,space,2.787,0,98,98,281,1,,,5c5cad3e4ee81200018eafe2,64391625bd68fab662220628,04-14-2023_10h01.16.545,PRaM,2021.2.3,Win32,59.95203837,61b8f3437b89212fae0dfadf
6,5.664,space,4.341,0,99,99,168,1,,,5c5cad3e4ee81200018eafe2,64391625bd68fab662220628,04-14-2023_10h01.16.545,PRaM,2021.2.3,Win32,59.95203837,61b8f3437b89212fae0dfadf
3,6.271,space,5.076,0,100,100,296,1,,,5c5cad3e4ee81200018eafe2,64391625bd68fab662220628,04-14-2023_10h01.16.545,PRaM,2021.2.3,Win32,59.95203837,61b8f3437b89212fae0dfadf
7,4.199,space,3.073,0,101,101,319,1,,,5c5cad3e4ee81200018eafe2,64391625bd68fab662220628,04-14-2023_10h01.16.545,PRaM,2021.2.3,Win32,59.95203837,61b8f3437b89212fae0dfadf
3,13.661,space,12.298,0,102,102,119,1,,,5c5cad3e4ee81200018eafe2,64391625bd68fab662220628,04-14-2023_10h01.16.545,PRaM,2021.2.3,Win32,59.95203837,61b8f3437b89212fae0dfadf
4,5.086,space,3.722,0,103,103,102,1,,,5c5cad3e4ee81200018eafe2,64391625bd68fab662220628,04-14-2023_10h01.16.545,PRaM,2021.2.3,Win32,59.95203837,61b8f3437b89212fae0dfadf
1,3.362,space,2.169,0,104,104,130,1,,,5c5cad3e4ee81200018eafe2,64391625bd68fab662220628,04-14-2023_10h01.16.545,PRaM,2021.2.3,Win32,59.95203837,61b8f3437b89212fae0dfadf
3,11.473,space,10.228,0,105,105,6,1,,,5c5cad3e4ee81200018eafe2,64391625bd68fab662220628,04-14-2023_10h01.16.545,PRaM,2021.2.3,Win32,59.95203837,61b8f3437b89212fae0dfadf
8,2.615,space,1.402,0,106,106,20,1,,,5c5cad3e4ee81200018eafe2,64391625bd68fab662220628,04-14-2023_10h01.16.545,PRaM,2021.2.3,Win32,59.95203837,61b8f3437b89212fae0dfadf
1,3.13,space,1.854,0,107,107,266,1,,,5c5cad3e4ee81200018eafe2,64391625bd68fab662220628,04-14-2023_10h01.16.545,PRaM,2021.2.3,Win32,59.95203837,61b8f3437b89212fae0dfadf
7,6.536,space,5.141,0,108,108,294,1,,,5c5cad3e4ee81200018eafe2,64391625bd68fab662220628,04-14-2023_10h01.16.545,PRaM,2021.2.3,Win32,59.95203837,61b8f3437b89212fae0dfadf
1,2.114,space,1.17,0,109,109,67,1,,,5c5cad3e4ee81200018eafe2,64391625bd68fab662220628,04-14-2023_10h01.16.545,PRaM,2021.2.3,Win32,59.95203837,61b8f3437b89212fae0dfadf
7,2.761,space,3.592,0,110,110,278,1,,,5c5cad3e4ee81200018eafe2,64391625bd68fab662220628,04-14-2023_10h01.16.545,PRaM,2021.2.3,Win32,59.95203837,61b8f3437b89212fae0dfadf
1,10.288,space,9.635,0,111,111,253,1,,,5c5cad3e4ee81200018eafe2,64391625bd68fab662220628,04-14-2023_10h01.16.545,PRaM,2021.2.3,Win32,59.95203837,61b8f3437b89212fae0dfadf
1,5.998,space,4.756,0,112,112,18,1,,,5c5cad3e4ee81200018eafe2,64391625bd68fab662220628,04-14-2023_10h01.16.545,PRaM,2021.2.3,Win32,59.95203837,61b8f3437b89212fae0dfadf
1,2.462,space,1.704,0,113,113,371,1,,,5c5cad3e4ee81200018eafe2,64391625bd68fab662220628,04-14-2023_10h01.16.545,PRaM,2021.2.3,Win32,59.95203837,61b8f3437b89212fae0dfadf
7,3.23,space,4.389,0,114,114,259,1,,,5c5cad3e4ee81200018eafe2,64391625bd68fab662220628,04-14-2023_10h01.16.545,PRaM,2021.2.3,Win32,59.95203837,61b8f3437b89212fae0dfadf
8,2.65,space,1.487,0,115,115,279,1,,,5c5cad3e4ee81200018eafe2,64391625bd68fab662220628,04-14-2023_10h01.16.545,PRaM,2021.2.3,Win32,59.95203837,61b8f3437b89212fae0dfadf
7,4.231,space,2.821,0,116,116,219,1,,,5c5cad3e4ee81200018eafe2,64391625bd68fab662220628,04-14-2023_10h01.16.545,PRaM,2021.2.3,Win32,59.95203837,61b8f3437b89212fae0dfadf
8,4.647,space,3.405,0,117,117,221,1,,,5c5cad3e4ee81200018eafe2,64391625bd68fab662220628,04-14-2023_10h01.16.545,PRaM,2021.2.3,Win32,59.95203837,61b8f3437b89212fae0dfadf
7,4.016,space,3.856,0,118,118,72,1,,,5c5cad3e4ee81200018eafe2,64391625bd68fab662220628,04-14-2023_10h01.16.545,PRaM,2021.2.3,Win32,59.95203837,61b8f3437b89212fae0dfadf
1,2.63,space,1.452,0,119,119,316,1,,,5c5cad3e4ee81200018eafe2,64391625bd68fab662220628,04-14-2023_10h01.16.545,PRaM,2021.2.3,Win32,59.95203837,61b8f3437b89212fae0dfadf
2,4.517,space,3.307,0,120,120,254,1,,,5c5cad3e4ee81200018eafe2,64391625bd68fab662220628,04-14-2023_10h01.16.545,PRaM,2021.2.3,Win32,59.95203837,61b8f3437b89212fae0dfadf
6,3.295,space,4.962,0,121,121,29,1,,,5c5cad3e4ee81200018eafe2,64391625bd68fab662220628,04-14-2023_10h01.16.545,PRaM,2021.2.3,Win32,59.95203837,61b8f3437b89212fae0dfadf
6,4.147,space,2.82,0,122,122,216,1,,,5c5cad3e4ee81200018eafe2,64391625bd68fab662220628,04-14-2023_10h01.16.545,PRaM,2021.2.3,Win32,59.95203837,61b8f3437b89212fae0dfadf
1,2.746,space,1.555,0,123,123,101,1,,,5c5cad3e4ee81200018eafe2,64391625bd68fab662220628,04-14-2023_10h01.16.545,PRaM,2021.2.3,Win32,59.95203837,61b8f3437b89212fae0dfadf
1,2.143,space,0.872,0,124,124,362,1,,,5c5cad3e4ee81200018eafe2,64391625bd68fab662220628,04-14-2023_10h01.16.545,PRaM,2021.2.3,Win32,59.95203837,61b8f3437b89212fae0dfadf
1,5.734,space,6.227,0,125,125,73,1,,,5c5cad3e4ee81200018eafe2,64391625bd68fab662220628,04-14-2023_10h01.16.545,PRaM,2021.2.3,Win32,59.95203837,61b8f3437b89212fae0dfadf
6,4.997,space,3.739,0,126,126,364,1,,,5c5cad3e4ee81200018eafe2,64391625bd68fab662220628,04-14-2023_10h01.16.545,PRaM,2021.2.3,Win32,59.95203837,61b8f3437b89212fae0dfadf
1,2.845,space,1.621,0,127,127,41,1,,,5c5cad3e4ee81200018eafe2,64391625bd68fab662220628,04-14-2023_10h01.16.545,PRaM,2021.2.3,Win32,59.95203837,61b8f3437b89212fae0dfadf
8,3.681,space,2.61,0,128,128,42,1,,,5c5cad3e4ee81200018eafe2,64391625bd68fab662220628,04-14-2023_10h01.16.545,PRaM,2021.2.3,Win32,59.95203837,61b8f3437b89212fae0dfadf
3,3.798,space,3.22,0,129,129,288,1,,,5c5cad3e4ee81200018eafe2,64391625bd68fab662220628,04-14-2023_10h01.16.545,PRaM,2021.2.3,Win32,59.95203837,61b8f3437b89212fae0dfadf
3,8.388,space,6.926,0,130,130,98,1,,,5c5cad3e4ee81200018eafe2,64391625bd68fab662220628,04-14-2023_10h01.16.545,PRaM,2021.2.3,Win32,59.95203837,61b8f3437b89212fae0dfadf
4,8.354,space,7.093,0,131,131,347,1,,,5c5cad3e4ee81200018eafe2,64391625bd68fab662220628,04-14-2023_10h01.16.545,PRaM,2021.2.3,Win32,59.95203837,61b8f3437b89212fae0dfadf
1,2.478,space,1.386,0,132,132,376,1,,,5c5cad3e4ee81200018eafe2,64391625bd68fab662220628,04-14-2023_10h01.16.545,PRaM,2021.2.3,Win32,59.95203837,61b8f3437b89212fae0dfadf
1,3.447,space,2.557,0,133,133,2,1,,,5c5cad3e4ee81200018eafe2,64391625bd68fab662220628,04-14-2023_10h01.16.545,PRaM,2021.2.3,Win32,59.95203837,61b8f3437b89212fae0dfadf
7,3.746,space,2.36,0,134,134,264,1,,,5c5cad3e4ee81200018eafe2,64391625bd68fab662220628,04-14-2023_10h01.16.545,PRaM,2021.2.3,Win32,59.95203837,61b8f3437b89212fae0dfadf
1,3.564,space,2.681,0,135,135,125,1,,,5c5cad3e4ee81200018eafe2,64391625bd68fab662220628,04-14-2023_10h01.16.545,PRaM,2021.2.3,Win32,59.95203837,61b8f3437b89212fae0dfadf
7,4.644,space,3.405,0,136,136,51,1,,,5c5cad3e4ee81200018eafe2,64391625bd68fab662220628,04-14-2023_10h01.16.545,PRaM,2021.2.3,Win32,59.95203837,61b8f3437b89212fae0dfadf
8,4.531,space,3.237,0,137,137,363,1,,,5c5cad3e4ee81200018eafe2,64391625bd68fab662220628,04-14-2023_10h01.16.545,PRaM,2021.2.3,Win32,59.95203837,61b8f3437b89212fae0dfadf
7,3.466,space,2.039,0,138,138,327,1,,,5c5cad3e4ee81200018eafe2,64391625bd68fab662220628,04-14-2023_10h01.16.545,PRaM,2021.2.3,Win32,59.95203837,61b8f3437b89212fae0dfadf
6,8.131,space,6.825,0,139,139,141,1,,,5c5cad3e4ee81200018eafe2,64391625bd68fab662220628,04-14-2023_10h01.16.545,PRaM,2021.2.3,Win32,59.95203837,61b8f3437b89212fae0dfadf
1,2.895,space,1.637,0,140,140,338,1,,,5c5cad3e4ee81200018eafe2,64391625bd68fab662220628,04-14-2023_10h01.16.545,PRaM,2021.2.3,Win32,59.95203837,61b8f3437b89212fae0dfadf
2,5.852,space,4.506,0,141,141,274,1,,,5c5cad3e4ee81200018eafe2,64391625bd68fab662220628,04-14-2023_10h01.16.545,PRaM,2021.2.3,Win32,59.95203837,61b8f3437b89212fae0dfadf
1,2.834,space,1.853,0,142,142,129,1,,,5c5cad3e4ee81200018eafe2,64391625bd68fab662220628,04-14-2023_10h01.16.545,PRaM,2021.2.3,Win32,59.95203837,61b8f3437b89212fae0dfadf
1,2.696,space,1.872,0,143,143,234,1,,,5c5cad3e4ee81200018eafe2,64391625bd68fab662220628,04-14-2023_10h01.16.545,PRaM,2021.2.3,Win32,59.95203837,61b8f3437b89212fae0dfadf
6,5.637,space,4.322,0,144,144,255,1,,,5c5cad3e4ee81200018eafe2,64391625bd68fab662220628,04-14-2023_10h01.16.545,PRaM,2021.2.3,Win32,59.95203837,61b8f3437b89212fae0dfadf
6,2.563,space,3.474,0,145,145,59,1,,,5c5cad3e4ee81200018eafe2,64391625bd68fab662220628,04-14-2023_10h01.16.545,PRaM,2021.2.3,Win32,59.95203837,61b8f3437b89212fae0dfadf
8,3.53,space,3.905,0,146,146,137,1,,,5c5cad3e4ee81200018eafe2,64391625bd68fab662220628,04-14-2023_10h01.16.545,PRaM,2021.2.3,Win32,59.95203837,61b8f3437b89212fae0dfadf
1,3.332,space,1.952,0,147,147,122,1,,,5c5cad3e4ee81200018eafe2,64391625bd68fab662220628,04-14-2023_10h01.16.545,PRaM,2021.2.3,Win32,59.95203837,61b8f3437b89212fae0dfadf
1,1.899,space,0.67,0,148,148,247,1,,,5c5cad3e4ee81200018eafe2,64391625bd68fab662220628,04-14-2023_10h01.16.545,PRaM,2021.2.3,Win32,59.95203837,61b8f3437b89212fae0dfadf
1,2.129,space,0.82,0,149,149,15,1,,,5c5cad3e4ee81200018eafe2,64391625bd68fab662220628,04-14-2023_10h01.16.545,PRaM,2021.2.3,Win32,59.95203837,61b8f3437b89212fae0dfadf
2,3.815,space,3.022,0,150,150,120,1,,,5c5cad3e4ee81200018eafe2,64391625bd68fab662220628,04-14-2023_10h01.16.545,PRaM,2021.2.3,Win32,59.95203837,61b8f3437b89212fae0dfadf
1,3.249,space,5.459,0,151,151,11,1,,,5c5cad3e4ee81200018eafe2,64391625bd68fab662220628,04-14-2023_10h01.16.545,PRaM,2021.2.3,Win32,59.95203837,61b8f3437b89212fae0dfadf
4,7.5,space,6.177,0,152,152,256,1,,,5c5cad3e4ee81200018eafe2,64391625bd68fab662220628,04-14-2023_10h01.16.545,PRaM,2021.2.3,Win32,59.95203837,61b8f3437b89212fae0dfadf
6,6.835,space,5.394,0,153,153,178,1,,,5c5cad3e4ee81200018eafe2,64391625bd68fab662220628,04-14-2023_10h01.16.545,PRaM,2021.2.3,Win32,59.95203837,61b8f3437b89212fae0dfadf
2,6.197,space,5.124,0,154,154,188,1,,,5c5cad3e4ee81200018eafe2,64391625bd68fab662220628,04-14-2023_10h01.16.545,PRaM,2021.2.3,Win32,59.95203837,61b8f3437b89212fae0dfadf
2,2.962,space,1.536,0,155,155,5,1,,,5c5cad3e4ee81200018eafe2,64391625bd68fab662220628,04-14-2023_10h01.16.545,PRaM,2021.2.3,Win32,59.95203837,61b8f3437b89212fae0dfadf
8,9.354,space,8.066,0,156,156,147,1,,,5c5cad3e4ee81200018eafe2,64391625bd68fab662220628,04-14-2023_10h01.16.545,PRaM,2021.2.3,Win32,59.95203837,61b8f3437b89212fae0dfadf
7,2.96,space,1.57,0,157,157,88,1,,,5c5cad3e4ee81200018eafe2,64391625bd68fab662220628,04-14-2023_10h01.16.545,PRaM,2021.2.3,Win32,59.95203837,61b8f3437b89212fae0dfadf
1,2.461,space,1.185,0,158,158,58,1,,,5c5cad3e4ee81200018eafe2,64391625bd68fab662220628,04-14-2023_10h01.16.545,PRaM,2021.2.3,Win32,59.95203837,61b8f3437b89212fae0dfadf
2,4.583,space,3.188,0,159,159,271,1,,,5c5cad3e4ee81200018eafe2,64391625bd68fab662220628,04-14-2023_10h01.16.545,PRaM,2021.2.3,Win32,59.95203837,61b8f3437b89212fae0dfadf
8,3.351,space,2.426,0,160,160,7,1,,,5c5cad3e4ee81200018eafe2,64391625bd68fab662220628,04-14-2023_10h01.16.545,PRaM,2021.2.3,Win32,59.95203837,61b8f3437b89212fae0dfadf
7,4.281,space,2.923,0,161,161,74,1,,,5c5cad3e4ee81200018eafe2,64391625bd68fab662220628,04-14-2023_10h01.16.545,PRaM,2021.2.3,Win32,59.95203837,61b8f3437b89212fae0dfadf
8,2.146,space,1.193,0,162,162,114,1,,,5c5cad3e4ee81200018eafe2,64391625bd68fab662220628,04-14-2023_10h01.16.545,PRaM,2021.2.3,Win32,59.95203837,61b8f3437b89212fae0dfadf
1,2.64,space,1.59,0,163,163,87,1,,,5c5cad3e4ee81200018eafe2,64391625bd68fab662220628,04-14-2023_10h01.16.545,PRaM,2021.2.3,Win32,59.95203837,61b8f3437b89212fae0dfadf
1,2.579,space,1.554,0,164,164,10,1,,,5c5cad3e4ee81200018eafe2,64391625bd68fab662220628,04-14-2023_10h01.16.545,PRaM,2021.2.3,Win32,59.95203837,61b8f3437b89212fae0dfadf
1,4.232,space,3.839,0,165,165,175,1,,,5c5cad3e4ee81200018eafe2,64391625bd68fab662220628,04-14-2023_10h01.16.545,PRaM,2021.2.3,Win32,59.95203837,61b8f3437b89212fae0dfadf
2,2.797,space,1.726,0,166,166,48,1,,,5c5cad3e4ee81200018eafe2,64391625bd68fab662220628,04-14-2023_10h01.16.545,PRaM,2021.2.3,Win32,59.95203837,61b8f3437b89212fae0dfadf
1,2.33,space,1.17,0,167,167,243,1,,,5c5cad3e4ee81200018eafe2,64391625bd68fab662220628,04-14-2023_10h01.16.545,PRaM,2021.2.3,Win32,59.95203837,61b8f3437b89212fae0dfadf
1,2.329,space,1.221,0,168,168,195,1,,,5c5cad3e4ee81200018eafe2,64391625bd68fab662220628,04-14-2023_10h01.16.545,PRaM,2021.2.3,Win32,59.95203837,61b8f3437b89212fae0dfadf
8,2.015,space,0.686,0,169,169,276,1,,,5c5cad3e4ee81200018eafe2,64391625bd68fab662220628,04-14-2023_10h01.16.545,PRaM,2021.2.3,Win32,59.95203837,61b8f3437b89212fae0dfadf
1,2.298,space,1.388,0,170,170,27,1,,,5c5cad3e4ee81200018eafe2,64391625bd68fab662220628,04-14-2023_10h01.16.545,PRaM,2021.2.3,Win32,59.95203837,61b8f3437b89212fae0dfadf
2,3.381,space,2.605,0,171,171,181,1,,,5c5cad3e4ee81200018eafe2,64391625bd68fab662220628,04-14-2023_10h01.16.545,PRaM,2021.2.3,Win32,59.95203837,61b8f3437b89212fae0dfadf
4,7.103,space,5.675,0,172,172,100,1,,,5c5cad3e4ee81200018eafe2,64391625bd68fab662220628,04-14-2023_10h01.16.545,PRaM,2021.2.3,Win32,59.95203837,61b8f3437b89212fae0dfadf
7,3.999,space,2.688,0,173,173,302,1,,,5c5cad3e4ee81200018eafe2,64391625bd68fab662220628,04-14-2023_10h01.16.545,PRaM,2021.2.3,Win32,59.95203837,61b8f3437b89212fae0dfadf
9,3.532,space,3.491,0,174,174,222,1,,,5c5cad3e4ee81200018eafe2,64391625bd68fab662220628,04-14-2023_10h01.16.545,PRaM,2021.2.3,Win32,59.95203837,61b8f3437b89212fae0dfadf
7,2.312,space,0.97,0,175,175,333,1,,,5c5cad3e4ee81200018eafe2,64391625bd68fab662220628,04-14-2023_10h01.16.545,PRaM,2021.2.3,Win32,59.95203837,61b8f3437b89212fae0dfadf
1,2.898,space,2.073,0,176,176,65,1,,,5c5cad3e4ee81200018eafe2,64391625bd68fab662220628,04-14-2023_10h01.16.545,PRaM,2021.2.3,Win32,59.95203837,61b8f3437b89212fae0dfadf
1,2.497,space,2.09,0,177,177,82,1,,,5c5cad3e4ee81200018eafe2,64391625bd68fab662220628,04-14-2023_10h01.16.545,PRaM,2021.2.3,Win32,59.95203837,61b8f3437b89212fae0dfadf
6,6.286,space,4.976,0,178,178,233,1,,,5c5cad3e4ee81200018eafe2,64391625bd68fab662220628,04-14-2023_10h01.16.545,PRaM,2021.2.3,Win32,59.95203837,61b8f3437b89212fae0dfadf
2,4.7,space,3.588,0,179,179,97,1,,,5c5cad3e4ee81200018eafe2,64391625bd68fab662220628,04-14-2023_10h01.16.545,PRaM,2021.2.3,Win32,59.95203837,61b8f3437b89212fae0dfadf
1,4.664,space,3.274,0,180,180,104,1,,,5c5cad3e4ee81200018eafe2,64391625bd68fab662220628,04-14-2023_10h01.16.545,PRaM,2021.2.3,Win32,59.95203837,61b8f3437b89212fae0dfadf
1,3.031,space,1.987,0,181,181,248,1,,,5c5cad3e4ee81200018eafe2,64391625bd68fab662220628,04-14-2023_10h01.16.545,PRaM,2021.2.3,Win32,59.95203837,61b8f3437b89212fae0dfadf
7,3.063,space,1.621,0,182,182,201,1,,,5c5cad3e4ee81200018eafe2,64391625bd68fab662220628,04-14-2023_10h01.16.545,PRaM,2021.2.3,Win32,59.95203837,61b8f3437b89212fae0dfadf
2,6.334,space,4.958,0,183,183,126,1,,,5c5cad3e4ee81200018eafe2,64391625bd68fab662220628,04-14-2023_10h01.16.545,PRaM,2021.2.3,Win32,59.95203837,61b8f3437b89212fae0dfadf
2,15.961,space,14.533,0,184,184,303,1,,,5c5cad3e4ee81200018eafe2,64391625bd68fab662220628,04-14-2023_10h01.16.545,PRaM,2021.2.3,Win32,59.95203837,61b8f3437b89212fae0dfadf
1,2.33,space,1.121,0,185,185,275,1,,,5c5cad3e4ee81200018eafe2,64391625bd68fab662220628,04-14-2023_10h01.16.545,PRaM,2021.2.3,Win32,59.95203837,61b8f3437b89212fae0dfadf
6,5.016,space,3.622,0,186,186,151,1,,,5c5cad3e4ee81200018eafe2,64391625bd68fab662220628,04-14-2023_10h01.16.545,PRaM,2021.2.3,Win32,59.95203837,61b8f3437b89212fae0dfadf
1,2.481,space,1.084,0,187,187,70,1,,,5c5cad3e4ee81200018eafe2,64391625bd68fab662220628,04-14-2023_10h01.16.545,PRaM,2021.2.3,Win32,59.95203837,61b8f3437b89212fae0dfadf
1,2.749,space,1.455,0,188,188,353,1,,,5c5cad3e4ee81200018eafe2,64391625bd68fab662220628,04-14-2023_10h01.16.545,PRaM,2021.2.3,Win32,59.95203837,61b8f3437b89212fae0dfadf
1,2.131,space,0.855,0,189,189,299,1,,,5c5cad3e4ee81200018eafe2,64391625bd68fab662220628,04-14-2023_10h01.16.545,PRaM,2021.2.3,Win32,59.95203837,61b8f3437b89212fae0dfadf
2,3.847,space,2.605,0,190,190,339,1,,,5c5cad3e4ee81200018eafe2,64391625bd68fab662220628,04-14-2023_10h01.16.545,PRaM,2021.2.3,Win32,59.95203837,61b8f3437b89212fae0dfadf
3,2.914,space,2.089,0,191,191,31,1,,,5c5cad3e4ee81200018eafe2,64391625bd68fab662220628,04-14-2023_10h01.16.545,PRaM,2021.2.3,Win32,59.95203837,61b8f3437b89212fae0dfadf
8,5.155,space,13.151,0,192,192,3,1,,,5c5cad3e4ee81200018eafe2,64391625bd68fab662220628,04-14-2023_10h01.16.545,PRaM,2021.2.3,Win32,59.95203837,61b8f3437b89212fae0dfadf
2,5.163,space,4.961,0,193,193,44,1,,,5c5cad3e4ee81200018eafe2,64391625bd68fab662220628,04-14-2023_10h01.16.545,PRaM,2021.2.3,Win32,59.95203837,61b8f3437b89212fae0dfadf
6,3.666,space,2.27,0,194,194,132,1,,,5c5cad3e4ee81200018eafe2,64391625bd68fab662220628,04-14-2023_10h01.16.545,PRaM,2021.2.3,Win32,59.95203837,61b8f3437b89212fae0dfadf
7,5.805,space,4.673,0,195,195,180,1,,,5c5cad3e4ee81200018eafe2,64391625bd68fab662220628,04-14-2023_10h01.16.545,PRaM,2021.2.3,Win32,59.95203837,61b8f3437b89212fae0dfadf
9,3.514,space,2.22,0,196,196,225,1,,,5c5cad3e4ee81200018eafe2,64391625bd68fab662220628,04-14-2023_10h01.16.545,PRaM,2021.2.3,Win32,59.95203837,61b8f3437b89212fae0dfadf
6,3.029,space,1.904,0,197,197,258,1,,,5c5cad3e4ee81200018eafe2,64391625bd68fab662220628,04-14-2023_10h01.16.545,PRaM,2021.2.3,Win32,59.95203837,61b8f3437b89212fae0dfadf
4,3.863,space,2.805,0,198,198,215,1,,,5c5cad3e4ee81200018eafe2,64391625bd68fab662220628,04-14-2023_10h01.16.545,PRaM,2021.2.3,Win32,59.95203837,61b8f3437b89212fae0dfadf
3,5.07,space,4.942,0,199,199,153,1,,,5c5cad3e4ee81200018eafe2,64391625bd68fab662220628,04-14-2023_10h01.16.545,PRaM,2021.2.3,Win32,59.95203837,61b8f3437b89212fae0dfadf
1,3.116,space,2.021,0,200,200,330,1,,,5c5cad3e4ee81200018eafe2,64391625bd68fab662220628,04-14-2023_10h01.16.545,PRaM,2021.2.3,Win32,59.95203837,61b8f3437b89212fae0dfadf
6,3.58,space,3.29,0,201,201,191,1,,,5c5cad3e4ee81200018eafe2,64391625bd68fab662220628,04-14-2023_10h01.16.545,PRaM,2021.2.3,Win32,59.95203837,61b8f3437b89212fae0dfadf
2,4.749,space,3.439,0,202,202,163,1,,,5c5cad3e4ee81200018eafe2,64391625bd68fab662220628,04-14-2023_10h01.16.545,PRaM,2021.2.3,Win32,59.95203837,61b8f3437b89212fae0dfadf
7,2.63,space,2.408,0,203,203,196,1,,,5c5cad3e4ee81200018eafe2,64391625bd68fab662220628,04-14-2023_10h01.16.545,PRaM,2021.2.3,Win32,59.95203837,61b8f3437b89212fae0dfadf
6,4.48,space,3.256,0,204,204,200,1,,,5c5cad3e4ee81200018eafe2,64391625bd68fab662220628,04-14-2023_10h01.16.545,PRaM,2021.2.3,Win32,59.95203837,61b8f3437b89212fae0dfadf
8,2.366,space,1.168,0,205,205,285,1,,,5c5cad3e4ee81200018eafe2,64391625bd68fab662220628,04-14-2023_10h01.16.545,PRaM,2021.2.3,Win32,59.95203837,61b8f3437b89212fae0dfadf
2,3.202,space,1.987,0,206,206,265,1,,,5c5cad3e4ee81200018eafe2,64391625bd68fab662220628,04-14-2023_10h01.16.545,PRaM,2021.2.3,Win32,59.95203837,61b8f3437b89212fae0dfadf
1,2.03,space,1.154,0,207,207,315,1,,,5c5cad3e4ee81200018eafe2,64391625bd68fab662220628,04-14-2023_10h01.16.545,PRaM,2021.2.3,Win32,59.95203837,61b8f3437b89212fae0dfadf
2,3.382,space,2.126,0,208,208,150,1,,,5c5cad3e4ee81200018eafe2,64391625bd68fab662220628,04-14-2023_10h01.16.545,PRaM,2021.2.3,Win32,59.95203837,61b8f3437b89212fae0dfadf
6,5.231,space,3.74,0,209,209,32,1,,,5c5cad3e4ee81200018eafe2,64391625bd68fab662220628,04-14-2023_10h01.16.545,PRaM,2021.2.3,Win32,59.95203837,61b8f3437b89212fae0dfadf
1,4.182,space,2.954,0,210,210,155,1,,,5c5cad3e4ee81200018eafe2,64391625bd68fab662220628,04-14-2023_10h01.16.545,PRaM,2021.2.3,Win32,59.95203837,61b8f3437b89212fae0dfadf
2,12.342,space,10.847,0,211,211,313,1,,,5c5cad3e4ee81200018eafe2,64391625bd68fab662220628,04-14-2023_10h01.16.545,PRaM,2021.2.3,Win32,59.95203837,61b8f3437b89212fae0dfadf
1,1.912,space,0.554,0,212,212,311,1,,,5c5cad3e4ee81200018eafe2,64391625bd68fab662220628,04-14-2023_10h01.16.545,PRaM,2021.2.3,Win32,59.95203837,61b8f3437b89212fae0dfadf
2,6.868,space,5.575,0,213,213,295,1,,,5c5cad3e4ee81200018eafe2,64391625bd68fab662220628,04-14-2023_10h01.16.545,PRaM,2021.2.3,Win32,59.95203837,61b8f3437b89212fae0dfadf
6,4.546,space,4.509,0,214,214,96,1,,,5c5cad3e4ee81200018eafe2,64391625bd68fab662220628,04-14-2023_10h01.16.545,PRaM,2021.2.3,Win32,59.95203837,61b8f3437b89212fae0dfadf
1,2.295,space,1.036,0,215,215,189,1,,,5c5cad3e4ee81200018eafe2,64391625bd68fab662220628,04-14-2023_10h01.16.545,PRaM,2021.2.3,Win32,59.95203837,61b8f3437b89212fae0dfadf
1,2.581,space,1.237,0,216,216,121,1,,,5c5cad3e4ee81200018eafe2,64391625bd68fab662220628,04-14-2023_10h01.16.545,PRaM,2021.2.3,Win32,59.95203837,61b8f3437b89212fae0dfadf
8,2.081,space,0.886,0,217,217,335,1,,,5c5cad3e4ee81200018eafe2,64391625bd68fab662220628,04-14-2023_10h01.16.545,PRaM,2021.2.3,Win32,59.95203837,61b8f3437b89212fae0dfadf
1,4.236,space,2.858,0,218,218,341,1,,,5c5cad3e4ee81200018eafe2,64391625bd68fab662220628,04-14-2023_10h01.16.545,PRaM,2021.2.3,Win32,59.95203837,61b8f3437b89212fae0dfadf
2,4.482,space,3.177,0,219,219,202,1,,,5c5cad3e4ee81200018eafe2,64391625bd68fab662220628,04-14-2023_10h01.16.545,PRaM,2021.2.3,Win32,59.95203837,61b8f3437b89212fae0dfadf
8,2.43,space,1.888,0,220,220,140,1,,,5c5cad3e4ee81200018eafe2,64391625bd68fab662220628,04-14-2023_10h01.16.545,PRaM,2021.2.3,Win32,59.95203837,61b8f3437b89212fae0dfadf
1,2.213,space,0.84,0,221,221,272,1,,,5c5cad3e4ee81200018eafe2,64391625bd68fab662220628,04-14-2023_10h01.16.545,PRaM,2021.2.3,Win32,59.95203837,61b8f3437b89212fae0dfadf
1,3.899,space,2.605,0,222,222,128,1,,,5c5cad3e4ee81200018eafe2,64391625bd68fab662220628,04-14-2023_10h01.16.545,PRaM,2021.2.3,Win32,59.95203837,61b8f3437b89212fae0dfadf
6,2.512,space,1.087,0,223,223,198,1,,,5c5cad3e4ee81200018eafe2,64391625bd68fab662220628,04-14-2023_10h01.16.545,PRaM,2021.2.3,Win32,59.95203837,61b8f3437b89212fae0dfadf
3,4.349,space,3.523,0,224,224,337,1,,,5c5cad3e4ee81200018eafe2,64391625bd68fab662220628,04-14-2023_10h01.16.545,PRaM,2021.2.3,Win32,59.95203837,61b8f3437b89212fae0dfadf
1,3.765,space,2.541,0,225,225,99,1,,,5c5cad3e4ee81200018eafe2,64391625bd68fab662220628,04-14-2023_10h01.16.545,PRaM,2021.2.3,Win32,59.95203837,61b8f3437b89212fae0dfadf
1,2.28,space,1.019,0,226,226,23,1,,,5c5cad3e4ee81200018eafe2,64391625bd68fab662220628,04-14-2023_10h01.16.545,PRaM,2021.2.3,Win32,59.95203837,61b8f3437b89212fae0dfadf
8,3.13,space,2.105,0,227,227,372,1,,,5c5cad3e4ee81200018eafe2,64391625bd68fab662220628,04-14-2023_10h01.16.545,PRaM,2021.2.3,Win32,59.95203837,61b8f3437b89212fae0dfadf
2,5.831,space,4.325,0,228,228,223,1,,,5c5cad3e4ee81200018eafe2,64391625bd68fab662220628,04-14-2023_10h01.16.545,PRaM,2021.2.3,Win32,59.95203837,61b8f3437b89212fae0dfadf
1,6.3,space,4.809,0,229,229,359,1,,,5c5cad3e4ee81200018eafe2,64391625bd68fab662220628,04-14-2023_10h01.16.545,PRaM,2021.2.3,Win32,59.95203837,61b8f3437b89212fae0dfadf
1,2.581,space,1.144,0,230,230,250,1,,,5c5cad3e4ee81200018eafe2,64391625bd68fab662220628,04-14-2023_10h01.16.545,PRaM,2021.2.3,Win32,59.95203837,61b8f3437b89212fae0dfadf
1,2.075,space,0.72,0,231,231,289,1,,,5c5cad3e4ee81200018eafe2,64391625bd68fab662220628,04-14-2023_10h01.16.545,PRaM,2021.2.3,Win32,59.95203837,61b8f3437b89212fae0dfadf
1,2.764,space,1.756,0,232,232,50,1,,,5c5cad3e4ee81200018eafe2,64391625bd68fab662220628,04-14-2023_10h01.16.545,PRaM,2021.2.3,Win32,59.95203837,61b8f3437b89212fae0dfadf
6,10.053,space,8.544,0,233,233,56,1,,,5c5cad3e4ee81200018eafe2,64391625bd68fab662220628,04-14-2023_10h01.16.545,PRaM,2021.2.3,Win32,59.95203837,61b8f3437b89212fae0dfadf
7,5.532,space,4.006,0,234,234,208,1,,,5c5cad3e4ee81200018eafe2,64391625bd68fab662220628,04-14-2023_10h01.16.545,PRaM,2021.2.3,Win32,59.95203837,61b8f3437b89212fae0dfadf
8,4.364,space,3.421,0,235,235,242,1,,,5c5cad3e4ee81200018eafe2,64391625bd68fab662220628,04-14-2023_10h01.16.545,PRaM,2021.2.3,Win32,59.95203837,61b8f3437b89212fae0dfadf
6,2.896,space,1.388,0,236,236,144,1,,,5c5cad3e4ee81200018eafe2,64391625bd68fab662220628,04-14-2023_10h01.16.545,PRaM,2021.2.3,Win32,59.95203837,61b8f3437b89212fae0dfadf
6,2.232,space,0.936,0,237,237,12,1,,,5c5cad3e4ee81200018eafe2,64391625bd68fab662220628,04-14-2023_10h01.16.545,PRaM,2021.2.3,Win32,59.95203837,61b8f3437b89212fae0dfadf
7,2.534,space,1.104,0,238,238,105,1,,,5c5cad3e4ee81200018eafe2,64391625bd68fab662220628,04-14-2023_10h01.16.545,PRaM,2021.2.3,Win32,59.95203837,61b8f3437b89212fae0dfadf
2,4.465,space,3.354,0,239,239,309,1,,,5c5cad3e4ee81200018eafe2,64391625bd68fab662220628,04-14-2023_10h01.16.545,PRaM,2021.2.3,Win32,59.95203837,61b8f3437b89212fae0dfadf
7,3.714,space,2.27,0,240,240,61,1,,,5c5cad3e4ee81200018eafe2,64391625bd68fab662220628,04-14-2023_10h01.16.545,PRaM,2021.2.3,Win32,59.95203837,61b8f3437b89212fae0dfadf
1,3.749,space,2.305,0,241,241,227,1,,,5c5cad3e4ee81200018eafe2,64391625bd68fab662220628,04-14-2023_10h01.16.545,PRaM,2021.2.3,Win32,59.95203837,61b8f3437b89212fae0dfadf
7,2.097,space,1.004,0,242,242,0,1,,,5c5cad3e4ee81200018eafe2,64391625bd68fab662220628,04-14-2023_10h01.16.545,PRaM,2021.2.3,Win32,59.95203837,61b8f3437b89212fae0dfadf
1,3.997,space,2.687,0,243,243,161,1,,,5c5cad3e4ee81200018eafe2,64391625bd68fab662220628,04-14-2023_10h01.16.545,PRaM,2021.2.3,Win32,59.95203837,61b8f3437b89212fae0dfadf
1,1.945,space,0.618,0,244,244,290,1,,,5c5cad3e4ee81200018eafe2,64391625bd68fab662220628,04-14-2023_10h01.16.545,PRaM,2021.2.3,Win32,59.95203837,61b8f3437b89212fae0dfadf
7,2.529,space,1.086,0,245,245,350,1,,,5c5cad3e4ee81200018eafe2,64391625bd68fab662220628,04-14-2023_10h01.16.545,PRaM,2021.2.3,Win32,59.95203837,61b8f3437b89212fae0dfadf
9,4.483,space,3.256,0,246,246,197,1,,,5c5cad3e4ee81200018eafe2,64391625bd68fab662220628,04-14-2023_10h01.16.545,PRaM,2021.2.3,Win32,59.95203837,61b8f3437b89212fae0dfadf
1,2.329,space,1.12,0,247,247,286,1,,,5c5cad3e4ee81200018eafe2,64391625bd68fab662220628,04-14-2023_10h01.16.545,PRaM,2021.2.3,Win32,59.95203837,61b8f3437b89212fae0dfadf
4,5.066,space,3.757,0,248,248,93,1,,,5c5cad3e4ee81200018eafe2,64391625bd68fab662220628,04-14-2023_10h01.16.545,PRaM,2021.2.3,Win32,59.95203837,61b8f3437b89212fae0dfadf
1,2.595,space,1.253,0,249,249,176,1,,,5c5cad3e4ee81200018eafe2,64391625bd68fab662220628,04-14-2023_10h01.16.545,PRaM,2021.2.3,Win32,59.95203837,61b8f3437b89212fae0dfadf
1,2.413,space,1.42,0,250,250,354,1,,,5c5cad3e4ee81200018eafe2,64391625bd68fab662220628,04-14-2023_10h01.16.545,PRaM,2021.2.3,Win32,59.95203837,61b8f3437b89212fae0dfadf
3,4.782,space,3.572,0,251,251,249,1,,,5c5cad3e4ee81200018eafe2,64391625bd68fab662220628,04-14-2023_10h01.16.545,PRaM,2021.2.3,Win32,59.95203837,61b8f3437b89212fae0dfadf
1,2.313,space,0.936,0,252,252,332,1,,,5c5cad3e4ee81200018eafe2,64391625bd68fab662220628,04-14-2023_10h01.16.545,PRaM,2021.2.3,Win32,59.95203837,61b8f3437b89212fae0dfadf
3,4.999,space,3.439,0,253,253,152,1,,,5c5cad3e4ee81200018eafe2,64391625bd68fab662220628,04-14-2023_10h01.16.545,PRaM,2021.2.3,Win32,59.95203837,61b8f3437b89212fae0dfadf
1,3.297,space,2.089,0,254,254,103,1,,,5c5cad3e4ee81200018eafe2,64391625bd68fab662220628,04-14-2023_10h01.16.545,PRaM,2021.2.3,Win32,59.95203837,61b8f3437b89212fae0dfadf
4,5.834,space,5.609,0,255,255,328,1,,,5c5cad3e4ee81200018eafe2,64391625bd68fab662220628,04-14-2023_10h01.16.545,PRaM,2021.2.3,Win32,59.95203837,61b8f3437b89212fae0dfadf
1,2.43,space,1.421,0,256,256,39,1,,,5c5cad3e4ee81200018eafe2,64391625bd68fab662220628,04-14-2023_10h01.16.545,PRaM,2021.2.3,Win32,59.95203837,61b8f3437b89212fae0dfadf
7,3.197,space,8.996,0,257,257,244,1,,,5c5cad3e4ee81200018eafe2,64391625bd68fab662220628,04-14-2023_10h01.16.545,PRaM,2021.2.3,Win32,59.95203837,61b8f3437b89212fae0dfadf
2,3.195,space,2.202,0,258,258,33,1,,,5c5cad3e4ee81200018eafe2,64391625bd68fab662220628,04-14-2023_10h01.16.545,PRaM,2021.2.3,Win32,59.95203837,61b8f3437b89212fae0dfadf
6,4.098,space,2.77,0,259,259,75,1,,,5c5cad3e4ee81200018eafe2,64391625bd68fab662220628,04-14-2023_10h01.16.545,PRaM,2021.2.3,Win32,59.95203837,61b8f3437b89212fae0dfadf
6,3.749,space,2.891,0,260,260,336,1,,,5c5cad3e4ee81200018eafe2,64391625bd68fab662220628,04-14-2023_10h01.16.545,PRaM,2021.2.3,Win32,59.95203837,61b8f3437b89212fae0dfadf
1,2.177,space,0.985,0,261,261,108,1,,,5c5cad3e4ee81200018eafe2,64391625bd68fab662220628,04-14-2023_10h01.16.545,PRaM,2021.2.3,Win32,59.95203837,61b8f3437b89212fae0dfadf
1,1.98,space,0.536,0,262,262,52,1,,,5c5cad3e4ee81200018eafe2,64391625bd68fab662220628,04-14-2023_10h01.16.545,PRaM,2021.2.3,Win32,59.95203837,61b8f3437b89212fae0dfadf
3,8.054,space,6.775,0,263,263,160,1,,,5c5cad3e4ee81200018eafe2,64391625bd68fab662220628,04-14-2023_10h01.16.545,PRaM,2021.2.3,Win32,59.95203837,61b8f3437b89212fae0dfadf
1,2.831,space,1.569,0,264,264,184,1,,,5c5cad3e4ee81200018eafe2,64391625bd68fab662220628,04-14-2023_10h01.16.545,PRaM,2021.2.3,Win32,59.95203837,61b8f3437b89212fae0dfadf
1,3.8,space,2.605,0,265,265,148,1,,,5c5cad3e4ee81200018eafe2,64391625bd68fab662220628,04-14-2023_10h01.16.545,PRaM,2021.2.3,Win32,59.95203837,61b8f3437b89212fae0dfadf
1,2.463,space,1.105,0,266,266,284,1,,,5c5cad3e4ee81200018eafe2,64391625bd68fab662220628,04-14-2023_10h01.16.545,PRaM,2021.2.3,Win32,59.95203837,61b8f3437b89212fae0dfadf
6,4.013,space,2.902,0,267,267,186,1,,,5c5cad3e4ee81200018eafe2,64391625bd68fab662220628,04-14-2023_10h01.16.545,PRaM,2021.2.3,Win32,59.95203837,61b8f3437b89212fae0dfadf
1,2.815,space,1.637,0,268,268,90,1,,,5c5cad3e4ee81200018eafe2,64391625bd68fab662220628,04-14-2023_10h01.16.545,PRaM,2021.2.3,Win32,59.95203837,61b8f3437b89212fae0dfadf
8,2.33,space,2.005,0,269,269,277,1,,,5c5cad3e4ee81200018eafe2,64391625bd68fab662220628,04-14-2023_10h01.16.545,PRaM,2021.2.3,Win32,59.95203837,61b8f3437b89212fae0dfadf
7,2.68,space,2.105,0,270,270,149,1,,,5c5cad3e4ee81200018eafe2,64391625bd68fab662220628,04-14-2023_10h01.16.545,PRaM,2021.2.3,Win32,59.95203837,61b8f3437b89212fae0dfadf
1,2.513,space,1.205,0,271,271,231,1,,,5c5cad3e4ee81200018eafe2,64391625bd68fab662220628,04-14-2023_10h01.16.545,PRaM,2021.2.3,Win32,59.95203837,61b8f3437b89212fae0dfadf
6,3.18,space,2.638,0,272,272,80,1,,,5c5cad3e4ee81200018eafe2,64391625bd68fab662220628,04-14-2023_10h01.16.545,PRaM,2021.2.3,Win32,59.95203837,61b8f3437b89212fae0dfadf
1,2.135,space,0.907,0,273,273,312,1,,,5c5cad3e4ee81200018eafe2,64391625bd68fab662220628,04-14-2023_10h01.16.545,PRaM,2021.2.3,Win32,59.95203837,61b8f3437b89212fae0dfadf
7,2.542,space,1.103,0,274,274,366,1,,,5c5cad3e4ee81200018eafe2,64391625bd68fab662220628,04-14-2023_10h01.16.545,PRaM,2021.2.3,Win32,59.95203837,61b8f3437b89212fae0dfadf
1,2.197,space,0.953,0,275,275,158,1,,,5c5cad3e4ee81200018eafe2,64391625bd68fab662220628,04-14-2023_10h01.16.545,PRaM,2021.2.3,Win32,59.95203837,61b8f3437b89212fae0dfadf
1,2.532,space,1.254,0,276,276,138,1,,,5c5cad3e4ee81200018eafe2,64391625bd68fab662220628,04-14-2023_10h01.16.545,PRaM,2021.2.3,Win32,59.95203837,61b8f3437b89212fae0dfadf
6,7.019,space,7.593,0,277,277,357,1,,,5c5cad3e4ee81200018eafe2,64391625bd68fab662220628,04-14-2023_10h01.16.545,PRaM,2021.2.3,Win32,59.95203837,61b8f3437b89212fae0dfadf
2,3.349,space,2.457,0,278,278,321,1,,,5c5cad3e4ee81200018eafe2,64391625bd68fab662220628,04-14-2023_10h01.16.545,PRaM,2021.2.3,Win32,59.95203837,61b8f3437b89212fae0dfadf
6,3.198,space,1.758,0,279,279,306,1,,,5c5cad3e4ee81200018eafe2,64391625bd68fab662220628,04-14-2023_10h01.16.545,PRaM,2021.2.3,Win32,59.95203837,61b8f3437b89212fae0dfadf
1,4.315,space,5.893,0,280,280,212,1,,,5c5cad3e4ee81200018eafe2,64391625bd68fab662220628,04-14-2023_10h01.16.545,PRaM,2021.2.3,Win32,59.95203837,61b8f3437b89212fae0dfadf
6,5.133,space,3.673,0,281,281,324,1,,,5c5cad3e4ee81200018eafe2,64391625bd68fab662220628,04-14-2023_10h01.16.545,PRaM,2021.2.3,Win32,59.95203837,61b8f3437b89212fae0dfadf
8,2.28,space,1.17,0,282,282,334,1,,,5c5cad3e4ee81200018eafe2,64391625bd68fab662220628,04-14-2023_10h01.16.545,PRaM,2021.2.3,Win32,59.95203837,61b8f3437b89212fae0dfadf
1,11.055,space,10.631,0,283,283,318,1,,,5c5cad3e4ee81200018eafe2,64391625bd68fab662220628,04-14-2023_10h01.16.545,PRaM,2021.2.3,Win32,59.95203837,61b8f3437b89212fae0dfadf
1,1.879,space,0.385,0,284,284,374,1,,,5c5cad3e4ee81200018eafe2,64391625bd68fab662220628,04-14-2023_10h01.16.545,PRaM,2021.2.3,Win32,59.95203837,61b8f3437b89212fae0dfadf
1,2.346,space,0.803,0,285,285,245,1,,,5c5cad3e4ee81200018eafe2,64391625bd68fab662220628,04-14-2023_10h01.16.545,PRaM,2021.2.3,Win32,59.95203837,61b8f3437b89212fae0dfadf
1,3.295,space,2.439,0,286,286,373,1,,,5c5cad3e4ee81200018eafe2,64391625bd68fab662220628,04-14-2023_10h01.16.545,PRaM,2021.2.3,Win32,59.95203837,61b8f3437b89212fae0dfadf
2,4.015,space,2.638,0,287,287,346,1,,,5c5cad3e4ee81200018eafe2,64391625bd68fab662220628,04-14-2023_10h01.16.545,PRaM,2021.2.3,Win32,59.95203837,61b8f3437b89212fae0dfadf
1,3.383,space,2.272,0,288,288,352,1,,,5c5cad3e4ee81200018eafe2,64391625bd68fab662220628,04-14-2023_10h01.16.545,PRaM,2021.2.3,Win32,59.95203837,61b8f3437b89212fae0dfadf
1,2.531,space,1.052,0,289,289,106,1,,,5c5cad3e4ee81200018eafe2,64391625bd68fab662220628,04-14-2023_10h01.16.545,PRaM,2021.2.3,Win32,59.95203837,61b8f3437b89212fae0dfadf
6,4.651,space,3.254,0,290,290,115,1,,,5c5cad3e4ee81200018eafe2,64391625bd68fab662220628,04-14-2023_10h01.16.545,PRaM,2021.2.3,Win32,59.95203837,61b8f3437b89212fae0dfadf
1,2.212,space,1.152,0,291,291,193,1,,,5c5cad3e4ee81200018eafe2,64391625bd68fab662220628,04-14-2023_10h01.16.545,PRaM,2021.2.3,Win32,59.95203837,61b8f3437b89212fae0dfadf
6,2.832,space,1.32,0,292,292,174,1,,,5c5cad3e4ee81200018eafe2,64391625bd68fab662220628,04-14-2023_10h01.16.545,PRaM,2021.2.3,Win32,59.95203837,61b8f3437b89212fae0dfadf
4,4.739,space,3.238,0,293,293,226,1,,,5c5cad3e4ee81200018eafe2,64391625bd68fab662220628,04-14-2023_10h01.16.545,PRaM,2021.2.3,Win32,59.95203837,61b8f3437b89212fae0dfadf
2,4.982,space,4.409,0,294,294,171,1,,,5c5cad3e4ee81200018eafe2,64391625bd68fab662220628,04-14-2023_10h01.16.545,PRaM,2021.2.3,Win32,59.95203837,61b8f3437b89212fae0dfadf
7,5.053,space,3.539,0,295,295,342,1,,,5c5cad3e4ee81200018eafe2,64391625bd68fab662220628,04-14-2023_10h01.16.545,PRaM,2021.2.3,Win32,59.95203837,61b8f3437b89212fae0dfadf
1,2.9,space,1.453,0,296,296,300,1,,,5c5cad3e4ee81200018eafe2,64391625bd68fab662220628,04-14-2023_10h01.16.545,PRaM,2021.2.3,Win32,59.95203837,61b8f3437b89212fae0dfadf
1,2.913,space,1.49,0,297,297,237,1,,,5c5cad3e4ee81200018eafe2,64391625bd68fab662220628,04-14-2023_10h01.16.545,PRaM,2021.2.3,Win32,59.95203837,61b8f3437b89212fae0dfadf
2,5.238,space,3.94,0,298,298,282,1,,,5c5cad3e4ee81200018eafe2,64391625bd68fab662220628,04-14-2023_10h01.16.545,PRaM,2021.2.3,Win32,59.95203837,61b8f3437b89212fae0dfadf
1,2.113,space,0.686,0,299,299,79,1,,,5c5cad3e4ee81200018eafe2,64391625bd68fab662220628,04-14-2023_10h01.16.545,PRaM,2021.2.3,Win32,59.95203837,61b8f3437b89212fae0dfadf
1,2.096,space,0.869,0,300,300,293,1,,,5c5cad3e4ee81200018eafe2,64391625bd68fab662220628,04-14-2023_10h01.16.545,PRaM,2021.2.3,Win32,59.95203837,61b8f3437b89212fae0dfadf
8,1.764,space,1.27,0,301,301,326,1,,,5c5cad3e4ee81200018eafe2,64391625bd68fab662220628,04-14-2023_10h01.16.545,PRaM,2021.2.3,Win32,59.95203837,61b8f3437b89212fae0dfadf
1,2.681,space,1.421,0,302,302,287,1,,,5c5cad3e4ee81200018eafe2,64391625bd68fab662220628,04-14-2023_10h01.16.545,PRaM,2021.2.3,Win32,59.95203837,61b8f3437b89212fae0dfadf
6,3.495,space,3.508,0,303,303,365,1,,,5c5cad3e4ee81200018eafe2,64391625bd68fab662220628,04-14-2023_10h01.16.545,PRaM,2021.2.3,Win32,59.95203837,61b8f3437b89212fae0dfadf
1,4.88,space,3.472,0,304,304,162,1,,,5c5cad3e4ee81200018eafe2,64391625bd68fab662220628,04-14-2023_10h01.16.545,PRaM,2021.2.3,Win32,59.95203837,61b8f3437b89212fae0dfadf
2,3.262,space,1.735,0,305,305,177,1,,,5c5cad3e4ee81200018eafe2,64391625bd68fab662220628,04-14-2023_10h01.16.545,PRaM,2021.2.3,Win32,59.95203837,61b8f3437b89212fae0dfadf
1,5.352,space,5.675,0,306,306,57,1,,,5c5cad3e4ee81200018eafe2,64391625bd68fab662220628,04-14-2023_10h01.16.545,PRaM,2021.2.3,Win32,59.95203837,61b8f3437b89212fae0dfadf
4,5.116,space,3.606,0,307,307,165,1,,,5c5cad3e4ee81200018eafe2,64391625bd68fab662220628,04-14-2023_10h01.16.545,PRaM,2021.2.3,Win32,59.95203837,61b8f3437b89212fae0dfadf
4,3.032,space,2.137,0,308,308,252,1,,,5c5cad3e4ee81200018eafe2,64391625bd68fab662220628,04-14-2023_10h01.16.545,PRaM,2021.2.3,Win32,59.95203837,61b8f3437b89212fae0dfadf
6,4.834,space,7.478,0,309,309,19,1,,,5c5cad3e4ee81200018eafe2,64391625bd68fab662220628,04-14-2023_10h01.16.545,PRaM,2021.2.3,Win32,59.95203837,61b8f3437b89212fae0dfadf
6,3.095,space,1.603,0,310,310,239,1,,,5c5cad3e4ee81200018eafe2,64391625bd68fab662220628,04-14-2023_10h01.16.545,PRaM,2021.2.3,Win32,59.95203837,61b8f3437b89212fae0dfadf
2,2.848,space,1.486,0,311,311,204,1,,,5c5cad3e4ee81200018eafe2,64391625bd68fab662220628,04-14-2023_10h01.16.545,PRaM,2021.2.3,Win32,59.95203837,61b8f3437b89212fae0dfadf
1,2.112,space,0.803,0,312,312,13,1,,,5c5cad3e4ee81200018eafe2,64391625bd68fab662220628,04-14-2023_10h01.16.545,PRaM,2021.2.3,Win32,59.95203837,61b8f3437b89212fae0dfadf
4,9.906,space,8.411,0,313,313,30,1,,,5c5cad3e4ee81200018eafe2,64391625bd68fab662220628,04-14-2023_10h01.16.545,PRaM,2021.2.3,Win32,59.95203837,61b8f3437b89212fae0dfadf
3,3.582,space,2.657,0,314,314,21,1,,,5c5cad3e4ee81200018eafe2,64391625bd68fab662220628,04-14-2023_10h01.16.545,PRaM,2021.2.3,Win32,59.95203837,61b8f3437b89212fae0dfadf
1,2.814,space,1.441,0,315,315,261,1,,,5c5cad3e4ee81200018eafe2,64391625bd68fab662220628,04-14-2023_10h01.16.545,PRaM,2021.2.3,Win32,59.95203837,61b8f3437b89212fae0dfadf
1,2.18,space,0.736,0,316,316,210,1,,,5c5cad3e4ee81200018eafe2,64391625bd68fab662220628,04-14-2023_10h01.16.545,PRaM,2021.2.3,Win32,59.95203837,61b8f3437b89212fae0dfadf
1,2.694,space,1.154,0,317,317,54,1,,,5c5cad3e4ee81200018eafe2,64391625bd68fab662220628,04-14-2023_10h01.16.545,PRaM,2021.2.3,Win32,59.95203837,61b8f3437b89212fae0dfadf
2,2.546,space,1.054,0,318,318,143,1,,,5c5cad3e4ee81200018eafe2,64391625bd68fab662220628,04-14-2023_10h01.16.545,PRaM,2021.2.3,Win32,59.95203837,61b8f3437b89212fae0dfadf
1,5.731,space,4.307,0,319,319,169,1,,,5c5cad3e4ee81200018eafe2,64391625bd68fab662220628,04-14-2023_10h01.16.545,PRaM,2021.2.3,Win32,59.95203837,61b8f3437b89212fae0dfadf
4,9.638,space,8.01,0,320,320,112,1,,,5c5cad3e4ee81200018eafe2,64391625bd68fab662220628,04-14-2023_10h01.16.545,PRaM,2021.2.3,Win32,59.95203837,61b8f3437b89212fae0dfadf
1,2.532,space,1.123,0,321,321,218,1,,,5c5cad3e4ee81200018eafe2,64391625bd68fab662220628,04-14-2023_10h01.16.545,PRaM,2021.2.3,Win32,59.95203837,61b8f3437b89212fae0dfadf
1,2.881,space,1.319,0,322,322,34,1,,,5c5cad3e4ee81200018eafe2,64391625bd68fab662220628,04-14-2023_10h01.16.545,PRaM,2021.2.3,Win32,59.95203837,61b8f3437b89212fae0dfadf
7,2.231,space,0.704,0,323,323,192,1,,,5c5cad3e4ee81200018eafe2,64391625bd68fab662220628,04-14-2023_10h01.16.545,PRaM,2021.2.3,Win32,59.95203837,61b8f3437b89212fae0dfadf
1,2.169,space,0.637,0,324,324,322,1,,,5c5cad3e4ee81200018eafe2,64391625bd68fab662220628,04-14-2023_10h01.16.545,PRaM,2021.2.3,Win32,59.95203837,61b8f3437b89212fae0dfadf
2,3.565,space,1.939,0,325,325,268,1,,,5c5cad3e4ee81200018eafe2,64391625bd68fab662220628,04-14-2023_10h01.16.545,PRaM,2021.2.3,Win32,59.95203837,61b8f3437b89212fae0dfadf
2,6.518,space,4.909,0,326,326,307,1,,,5c5cad3e4ee81200018eafe2,64391625bd68fab662220628,04-14-2023_10h01.16.545,PRaM,2021.2.3,Win32,59.95203837,61b8f3437b89212fae0dfadf
6,2.912,space,2.506,0,327,327,117,1,,,5c5cad3e4ee81200018eafe2,64391625bd68fab662220628,04-14-2023_10h01.16.545,PRaM,2021.2.3,Win32,59.95203837,61b8f3437b89212fae0dfadf
1,2.246,space,0.755,0,328,328,214,1,,,5c5cad3e4ee81200018eafe2,64391625bd68fab662220628,04-14-2023_10h01.16.545,PRaM,2021.2.3,Win32,59.95203837,61b8f3437b89212fae0dfadf
1,2.195,space,0.634,0,329,329,377,1,,,5c5cad3e4ee81200018eafe2,64391625bd68fab662220628,04-14-2023_10h01.16.545,PRaM,2021.2.3,Win32,59.95203837,61b8f3437b89212fae0dfadf
2,3.831,space,2.269,0,330,330,240,1,,,5c5cad3e4ee81200018eafe2,64391625bd68fab662220628,04-14-2023_10h01.16.545,PRaM,2021.2.3,Win32,59.95203837,61b8f3437b89212fae0dfadf
6,3.981,space,2.321,0,331,331,45,1,,,5c5cad3e4ee81200018eafe2,64391625bd68fab662220628,04-14-2023_10h01.16.545,PRaM,2021.2.3,Win32,59.95203837,61b8f3437b89212fae0dfadf
3,6.233,space,4.724,0,332,332,273,1,,,5c5cad3e4ee81200018eafe2,64391625bd68fab662220628,04-14-2023_10h01.16.545,PRaM,2021.2.3,Win32,59.95203837,61b8f3437b89212fae0dfadf
1,2.413,space,0.952,0,333,333,235,1,,,5c5cad3e4ee81200018eafe2,64391625bd68fab662220628,04-14-2023_10h01.16.545,PRaM,2021.2.3,Win32,59.95203837,61b8f3437b89212fae0dfadf
1,2.297,space,0.831,0,334,334,230,1,,,5c5cad3e4ee81200018eafe2,64391625bd68fab662220628,04-14-2023_10h01.16.545,PRaM,2021.2.3,Win32,59.95203837,61b8f3437b89212fae0dfadf
7,2.508,space,1.403,0,335,335,310,1,,,5c5cad3e4ee81200018eafe2,64391625bd68fab662220628,04-14-2023_10h01.16.545,PRaM,2021.2.3,Win32,59.95203837,61b8f3437b89212fae0dfadf
6,2.616,space,1.136,0,336,336,182,1,,,5c5cad3e4ee81200018eafe2,64391625bd68fab662220628,04-14-2023_10h01.16.545,PRaM,2021.2.3,Win32,59.95203837,61b8f3437b89212fae0dfadf
6,4.949,space,3.938,0,337,337,345,1,,,5c5cad3e4ee81200018eafe2,64391625bd68fab662220628,04-14-2023_10h01.16.545,PRaM,2021.2.3,Win32,59.95203837,61b8f3437b89212fae0dfadf
7,3.315,space,2.022,0,338,338,127,1,,,5c5cad3e4ee81200018eafe2,64391625bd68fab662220628,04-14-2023_10h01.16.545,PRaM,2021.2.3,Win32,59.95203837,61b8f3437b89212fae0dfadf
7,3.135,space,1.604,0,339,339,123,1,,,5c5cad3e4ee81200018eafe2,64391625bd68fab662220628,04-14-2023_10h01.16.545,PRaM,2021.2.3,Win32,59.95203837,61b8f3437b89212fae0dfadf
1,4.421,space,3.004,0,340,340,170,1,,,5c5cad3e4ee81200018eafe2,64391625bd68fab662220628,04-14-2023_10h01.16.545,PRaM,2021.2.3,Win32,59.95203837,61b8f3437b89212fae0dfadf
2,3.412,space,2.087,0,341,341,368,1,,,5c5cad3e4ee81200018eafe2,64391625bd68fab662220628,04-14-2023_10h01.16.545,PRaM,2021.2.3,Win32,59.95203837,61b8f3437b89212fae0dfadf
1,1.93,space,0.418,0,342,342,133,1,,,5c5cad3e4ee81200018eafe2,64391625bd68fab662220628,04-14-2023_10h01.16.545,PRaM,2021.2.3,Win32,59.95203837,61b8f3437b89212fae0dfadf
4,3.697,space,2.121,0,343,343,205,1,,,5c5cad3e4ee81200018eafe2,64391625bd68fab662220628,04-14-2023_10h01.16.545,PRaM,2021.2.3,Win32,59.95203837,61b8f3437b89212fae0dfadf
6,5.083,space,3.673,0,344,344,166,1,,,5c5cad3e4ee81200018eafe2,64391625bd68fab662220628,04-14-2023_10h01.16.545,PRaM,2021.2.3,Win32,59.95203837,61b8f3437b89212fae0dfadf
1,2.162,space,0.684,0,345,345,36,1,,,5c5cad3e4ee81200018eafe2,64391625bd68fab662220628,04-14-2023_10h01.16.545,PRaM,2021.2.3,Win32,59.95203837,61b8f3437b89212fae0dfadf
8,3.166,space,1.655,0,346,346,207,1,,,5c5cad3e4ee81200018eafe2,64391625bd68fab662220628,04-14-2023_10h01.16.545,PRaM,2021.2.3,Win32,59.95203837,61b8f3437b89212fae0dfadf
6,4.382,space,2.891,0,347,347,211,1,,,5c5cad3e4ee81200018eafe2,64391625bd68fab662220628,04-14-2023_10h01.16.545,PRaM,2021.2.3,Win32,59.95203837,61b8f3437b89212fae0dfadf
6,4.114,space,4.674,0,348,348,358,1,,,5c5cad3e4ee81200018eafe2,64391625bd68fab662220628,04-14-2023_10h01.16.545,PRaM,2021.2.3,Win32,59.95203837,61b8f3437b89212fae0dfadf
6,2.413,space,0.77,0,349,349,351,1,,,5c5cad3e4ee81200018eafe2,64391625bd68fab662220628,04-14-2023_10h01.16.545,PRaM,2021.2.3,Win32,59.95203837,61b8f3437b89212fae0dfadf
1,8.453,space,7.243,0,350,350,246,1,,,5c5cad3e4ee81200018eafe2,64391625bd68fab662220628,04-14-2023_10h01.16.545,PRaM,2021.2.3,Win32,59.95203837,61b8f3437b89212fae0dfadf
1,2.395,space,0.951,0,351,351,8,1,,,5c5cad3e4ee81200018eafe2,64391625bd68fab662220628,04-14-2023_10h01.16.545,PRaM,2021.2.3,Win32,59.95203837,61b8f3437b89212fae0dfadf
1,2.195,space,0.67,0,352,352,77,1,,,5c5cad3e4ee81200018eafe2,64391625bd68fab662220628,04-14-2023_10h01.16.545,PRaM,2021.2.3,Win32,59.95203837,61b8f3437b89212fae0dfadf
1,3.282,space,1.668,0,353,353,40,1,,,5c5cad3e4ee81200018eafe2,64391625bd68fab662220628,04-14-2023_10h01.16.545,PRaM,2021.2.3,Win32,59.95203837,61b8f3437b89212fae0dfadf
7,2.263,space,0.87,0,354,354,325,1,,,5c5cad3e4ee81200018eafe2,64391625bd68fab662220628,04-14-2023_10h01.16.545,PRaM,2021.2.3,Win32,59.95203837,61b8f3437b89212fae0dfadf
7,2.445,space,0.902,0,355,355,179,1,,,5c5cad3e4ee81200018eafe2,64391625bd68fab662220628,04-14-2023_10h01.16.545,PRaM,2021.2.3,Win32,59.95203837,61b8f3437b89212fae0dfadf
7,1.933,space,0.286,0,356,356,139,1,,,5c5cad3e4ee81200018eafe2,64391625bd68fab662220628,04-14-2023_10h01.16.545,PRaM,2021.2.3,Win32,59.95203837,61b8f3437b89212fae0dfadf
6,4.915,space,3.408,0,357,357,47,1,,,5c5cad3e4ee81200018eafe2,64391625bd68fab662220628,04-14-2023_10h01.16.545,PRaM,2021.2.3,Win32,59.95203837,61b8f3437b89212fae0dfadf
1,4.098,space,2.621,0,358,358,35,1,,,5c5cad3e4ee81200018eafe2,64391625bd68fab662220628,04-14-2023_10h01.16.545,PRaM,2021.2.3,Win32,59.95203837,61b8f3437b89212fae0dfadf
2,3.397,space,1.755,0,359,359,22,1,,,5c5cad3e4ee81200018eafe2,64391625bd68fab662220628,04-14-2023_10h01.16.545,PRaM,2021.2.3,Win32,59.95203837,61b8f3437b89212fae0dfadf
3,3.263,space,1.82,0,360,360,116,1,,,5c5cad3e4ee81200018eafe2,64391625bd68fab662220628,04-14-2023_10h01.16.545,PRaM,2021.2.3,Win32,59.95203837,61b8f3437b89212fae0dfadf
1,2.533,space,0.906,0,361,361,62,1,,,5c5cad3e4ee81200018eafe2,64391625bd68fab662220628,04-14-2023_10h01.16.545,PRaM,2021.2.3,Win32,59.95203837,61b8f3437b89212fae0dfadf
7,2.411,space,0.872,0,362,362,340,1,,,5c5cad3e4ee81200018eafe2,64391625bd68fab662220628,04-14-2023_10h01.16.545,PRaM,2021.2.3,Win32,59.95203837,61b8f3437b89212fae0dfadf
1,2.397,space,1.023,0,363,363,241,1,,,5c5cad3e4ee81200018eafe2,64391625bd68fab662220628,04-14-2023_10h01.16.545,PRaM,2021.2.3,Win32,59.95203837,61b8f3437b89212fae0dfadf
1,2.396,space,0.903,0,364,364,232,1,,,5c5cad3e4ee81200018eafe2,64391625bd68fab662220628,04-14-2023_10h01.16.545,PRaM,2021.2.3,Win32,59.95203837,61b8f3437b89212fae0dfadf
1,1.964,space,0.288,0,365,365,167,1,,,5c5cad3e4ee81200018eafe2,64391625bd68fab662220628,04-14-2023_10h01.16.545,PRaM,2021.2.3,Win32,59.95203837,61b8f3437b89212fae0dfadf
6,4.381,space,5.025,0,366,366,159,1,,,5c5cad3e4ee81200018eafe2,64391625bd68fab662220628,04-14-2023_10h01.16.545,PRaM,2021.2.3,Win32,59.95203837,61b8f3437b89212fae0dfadf
1,2.332,space,0.752,0,367,367,146,1,,,5c5cad3e4ee81200018eafe2,64391625bd68fab662220628,04-14-2023_10h01.16.545,PRaM,2021.2.3,Win32,59.95203837,61b8f3437b89212fae0dfadf
2,3.685,space,2.892,0,368,368,164,1,,,5c5cad3e4ee81200018eafe2,64391625bd68fab662220628,04-14-2023_10h01.16.545,PRaM,2021.2.3,Win32,59.95203837,61b8f3437b89212fae0dfadf
1,2.462,space,1.169,0,369,369,349,1,,,5c5cad3e4ee81200018eafe2,64391625bd68fab662220628,04-14-2023_10h01.16.545,PRaM,2021.2.3,Win32,59.95203837,61b8f3437b89212fae0dfadf
2,11.407,space,10.397,0,370,370,66,1,,,5c5cad3e4ee81200018eafe2,64391625bd68fab662220628,04-14-2023_10h01.16.545,PRaM,2021.2.3,Win32,59.95203837,61b8f3437b89212fae0dfadf
1,2.5,space,0.953,0,371,371,360,1,,,5c5cad3e4ee81200018eafe2,64391625bd68fab662220628,04-14-2023_10h01.16.545,PRaM,2021.2.3,Win32,59.95203837,61b8f3437b89212fae0dfadf
1,2.782,space,1.203,0,372,372,78,1,,,5c5cad3e4ee81200018eafe2,64391625bd68fab662220628,04-14-2023_10h01.16.545,PRaM,2021.2.3,Win32,59.95203837,61b8f3437b89212fae0dfadf
1,2.298,space,0.638,0,373,373,24,1,,,5c5cad3e4ee81200018eafe2,64391625bd68fab662220628,04-14-2023_10h01.16.545,PRaM,2021.2.3,Win32,59.95203837,61b8f3437b89212fae0dfadf
1,2.05,space,0.353,0,374,374,206,1,,,5c5cad3e4ee81200018eafe2,64391625bd68fab662220628,04-14-2023_10h01.16.545,PRaM,2021.2.3,Win32,59.95203837,61b8f3437b89212fae0dfadf
7,3.665,space,2.489,0,375,375,269,1,,,5c5cad3e4ee81200018eafe2,64391625bd68fab662220628,04-14-2023_10h01.16.545,PRaM,2021.2.3,Win32,59.95203837,61b8f3437b89212fae0dfadf
7,7.467,space,5.958,0,376,376,25,1,,,5c5cad3e4ee81200018eafe2,64391625bd68fab662220628,04-14-2023_10h01.16.545,PRaM,2021.2.3,Win32,59.95203837,61b8f3437b89212fae0dfadf
6,2.801,space,1.17,0,377,377,46,1,,,5c5cad3e4ee81200018eafe2,64391625bd68fab662220628,04-14-2023_10h01.16.545,PRaM,2021.2.3,Win32,59.95203837,61b8f3437b89212fae0dfadf
