Rating.response,Rating.rt,EndTrial.keys,EndTrial.rt,trials.thisRepN,trials.thisTrialN,trials.thisN,trials.thisIndex,trials.ran,Pos1,Pos2,participant,session,date,expName,psychopyVersion,OS,frameRate,study_id
1,5.9226,space,5.8482,0,0,0,310,1,,,5c93b062c9d93b0015fcbc02,64391618dff45a099d94d5f2,2023-04-14_10h01.44.547,PRaM,2021.2.3,Win32,144.1129846,61b8f3437b89212fae0dfadf
1,4.0965,space,3.8026,0,1,1,103,1,,,5c93b062c9d93b0015fcbc02,64391618dff45a099d94d5f2,2023-04-14_10h01.44.547,PRaM,2021.2.3,Win32,144.1129846,61b8f3437b89212fae0dfadf
1,5.297,space,3.7534,0,2,2,350,1,,,5c93b062c9d93b0015fcbc02,64391618dff45a099d94d5f2,2023-04-14_10h01.44.547,PRaM,2021.2.3,Win32,144.1129846,61b8f3437b89212fae0dfadf
1,3.5562,space,2.0192,0,3,3,163,1,,,5c93b062c9d93b0015fcbc02,64391618dff45a099d94d5f2,2023-04-14_10h01.44.547,PRaM,2021.2.3,Win32,144.1129846,61b8f3437b89212fae0dfadf
,,space,0.7708,0,4,4,162,1,,,5c93b062c9d93b0015fcbc02,64391618dff45a099d94d5f2,2023-04-14_10h01.44.547,PRaM,2021.2.3,Win32,144.1129846,61b8f3437b89212fae0dfadf
5,7.9018,space,6.6883,0,5,5,225,1,,,5c93b062c9d93b0015fcbc02,64391618dff45a099d94d5f2,2023-04-14_10h01.44.547,PRaM,2021.2.3,Win32,144.1129846,61b8f3437b89212fae0dfadf
1,7.6564,space,6.0296,0,6,6,172,1,,,5c93b062c9d93b0015fcbc02,64391618dff45a099d94d5f2,2023-04-14_10h01.44.547,PRaM,2021.2.3,Win32,144.1129846,61b8f3437b89212fae0dfadf
1,3.7919,space,2.1441,0,7,7,198,1,,,5c93b062c9d93b0015fcbc02,64391618dff45a099d94d5f2,2023-04-14_10h01.44.547,PRaM,2021.2.3,Win32,144.1129846,61b8f3437b89212fae0dfadf
3,4.2634,space,2.6229,0,8,8,127,1,,,5c93b062c9d93b0015fcbc02,64391618dff45a099d94d5f2,2023-04-14_10h01.44.547,PRaM,2021.2.3,Win32,144.1129846,61b8f3437b89212fae0dfadf
3,4.5965,space,3.074,0,9,9,62,1,,,5c93b062c9d93b0015fcbc02,64391618dff45a099d94d5f2,2023-04-14_10h01.44.547,PRaM,2021.2.3,Win32,144.1129846,61b8f3437b89212fae0dfadf
1,3.4469,space,1.8527,0,10,10,349,1,,,5c93b062c9d93b0015fcbc02,64391618dff45a099d94d5f2,2023-04-14_10h01.44.547,PRaM,2021.2.3,Win32,144.1129846,61b8f3437b89212fae0dfadf
5,3.8698,space,2.3101,0,11,11,285,1,,,5c93b062c9d93b0015fcbc02,64391618dff45a099d94d5f2,2023-04-14_10h01.44.547,PRaM,2021.2.3,Win32,144.1129846,61b8f3437b89212fae0dfadf
5,2.7882,space,2.213,0,12,12,61,1,,,5c93b062c9d93b0015fcbc02,64391618dff45a099d94d5f2,2023-04-14_10h01.44.547,PRaM,2021.2.3,Win32,144.1129846,61b8f3437b89212fae0dfadf
5,5.6941,space,3.9617,0,13,13,136,1,,,5c93b062c9d93b0015fcbc02,64391618dff45a099d94d5f2,2023-04-14_10h01.44.547,PRaM,2021.2.3,Win32,144.1129846,61b8f3437b89212fae0dfadf
2,4.3116,space,2.6996,0,14,14,201,1,,,5c93b062c9d93b0015fcbc02,64391618dff45a099d94d5f2,2023-04-14_10h01.44.547,PRaM,2021.2.3,Win32,144.1129846,61b8f3437b89212fae0dfadf
1,3.1809,space,1.4571,0,15,15,175,1,,,5c93b062c9d93b0015fcbc02,64391618dff45a099d94d5f2,2023-04-14_10h01.44.547,PRaM,2021.2.3,Win32,144.1129846,61b8f3437b89212fae0dfadf
4,5.8587,space,4.3985,0,16,16,222,1,,,5c93b062c9d93b0015fcbc02,64391618dff45a099d94d5f2,2023-04-14_10h01.44.547,PRaM,2021.2.3,Win32,144.1129846,61b8f3437b89212fae0dfadf
1,2.8442,space,1.194,0,17,17,171,1,,,5c93b062c9d93b0015fcbc02,64391618dff45a099d94d5f2,2023-04-14_10h01.44.547,PRaM,2021.2.3,Win32,144.1129846,61b8f3437b89212fae0dfadf
2,5.2701,space,3.7189,0,18,18,216,1,,,5c93b062c9d93b0015fcbc02,64391618dff45a099d94d5f2,2023-04-14_10h01.44.547,PRaM,2021.2.3,Win32,144.1129846,61b8f3437b89212fae0dfadf
1,5.1861,space,3.5174,0,19,19,110,1,,,5c93b062c9d93b0015fcbc02,64391618dff45a099d94d5f2,2023-04-14_10h01.44.547,PRaM,2021.2.3,Win32,144.1129846,61b8f3437b89212fae0dfadf
1,2.6607,space,1.1658,0,20,20,300,1,,,5c93b062c9d93b0015fcbc02,64391618dff45a099d94d5f2,2023-04-14_10h01.44.547,PRaM,2021.2.3,Win32,144.1129846,61b8f3437b89212fae0dfadf
5,3.3774,space,1.7702,0,21,21,281,1,,,5c93b062c9d93b0015fcbc02,64391618dff45a099d94d5f2,2023-04-14_10h01.44.547,PRaM,2021.2.3,Win32,144.1129846,61b8f3437b89212fae0dfadf
1,4.6936,space,3.011,0,22,22,19,1,,,5c93b062c9d93b0015fcbc02,64391618dff45a099d94d5f2,2023-04-14_10h01.44.547,PRaM,2021.2.3,Win32,144.1129846,61b8f3437b89212fae0dfadf
5,5.0143,space,3.3864,0,23,23,86,1,,,5c93b062c9d93b0015fcbc02,64391618dff45a099d94d5f2,2023-04-14_10h01.44.547,PRaM,2021.2.3,Win32,144.1129846,61b8f3437b89212fae0dfadf
1,3.7573,space,2.1578,0,24,24,356,1,,,5c93b062c9d93b0015fcbc02,64391618dff45a099d94d5f2,2023-04-14_10h01.44.547,PRaM,2021.2.3,Win32,144.1129846,61b8f3437b89212fae0dfadf
5,6.9152,space,5.1893,0,25,25,264,1,,,5c93b062c9d93b0015fcbc02,64391618dff45a099d94d5f2,2023-04-14_10h01.44.547,PRaM,2021.2.3,Win32,144.1129846,61b8f3437b89212fae0dfadf
1,3.1902,space,1.4431,0,26,26,217,1,,,5c93b062c9d93b0015fcbc02,64391618dff45a099d94d5f2,2023-04-14_10h01.44.547,PRaM,2021.2.3,Win32,144.1129846,61b8f3437b89212fae0dfadf
1,2.1009,space,0.4653,0,27,27,23,1,,,5c93b062c9d93b0015fcbc02,64391618dff45a099d94d5f2,2023-04-14_10h01.44.547,PRaM,2021.2.3,Win32,144.1129846,61b8f3437b89212fae0dfadf
3,4.7144,space,2.9486,0,28,28,207,1,,,5c93b062c9d93b0015fcbc02,64391618dff45a099d94d5f2,2023-04-14_10h01.44.547,PRaM,2021.2.3,Win32,144.1129846,61b8f3437b89212fae0dfadf
4,5.0403,space,3.3718,0,29,29,0,1,,,5c93b062c9d93b0015fcbc02,64391618dff45a099d94d5f2,2023-04-14_10h01.44.547,PRaM,2021.2.3,Win32,144.1129846,61b8f3437b89212fae0dfadf
1,2.8503,space,1.6444,0,30,30,230,1,,,5c93b062c9d93b0015fcbc02,64391618dff45a099d94d5f2,2023-04-14_10h01.44.547,PRaM,2021.2.3,Win32,144.1129846,61b8f3437b89212fae0dfadf
6,4.0896,space,2.4214,0,31,31,80,1,,,5c93b062c9d93b0015fcbc02,64391618dff45a099d94d5f2,2023-04-14_10h01.44.547,PRaM,2021.2.3,Win32,144.1129846,61b8f3437b89212fae0dfadf
1,5.1861,space,3.6007,0,32,32,332,1,,,5c93b062c9d93b0015fcbc02,64391618dff45a099d94d5f2,2023-04-14_10h01.44.547,PRaM,2021.2.3,Win32,144.1129846,61b8f3437b89212fae0dfadf
5,3.6548,space,1.9914,0,33,33,177,1,,,5c93b062c9d93b0015fcbc02,64391618dff45a099d94d5f2,2023-04-14_10h01.44.547,PRaM,2021.2.3,Win32,144.1129846,61b8f3437b89212fae0dfadf
5,5.493,space,3.8227,0,34,34,307,1,,,5c93b062c9d93b0015fcbc02,64391618dff45a099d94d5f2,2023-04-14_10h01.44.547,PRaM,2021.2.3,Win32,144.1129846,61b8f3437b89212fae0dfadf
1,2.8968,space,1.2083,0,35,35,238,1,,,5c93b062c9d93b0015fcbc02,64391618dff45a099d94d5f2,2023-04-14_10h01.44.547,PRaM,2021.2.3,Win32,144.1129846,61b8f3437b89212fae0dfadf
1,4.0622,space,2.3244,0,36,36,109,1,,,5c93b062c9d93b0015fcbc02,64391618dff45a099d94d5f2,2023-04-14_10h01.44.547,PRaM,2021.2.3,Win32,144.1129846,61b8f3437b89212fae0dfadf
1,1.7262,space,0.056,0,37,37,224,1,,,5c93b062c9d93b0015fcbc02,64391618dff45a099d94d5f2,2023-04-14_10h01.44.547,PRaM,2021.2.3,Win32,144.1129846,61b8f3437b89212fae0dfadf
5,3.6406,space,1.8879,0,38,38,325,1,,,5c93b062c9d93b0015fcbc02,64391618dff45a099d94d5f2,2023-04-14_10h01.44.547,PRaM,2021.2.3,Win32,144.1129846,61b8f3437b89212fae0dfadf
6,3.3128,space,1.6095,0,39,39,17,1,,,5c93b062c9d93b0015fcbc02,64391618dff45a099d94d5f2,2023-04-14_10h01.44.547,PRaM,2021.2.3,Win32,144.1129846,61b8f3437b89212fae0dfadf
1,3.0084,space,1.3254,0,40,40,187,1,,,5c93b062c9d93b0015fcbc02,64391618dff45a099d94d5f2,2023-04-14_10h01.44.547,PRaM,2021.2.3,Win32,144.1129846,61b8f3437b89212fae0dfadf
1,2.3991,space,0.701,0,41,41,309,1,,,5c93b062c9d93b0015fcbc02,64391618dff45a099d94d5f2,2023-04-14_10h01.44.547,PRaM,2021.2.3,Win32,144.1129846,61b8f3437b89212fae0dfadf
2,3.8473,space,2.0608,0,42,42,29,1,,,5c93b062c9d93b0015fcbc02,64391618dff45a099d94d5f2,2023-04-14_10h01.44.547,PRaM,2021.2.3,Win32,144.1129846,61b8f3437b89212fae0dfadf
1,2.3089,space,0.5622,0,43,43,374,1,,,5c93b062c9d93b0015fcbc02,64391618dff45a099d94d5f2,2023-04-14_10h01.44.547,PRaM,2021.2.3,Win32,144.1129846,61b8f3437b89212fae0dfadf
6,3.6252,space,1.95,0,44,44,3,1,,,5c93b062c9d93b0015fcbc02,64391618dff45a099d94d5f2,2023-04-14_10h01.44.547,PRaM,2021.2.3,Win32,144.1129846,61b8f3437b89212fae0dfadf
1,5.8245,space,4.3637,0,45,45,215,1,,,5c93b062c9d93b0015fcbc02,64391618dff45a099d94d5f2,2023-04-14_10h01.44.547,PRaM,2021.2.3,Win32,144.1129846,61b8f3437b89212fae0dfadf
1,1.8373,space,0.1668,0,46,46,11,1,,,5c93b062c9d93b0015fcbc02,64391618dff45a099d94d5f2,2023-04-14_10h01.44.547,PRaM,2021.2.3,Win32,144.1129846,61b8f3437b89212fae0dfadf
1,2.0661,space,0.3823,0,47,47,235,1,,,5c93b062c9d93b0015fcbc02,64391618dff45a099d94d5f2,2023-04-14_10h01.44.547,PRaM,2021.2.3,Win32,144.1129846,61b8f3437b89212fae0dfadf
1,2.5863,space,0.9372,0,48,48,34,1,,,5c93b062c9d93b0015fcbc02,64391618dff45a099d94d5f2,2023-04-14_10h01.44.547,PRaM,2021.2.3,Win32,144.1129846,61b8f3437b89212fae0dfadf
5,3.273,space,1.6033,0,49,49,99,1,,,5c93b062c9d93b0015fcbc02,64391618dff45a099d94d5f2,2023-04-14_10h01.44.547,PRaM,2021.2.3,Win32,144.1129846,61b8f3437b89212fae0dfadf
5,2.0936,space,0.4789,0,50,50,60,1,,,5c93b062c9d93b0015fcbc02,64391618dff45a099d94d5f2,2023-04-14_10h01.44.547,PRaM,2021.2.3,Win32,144.1129846,61b8f3437b89212fae0dfadf
1,4.6035,space,2.914,0,51,51,263,1,,,5c93b062c9d93b0015fcbc02,64391618dff45a099d94d5f2,2023-04-14_10h01.44.547,PRaM,2021.2.3,Win32,144.1129846,61b8f3437b89212fae0dfadf
1,2.6833,space,0.9577,0,52,52,94,1,,,5c93b062c9d93b0015fcbc02,64391618dff45a099d94d5f2,2023-04-14_10h01.44.547,PRaM,2021.2.3,Win32,144.1129846,61b8f3437b89212fae0dfadf
1,2.0525,space,1.0062,0,53,53,107,1,,,5c93b062c9d93b0015fcbc02,64391618dff45a099d94d5f2,2023-04-14_10h01.44.547,PRaM,2021.2.3,Win32,144.1129846,61b8f3437b89212fae0dfadf
1,3.0926,space,1.4571,0,54,54,289,1,,,5c93b062c9d93b0015fcbc02,64391618dff45a099d94d5f2,2023-04-14_10h01.44.547,PRaM,2021.2.3,Win32,144.1129846,61b8f3437b89212fae0dfadf
1,1.8233,space,0.1531,0,55,55,89,1,,,5c93b062c9d93b0015fcbc02,64391618dff45a099d94d5f2,2023-04-14_10h01.44.547,PRaM,2021.2.3,Win32,144.1129846,61b8f3437b89212fae0dfadf
1,1.6153,space,2.4424,0,56,56,311,1,,,5c93b062c9d93b0015fcbc02,64391618dff45a099d94d5f2,2023-04-14_10h01.44.547,PRaM,2021.2.3,Win32,144.1129846,61b8f3437b89212fae0dfadf
1,1.9431,space,0.2708,0,57,57,377,1,,,5c93b062c9d93b0015fcbc02,64391618dff45a099d94d5f2,2023-04-14_10h01.44.547,PRaM,2021.2.3,Win32,144.1129846,61b8f3437b89212fae0dfadf
1,1.9205,space,0.2501,0,58,58,35,1,,,5c93b062c9d93b0015fcbc02,64391618dff45a099d94d5f2,2023-04-14_10h01.44.547,PRaM,2021.2.3,Win32,144.1129846,61b8f3437b89212fae0dfadf
3,3.5072,space,1.7839,0,59,59,254,1,,,5c93b062c9d93b0015fcbc02,64391618dff45a099d94d5f2,2023-04-14_10h01.44.547,PRaM,2021.2.3,Win32,144.1129846,61b8f3437b89212fae0dfadf
4,3.4935,space,1.783,0,60,60,25,1,,,5c93b062c9d93b0015fcbc02,64391618dff45a099d94d5f2,2023-04-14_10h01.44.547,PRaM,2021.2.3,Win32,144.1129846,61b8f3437b89212fae0dfadf
4,1.8094,space,0.1252,0,61,61,104,1,,,5c93b062c9d93b0015fcbc02,64391618dff45a099d94d5f2,2023-04-14_10h01.44.547,PRaM,2021.2.3,Win32,144.1129846,61b8f3437b89212fae0dfadf
1,2.4899,space,0.8051,0,62,62,212,1,,,5c93b062c9d93b0015fcbc02,64391618dff45a099d94d5f2,2023-04-14_10h01.44.547,PRaM,2021.2.3,Win32,144.1129846,61b8f3437b89212fae0dfadf
3,3.8752,space,2.2206,0,63,63,351,1,,,5c93b062c9d93b0015fcbc02,64391618dff45a099d94d5f2,2023-04-14_10h01.44.547,PRaM,2021.2.3,Win32,144.1129846,61b8f3437b89212fae0dfadf
1,5.3944,space,3.7533,0,64,64,200,1,,,5c93b062c9d93b0015fcbc02,64391618dff45a099d94d5f2,2023-04-14_10h01.44.547,PRaM,2021.2.3,Win32,144.1129846,61b8f3437b89212fae0dfadf
6,3.32,space,1.6652,0,65,65,85,1,,,5c93b062c9d93b0015fcbc02,64391618dff45a099d94d5f2,2023-04-14_10h01.44.547,PRaM,2021.2.3,Win32,144.1129846,61b8f3437b89212fae0dfadf
7,3.9165,space,2.2272,0,66,66,152,1,,,5c93b062c9d93b0015fcbc02,64391618dff45a099d94d5f2,2023-04-14_10h01.44.547,PRaM,2021.2.3,Win32,144.1129846,61b8f3437b89212fae0dfadf
6,3.1049,space,1.409,0,67,67,21,1,,,5c93b062c9d93b0015fcbc02,64391618dff45a099d94d5f2,2023-04-14_10h01.44.547,PRaM,2021.2.3,Win32,144.1129846,61b8f3437b89212fae0dfadf
6,1.6848,space,0.0423,0,68,68,180,1,,,5c93b062c9d93b0015fcbc02,64391618dff45a099d94d5f2,2023-04-14_10h01.44.547,PRaM,2021.2.3,Win32,144.1129846,61b8f3437b89212fae0dfadf
2,4.0626,space,2.5321,0,69,69,146,1,,,5c93b062c9d93b0015fcbc02,64391618dff45a099d94d5f2,2023-04-14_10h01.44.547,PRaM,2021.2.3,Win32,144.1129846,61b8f3437b89212fae0dfadf
6,4.0002,space,2.3244,0,70,70,274,1,,,5c93b062c9d93b0015fcbc02,64391618dff45a099d94d5f2,2023-04-14_10h01.44.547,PRaM,2021.2.3,Win32,144.1129846,61b8f3437b89212fae0dfadf
7,3.6739,space,2.151,0,71,71,301,1,,,5c93b062c9d93b0015fcbc02,64391618dff45a099d94d5f2,2023-04-14_10h01.44.547,PRaM,2021.2.3,Win32,144.1129846,61b8f3437b89212fae0dfadf
4,4.2219,space,2.5533,0,72,72,178,1,,,5c93b062c9d93b0015fcbc02,64391618dff45a099d94d5f2,2023-04-14_10h01.44.547,PRaM,2021.2.3,Win32,144.1129846,61b8f3437b89212fae0dfadf
4,1.9622,space,0.3126,0,73,73,7,1,,,5c93b062c9d93b0015fcbc02,64391618dff45a099d94d5f2,2023-04-14_10h01.44.547,PRaM,2021.2.3,Win32,144.1129846,61b8f3437b89212fae0dfadf
1,4.8807,space,3.2123,0,74,74,124,1,,,5c93b062c9d93b0015fcbc02,64391618dff45a099d94d5f2,2023-04-14_10h01.44.547,PRaM,2021.2.3,Win32,144.1129846,61b8f3437b89212fae0dfadf
4,3.1138,space,1.4433,0,75,75,239,1,,,5c93b062c9d93b0015fcbc02,64391618dff45a099d94d5f2,2023-04-14_10h01.44.547,PRaM,2021.2.3,Win32,144.1129846,61b8f3437b89212fae0dfadf
7,4.1315,space,2.4565,0,76,76,156,1,,,5c93b062c9d93b0015fcbc02,64391618dff45a099d94d5f2,2023-04-14_10h01.44.547,PRaM,2021.2.3,Win32,144.1129846,61b8f3437b89212fae0dfadf
1,2.9248,space,1.2908,0,77,77,67,1,,,5c93b062c9d93b0015fcbc02,64391618dff45a099d94d5f2,2023-04-14_10h01.44.547,PRaM,2021.2.3,Win32,144.1129846,61b8f3437b89212fae0dfadf
1,1.5597,space,1.6515,0,78,78,58,1,,,5c93b062c9d93b0015fcbc02,64391618dff45a099d94d5f2,2023-04-14_10h01.44.547,PRaM,2021.2.3,Win32,144.1129846,61b8f3437b89212fae0dfadf
1,2.2535,space,0.6457,0,79,79,10,1,,,5c93b062c9d93b0015fcbc02,64391618dff45a099d94d5f2,2023-04-14_10h01.44.547,PRaM,2021.2.3,Win32,144.1129846,61b8f3437b89212fae0dfadf
1,1.8997,space,1.2074,0,80,80,308,1,,,5c93b062c9d93b0015fcbc02,64391618dff45a099d94d5f2,2023-04-14_10h01.44.547,PRaM,2021.2.3,Win32,144.1129846,61b8f3437b89212fae0dfadf
6,3.1969,space,1.575,0,81,81,304,1,,,5c93b062c9d93b0015fcbc02,64391618dff45a099d94d5f2,2023-04-14_10h01.44.547,PRaM,2021.2.3,Win32,144.1129846,61b8f3437b89212fae0dfadf
7,2.6627,space,0.9856,0,82,82,331,1,,,5c93b062c9d93b0015fcbc02,64391618dff45a099d94d5f2,2023-04-14_10h01.44.547,PRaM,2021.2.3,Win32,144.1129846,61b8f3437b89212fae0dfadf
1,3.0148,space,1.3328,0,83,83,345,1,,,5c93b062c9d93b0015fcbc02,64391618dff45a099d94d5f2,2023-04-14_10h01.44.547,PRaM,2021.2.3,Win32,144.1129846,61b8f3437b89212fae0dfadf
1,1.5805,space,0.9233,0,84,84,353,1,,,5c93b062c9d93b0015fcbc02,64391618dff45a099d94d5f2,2023-04-14_10h01.44.547,PRaM,2021.2.3,Win32,144.1129846,61b8f3437b89212fae0dfadf
5,4.3696,space,2.6295,0,85,85,98,1,,,5c93b062c9d93b0015fcbc02,64391618dff45a099d94d5f2,2023-04-14_10h01.44.547,PRaM,2021.2.3,Win32,144.1129846,61b8f3437b89212fae0dfadf
1,4.4713,space,2.7682,0,86,86,188,1,,,5c93b062c9d93b0015fcbc02,64391618dff45a099d94d5f2,2023-04-14_10h01.44.547,PRaM,2021.2.3,Win32,144.1129846,61b8f3437b89212fae0dfadf
1,2.2257,space,0.5207,0,87,87,303,1,,,5c93b062c9d93b0015fcbc02,64391618dff45a099d94d5f2,2023-04-14_10h01.44.547,PRaM,2021.2.3,Win32,144.1129846,61b8f3437b89212fae0dfadf
2,4.6313,space,2.9211,0,88,88,147,1,,,5c93b062c9d93b0015fcbc02,64391618dff45a099d94d5f2,2023-04-14_10h01.44.547,PRaM,2021.2.3,Win32,144.1129846,61b8f3437b89212fae0dfadf
1,4.208,space,2.4769,0,89,89,24,1,,,5c93b062c9d93b0015fcbc02,64391618dff45a099d94d5f2,2023-04-14_10h01.44.547,PRaM,2021.2.3,Win32,144.1129846,61b8f3437b89212fae0dfadf
5,2.6487,space,0.9366,0,90,90,173,1,,,5c93b062c9d93b0015fcbc02,64391618dff45a099d94d5f2,2023-04-14_10h01.44.547,PRaM,2021.2.3,Win32,144.1129846,61b8f3437b89212fae0dfadf
1,2.7025,space,1.0067,0,91,91,102,1,,,5c93b062c9d93b0015fcbc02,64391618dff45a099d94d5f2,2023-04-14_10h01.44.547,PRaM,2021.2.3,Win32,144.1129846,61b8f3437b89212fae0dfadf
7,2.7261,space,1.0132,0,92,92,186,1,,,5c93b062c9d93b0015fcbc02,64391618dff45a099d94d5f2,2023-04-14_10h01.44.547,PRaM,2021.2.3,Win32,144.1129846,61b8f3437b89212fae0dfadf
1,2.8209,space,1.0828,0,93,93,133,1,,,5c93b062c9d93b0015fcbc02,64391618dff45a099d94d5f2,2023-04-14_10h01.44.547,PRaM,2021.2.3,Win32,144.1129846,61b8f3437b89212fae0dfadf
2,3.2855,space,1.5898,0,94,94,76,1,,,5c93b062c9d93b0015fcbc02,64391618dff45a099d94d5f2,2023-04-14_10h01.44.547,PRaM,2021.2.3,Win32,144.1129846,61b8f3437b89212fae0dfadf
4,3.2607,space,1.5127,0,95,95,119,1,,,5c93b062c9d93b0015fcbc02,64391618dff45a099d94d5f2,2023-04-14_10h01.44.547,PRaM,2021.2.3,Win32,144.1129846,61b8f3437b89212fae0dfadf
1,2.4754,space,0.7918,0,96,96,329,1,,,5c93b062c9d93b0015fcbc02,64391618dff45a099d94d5f2,2023-04-14_10h01.44.547,PRaM,2021.2.3,Win32,144.1129846,61b8f3437b89212fae0dfadf
1,1.4492,space,0.9997,0,97,97,338,1,,,5c93b062c9d93b0015fcbc02,64391618dff45a099d94d5f2,2023-04-14_10h01.44.547,PRaM,2021.2.3,Win32,144.1129846,61b8f3437b89212fae0dfadf
1,1.7886,space,0.0972,0,98,98,214,1,,,5c93b062c9d93b0015fcbc02,64391618dff45a099d94d5f2,2023-04-14_10h01.44.547,PRaM,2021.2.3,Win32,144.1129846,61b8f3437b89212fae0dfadf
5,2.8983,space,1.18,0,99,99,333,1,,,5c93b062c9d93b0015fcbc02,64391618dff45a099d94d5f2,2023-04-14_10h01.44.547,PRaM,2021.2.3,Win32,144.1129846,61b8f3437b89212fae0dfadf
1,2.781,space,1.0546,0,100,100,78,1,,,5c93b062c9d93b0015fcbc02,64391618dff45a099d94d5f2,2023-04-14_10h01.44.547,PRaM,2021.2.3,Win32,144.1129846,61b8f3437b89212fae0dfadf
1,2.2958,space,0.611,0,101,101,44,1,,,5c93b062c9d93b0015fcbc02,64391618dff45a099d94d5f2,2023-04-14_10h01.44.547,PRaM,2021.2.3,Win32,144.1129846,61b8f3437b89212fae0dfadf
1,1.9967,space,0.3057,0,102,102,2,1,,,5c93b062c9d93b0015fcbc02,64391618dff45a099d94d5f2,2023-04-14_10h01.44.547,PRaM,2021.2.3,Win32,144.1129846,61b8f3437b89212fae0dfadf
2,3.341,space,1.6029,0,103,103,236,1,,,5c93b062c9d93b0015fcbc02,64391618dff45a099d94d5f2,2023-04-14_10h01.44.547,PRaM,2021.2.3,Win32,144.1129846,61b8f3437b89212fae0dfadf
2,4.0001,space,2.3177,0,104,104,193,1,,,5c93b062c9d93b0015fcbc02,64391618dff45a099d94d5f2,2023-04-14_10h01.44.547,PRaM,2021.2.3,Win32,144.1129846,61b8f3437b89212fae0dfadf
1,3.9026,space,2.4911,0,105,105,121,1,,,5c93b062c9d93b0015fcbc02,64391618dff45a099d94d5f2,2023-04-14_10h01.44.547,PRaM,2021.2.3,Win32,144.1129846,61b8f3437b89212fae0dfadf
1,2.3367,space,0.666,0,106,106,189,1,,,5c93b062c9d93b0015fcbc02,64391618dff45a099d94d5f2,2023-04-14_10h01.44.547,PRaM,2021.2.3,Win32,144.1129846,61b8f3437b89212fae0dfadf
6,4.7697,space,3.0532,0,107,107,209,1,,,5c93b062c9d93b0015fcbc02,64391618dff45a099d94d5f2,2023-04-14_10h01.44.547,PRaM,2021.2.3,Win32,144.1129846,61b8f3437b89212fae0dfadf
4,3.1328,space,1.4017,0,108,108,96,1,,,5c93b062c9d93b0015fcbc02,64391618dff45a099d94d5f2,2023-04-14_10h01.44.547,PRaM,2021.2.3,Win32,144.1129846,61b8f3437b89212fae0dfadf
2,2.7529,space,1.0271,0,109,109,373,1,,,5c93b062c9d93b0015fcbc02,64391618dff45a099d94d5f2,2023-04-14_10h01.44.547,PRaM,2021.2.3,Win32,144.1129846,61b8f3437b89212fae0dfadf
1,2.3834,space,0.7147,0,110,110,39,1,,,5c93b062c9d93b0015fcbc02,64391618dff45a099d94d5f2,2023-04-14_10h01.44.547,PRaM,2021.2.3,Win32,144.1129846,61b8f3437b89212fae0dfadf
8,3.7016,space,1.9771,0,111,111,244,1,,,5c93b062c9d93b0015fcbc02,64391618dff45a099d94d5f2,2023-04-14_10h01.44.547,PRaM,2021.2.3,Win32,144.1129846,61b8f3437b89212fae0dfadf
1,2.8152,space,1.1377,0,112,112,330,1,,,5c93b062c9d93b0015fcbc02,64391618dff45a099d94d5f2,2023-04-14_10h01.44.547,PRaM,2021.2.3,Win32,144.1129846,61b8f3437b89212fae0dfadf
4,3.5352,space,1.8041,0,113,113,269,1,,,5c93b062c9d93b0015fcbc02,64391618dff45a099d94d5f2,2023-04-14_10h01.44.547,PRaM,2021.2.3,Win32,144.1129846,61b8f3437b89212fae0dfadf
1,5.1514,space,4.066,0,114,114,341,1,,,5c93b062c9d93b0015fcbc02,64391618dff45a099d94d5f2,2023-04-14_10h01.44.547,PRaM,2021.2.3,Win32,144.1129846,61b8f3437b89212fae0dfadf
5,3.634,space,1.9633,0,115,115,357,1,,,5c93b062c9d93b0015fcbc02,64391618dff45a099d94d5f2,2023-04-14_10h01.44.547,PRaM,2021.2.3,Win32,144.1129846,61b8f3437b89212fae0dfadf
1,3.9168,space,2.2897,0,116,116,253,1,,,5c93b062c9d93b0015fcbc02,64391618dff45a099d94d5f2,2023-04-14_10h01.44.547,PRaM,2021.2.3,Win32,144.1129846,61b8f3437b89212fae0dfadf
3,3.8143,space,2.1099,0,117,117,294,1,,,5c93b062c9d93b0015fcbc02,64391618dff45a099d94d5f2,2023-04-14_10h01.44.547,PRaM,2021.2.3,Win32,144.1129846,61b8f3437b89212fae0dfadf
2,3.1608,space,1.4362,0,118,118,346,1,,,5c93b062c9d93b0015fcbc02,64391618dff45a099d94d5f2,2023-04-14_10h01.44.547,PRaM,2021.2.3,Win32,144.1129846,61b8f3437b89212fae0dfadf
1,2.5722,space,0.9023,0,119,119,143,1,,,5c93b062c9d93b0015fcbc02,64391618dff45a099d94d5f2,2023-04-14_10h01.44.547,PRaM,2021.2.3,Win32,144.1129846,61b8f3437b89212fae0dfadf
1,2.0386,space,0.5147,0,120,120,112,1,,,5c93b062c9d93b0015fcbc02,64391618dff45a099d94d5f2,2023-04-14_10h01.44.547,PRaM,2021.2.3,Win32,144.1129846,61b8f3437b89212fae0dfadf
1,1.6851,space,0.0351,0,121,121,359,1,,,5c93b062c9d93b0015fcbc02,64391618dff45a099d94d5f2,2023-04-14_10h01.44.547,PRaM,2021.2.3,Win32,144.1129846,61b8f3437b89212fae0dfadf
1,1.6781,space,0.0418,0,122,122,245,1,,,5c93b062c9d93b0015fcbc02,64391618dff45a099d94d5f2,2023-04-14_10h01.44.547,PRaM,2021.2.3,Win32,144.1129846,61b8f3437b89212fae0dfadf
8,2.9748,space,1.4639,0,123,123,64,1,,,5c93b062c9d93b0015fcbc02,64391618dff45a099d94d5f2,2023-04-14_10h01.44.547,PRaM,2021.2.3,Win32,144.1129846,61b8f3437b89212fae0dfadf
7,2.7533,space,1.0894,0,124,124,149,1,,,5c93b062c9d93b0015fcbc02,64391618dff45a099d94d5f2,2023-04-14_10h01.44.547,PRaM,2021.2.3,Win32,144.1129846,61b8f3437b89212fae0dfadf
4,3.535,space,1.8249,0,125,125,46,1,,,5c93b062c9d93b0015fcbc02,64391618dff45a099d94d5f2,2023-04-14_10h01.44.547,PRaM,2021.2.3,Win32,144.1129846,61b8f3437b89212fae0dfadf
5,2.413,space,0.6456,0,126,126,337,1,,,5c93b062c9d93b0015fcbc02,64391618dff45a099d94d5f2,2023-04-14_10h01.44.547,PRaM,2021.2.3,Win32,144.1129846,61b8f3437b89212fae0dfadf
1,2.8836,space,1.1385,0,127,127,111,1,,,5c93b062c9d93b0015fcbc02,64391618dff45a099d94d5f2,2023-04-14_10h01.44.547,PRaM,2021.2.3,Win32,144.1129846,61b8f3437b89212fae0dfadf
6,3.2166,space,1.5058,0,128,128,142,1,,,5c93b062c9d93b0015fcbc02,64391618dff45a099d94d5f2,2023-04-14_10h01.44.547,PRaM,2021.2.3,Win32,144.1129846,61b8f3437b89212fae0dfadf
8,3.1761,space,1.5126,0,129,129,53,1,,,5c93b062c9d93b0015fcbc02,64391618dff45a099d94d5f2,2023-04-14_10h01.44.547,PRaM,2021.2.3,Win32,144.1129846,61b8f3437b89212fae0dfadf
5,3.4049,space,1.6516,0,130,130,252,1,,,5c93b062c9d93b0015fcbc02,64391618dff45a099d94d5f2,2023-04-14_10h01.44.547,PRaM,2021.2.3,Win32,144.1129846,61b8f3437b89212fae0dfadf
9,5.1172,space,3.4904,0,131,131,320,1,,,5c93b062c9d93b0015fcbc02,64391618dff45a099d94d5f2,2023-04-14_10h01.44.547,PRaM,2021.2.3,Win32,144.1129846,61b8f3437b89212fae0dfadf
1,2.9125,space,1.2494,0,132,132,295,1,,,5c93b062c9d93b0015fcbc02,64391618dff45a099d94d5f2,2023-04-14_10h01.44.547,PRaM,2021.2.3,Win32,144.1129846,61b8f3437b89212fae0dfadf
1,2.9199,space,1.2421,0,133,133,260,1,,,5c93b062c9d93b0015fcbc02,64391618dff45a099d94d5f2,2023-04-14_10h01.44.547,PRaM,2021.2.3,Win32,144.1129846,61b8f3437b89212fae0dfadf
1,1.6569,space,0.014,0,134,134,220,1,,,5c93b062c9d93b0015fcbc02,64391618dff45a099d94d5f2,2023-04-14_10h01.44.547,PRaM,2021.2.3,Win32,144.1129846,61b8f3437b89212fae0dfadf
1,1.8512,space,0.2011,0,135,135,18,1,,,5c93b062c9d93b0015fcbc02,64391618dff45a099d94d5f2,2023-04-14_10h01.44.547,PRaM,2021.2.3,Win32,144.1129846,61b8f3437b89212fae0dfadf
3,2.64,space,0.9302,0,136,136,141,1,,,5c93b062c9d93b0015fcbc02,64391618dff45a099d94d5f2,2023-04-14_10h01.44.547,PRaM,2021.2.3,Win32,144.1129846,61b8f3437b89212fae0dfadf
2,2.7944,space,1.0615,0,137,137,261,1,,,5c93b062c9d93b0015fcbc02,64391618dff45a099d94d5f2,2023-04-14_10h01.44.547,PRaM,2021.2.3,Win32,144.1129846,61b8f3437b89212fae0dfadf
1,2.7028,space,0.979,0,138,138,292,1,,,5c93b062c9d93b0015fcbc02,64391618dff45a099d94d5f2,2023-04-14_10h01.44.547,PRaM,2021.2.3,Win32,144.1129846,61b8f3437b89212fae0dfadf
2,3.8154,space,2.1024,0,139,139,33,1,,,5c93b062c9d93b0015fcbc02,64391618dff45a099d94d5f2,2023-04-14_10h01.44.547,PRaM,2021.2.3,Win32,144.1129846,61b8f3437b89212fae0dfadf
7,3.5003,space,1.7976,0,140,140,319,1,,,5c93b062c9d93b0015fcbc02,64391618dff45a099d94d5f2,2023-04-14_10h01.44.547,PRaM,2021.2.3,Win32,144.1129846,61b8f3437b89212fae0dfadf
1,2.8151,space,1.0755,0,141,141,190,1,,,5c93b062c9d93b0015fcbc02,64391618dff45a099d94d5f2,2023-04-14_10h01.44.547,PRaM,2021.2.3,Win32,144.1129846,61b8f3437b89212fae0dfadf
9,4.0556,space,2.3739,0,142,142,221,1,,,5c93b062c9d93b0015fcbc02,64391618dff45a099d94d5f2,2023-04-14_10h01.44.547,PRaM,2021.2.3,Win32,144.1129846,61b8f3437b89212fae0dfadf
1,3.9791,space,2.3108,0,143,143,54,1,,,5c93b062c9d93b0015fcbc02,64391618dff45a099d94d5f2,2023-04-14_10h01.44.547,PRaM,2021.2.3,Win32,144.1129846,61b8f3437b89212fae0dfadf
1,1.6431,space,0.4721,0,144,144,240,1,,,5c93b062c9d93b0015fcbc02,64391618dff45a099d94d5f2,2023-04-14_10h01.44.547,PRaM,2021.2.3,Win32,144.1129846,61b8f3437b89212fae0dfadf
4,3.3266,space,1.6167,0,145,145,158,1,,,5c93b062c9d93b0015fcbc02,64391618dff45a099d94d5f2,2023-04-14_10h01.44.547,PRaM,2021.2.3,Win32,144.1129846,61b8f3437b89212fae0dfadf
2,3.4933,space,1.7554,0,146,146,43,1,,,5c93b062c9d93b0015fcbc02,64391618dff45a099d94d5f2,2023-04-14_10h01.44.547,PRaM,2021.2.3,Win32,144.1129846,61b8f3437b89212fae0dfadf
7,2.9886,space,1.7071,0,147,147,66,1,,,5c93b062c9d93b0015fcbc02,64391618dff45a099d94d5f2,2023-04-14_10h01.44.547,PRaM,2021.2.3,Win32,144.1129846,61b8f3437b89212fae0dfadf
4,3.8425,space,2.1165,0,148,148,249,1,,,5c93b062c9d93b0015fcbc02,64391618dff45a099d94d5f2,2023-04-14_10h01.44.547,PRaM,2021.2.3,Win32,144.1129846,61b8f3437b89212fae0dfadf
9,2.7815,space,1.0547,0,149,149,276,1,,,5c93b062c9d93b0015fcbc02,64391618dff45a099d94d5f2,2023-04-14_10h01.44.547,PRaM,2021.2.3,Win32,144.1129846,61b8f3437b89212fae0dfadf
3,2.5931,space,0.8605,0,150,150,132,1,,,5c93b062c9d93b0015fcbc02,64391618dff45a099d94d5f2,2023-04-14_10h01.44.547,PRaM,2021.2.3,Win32,144.1129846,61b8f3437b89212fae0dfadf
6,3.4536,space,1.8945,0,151,151,140,1,,,5c93b062c9d93b0015fcbc02,64391618dff45a099d94d5f2,2023-04-14_10h01.44.547,PRaM,2021.2.3,Win32,144.1129846,61b8f3437b89212fae0dfadf
1,2.4734,space,0.7496,0,152,152,52,1,,,5c93b062c9d93b0015fcbc02,64391618dff45a099d94d5f2,2023-04-14_10h01.44.547,PRaM,2021.2.3,Win32,144.1129846,61b8f3437b89212fae0dfadf
5,2.5865,space,0.8884,0,153,153,22,1,,,5c93b062c9d93b0015fcbc02,64391618dff45a099d94d5f2,2023-04-14_10h01.44.547,PRaM,2021.2.3,Win32,144.1129846,61b8f3437b89212fae0dfadf
1,3.1814,space,1.457,0,154,154,195,1,,,5c93b062c9d93b0015fcbc02,64391618dff45a099d94d5f2,2023-04-14_10h01.44.547,PRaM,2021.2.3,Win32,144.1129846,61b8f3437b89212fae0dfadf
6,3.5211,space,1.7836,0,155,155,168,1,,,5c93b062c9d93b0015fcbc02,64391618dff45a099d94d5f2,2023-04-14_10h01.44.547,PRaM,2021.2.3,Win32,144.1129846,61b8f3437b89212fae0dfadf
1,2.7114,space,0.9368,0,156,156,305,1,,,5c93b062c9d93b0015fcbc02,64391618dff45a099d94d5f2,2023-04-14_10h01.44.547,PRaM,2021.2.3,Win32,144.1129846,61b8f3437b89212fae0dfadf
1,1.8024,space,0.0971,0,157,157,135,1,,,5c93b062c9d93b0015fcbc02,64391618dff45a099d94d5f2,2023-04-14_10h01.44.547,PRaM,2021.2.3,Win32,144.1129846,61b8f3437b89212fae0dfadf
1,1.7747,space,0.0697,0,158,158,219,1,,,5c93b062c9d93b0015fcbc02,64391618dff45a099d94d5f2,2023-04-14_10h01.44.547,PRaM,2021.2.3,Win32,144.1129846,61b8f3437b89212fae0dfadf
1,1.8232,space,0.1389,0,159,159,31,1,,,5c93b062c9d93b0015fcbc02,64391618dff45a099d94d5f2,2023-04-14_10h01.44.547,PRaM,2021.2.3,Win32,144.1129846,61b8f3437b89212fae0dfadf
1,1.9624,space,0.2849,0,160,160,9,1,,,5c93b062c9d93b0015fcbc02,64391618dff45a099d94d5f2,2023-04-14_10h01.44.547,PRaM,2021.2.3,Win32,144.1129846,61b8f3437b89212fae0dfadf
,,space,0.4791,0,161,161,296,1,,,5c93b062c9d93b0015fcbc02,64391618dff45a099d94d5f2,2023-04-14_10h01.44.547,PRaM,2021.2.3,Win32,144.1129846,61b8f3437b89212fae0dfadf
5,2.5936,space,1.0969,0,162,162,137,1,,,5c93b062c9d93b0015fcbc02,64391618dff45a099d94d5f2,2023-04-14_10h01.44.547,PRaM,2021.2.3,Win32,144.1129846,61b8f3437b89212fae0dfadf
3,5.2911,space,3.8719,0,163,163,367,1,,,5c93b062c9d93b0015fcbc02,64391618dff45a099d94d5f2,2023-04-14_10h01.44.547,PRaM,2021.2.3,Win32,144.1129846,61b8f3437b89212fae0dfadf
4,4.4713,space,2.7612,0,164,164,223,1,,,5c93b062c9d93b0015fcbc02,64391618dff45a099d94d5f2,2023-04-14_10h01.44.547,PRaM,2021.2.3,Win32,144.1129846,61b8f3437b89212fae0dfadf
3,4.9574,space,3.2549,0,165,165,355,1,,,5c93b062c9d93b0015fcbc02,64391618dff45a099d94d5f2,2023-04-14_10h01.44.547,PRaM,2021.2.3,Win32,144.1129846,61b8f3437b89212fae0dfadf
1,4.3534,space,2.7266,0,166,166,128,1,,,5c93b062c9d93b0015fcbc02,64391618dff45a099d94d5f2,2023-04-14_10h01.44.547,PRaM,2021.2.3,Win32,144.1129846,61b8f3437b89212fae0dfadf
6,3.3704,space,1.7414,0,167,167,259,1,,,5c93b062c9d93b0015fcbc02,64391618dff45a099d94d5f2,2023-04-14_10h01.44.547,PRaM,2021.2.3,Win32,144.1129846,61b8f3437b89212fae0dfadf
1,2.7668,space,1.1102,0,168,168,105,1,,,5c93b062c9d93b0015fcbc02,64391618dff45a099d94d5f2,2023-04-14_10h01.44.547,PRaM,2021.2.3,Win32,144.1129846,61b8f3437b89212fae0dfadf
4,3.3406,space,1.6723,0,169,169,92,1,,,5c93b062c9d93b0015fcbc02,64391618dff45a099d94d5f2,2023-04-14_10h01.44.547,PRaM,2021.2.3,Win32,144.1129846,61b8f3437b89212fae0dfadf
6,3.5006,space,1.7973,0,170,170,83,1,,,5c93b062c9d93b0015fcbc02,64391618dff45a099d94d5f2,2023-04-14_10h01.44.547,PRaM,2021.2.3,Win32,144.1129846,61b8f3437b89212fae0dfadf
5,3.0577,space,1.3951,0,171,171,165,1,,,5c93b062c9d93b0015fcbc02,64391618dff45a099d94d5f2,2023-04-14_10h01.44.547,PRaM,2021.2.3,Win32,144.1129846,61b8f3437b89212fae0dfadf
1,3.8539,space,2.1784,0,172,172,26,1,,,5c93b062c9d93b0015fcbc02,64391618dff45a099d94d5f2,2023-04-14_10h01.44.547,PRaM,2021.2.3,Win32,144.1129846,61b8f3437b89212fae0dfadf
7,2.4544,space,0.7779,0,173,173,288,1,,,5c93b062c9d93b0015fcbc02,64391618dff45a099d94d5f2,2023-04-14_10h01.44.547,PRaM,2021.2.3,Win32,144.1129846,61b8f3437b89212fae0dfadf
1,3.0634,space,1.3878,0,174,174,210,1,,,5c93b062c9d93b0015fcbc02,64391618dff45a099d94d5f2,2023-04-14_10h01.44.547,PRaM,2021.2.3,Win32,144.1129846,61b8f3437b89212fae0dfadf
1,2.4059,space,0.7356,0,175,175,5,1,,,5c93b062c9d93b0015fcbc02,64391618dff45a099d94d5f2,2023-04-14_10h01.44.547,PRaM,2021.2.3,Win32,144.1129846,61b8f3437b89212fae0dfadf
1,1.4625,space,1.2079,0,176,176,15,1,,,5c93b062c9d93b0015fcbc02,64391618dff45a099d94d5f2,2023-04-14_10h01.44.547,PRaM,2021.2.3,Win32,144.1129846,61b8f3437b89212fae0dfadf
1,4.7354,space,3.0525,0,177,177,167,1,,,5c93b062c9d93b0015fcbc02,64391618dff45a099d94d5f2,2023-04-14_10h01.44.547,PRaM,2021.2.3,Win32,144.1129846,61b8f3437b89212fae0dfadf
1,1.8651,space,0.1529,0,178,178,231,1,,,5c93b062c9d93b0015fcbc02,64391618dff45a099d94d5f2,2023-04-14_10h01.44.547,PRaM,2021.2.3,Win32,144.1129846,61b8f3437b89212fae0dfadf
1,1.6986,space,0.7772,0,179,179,226,1,,,5c93b062c9d93b0015fcbc02,64391618dff45a099d94d5f2,2023-04-14_10h01.44.547,PRaM,2021.2.3,Win32,144.1129846,61b8f3437b89212fae0dfadf
1,1.6779,space,0.1113,0,180,180,148,1,,,5c93b062c9d93b0015fcbc02,64391618dff45a099d94d5f2,2023-04-14_10h01.44.547,PRaM,2021.2.3,Win32,144.1129846,61b8f3437b89212fae0dfadf
1,1.6707,space,0.4444,0,181,181,375,1,,,5c93b062c9d93b0015fcbc02,64391618dff45a099d94d5f2,2023-04-14_10h01.44.547,PRaM,2021.2.3,Win32,144.1129846,61b8f3437b89212fae0dfadf
4,2.8967,space,1.1657,0,182,182,282,1,,,5c93b062c9d93b0015fcbc02,64391618dff45a099d94d5f2,2023-04-14_10h01.44.547,PRaM,2021.2.3,Win32,144.1129846,61b8f3437b89212fae0dfadf
2,4.3417,space,2.6368,0,183,183,316,1,,,5c93b062c9d93b0015fcbc02,64391618dff45a099d94d5f2,2023-04-14_10h01.44.547,PRaM,2021.2.3,Win32,144.1129846,61b8f3437b89212fae0dfadf
5,3.0787,space,1.3599,0,184,184,154,1,,,5c93b062c9d93b0015fcbc02,64391618dff45a099d94d5f2,2023-04-14_10h01.44.547,PRaM,2021.2.3,Win32,144.1129846,61b8f3437b89212fae0dfadf
1,2.4753,space,0.7775,0,185,185,206,1,,,5c93b062c9d93b0015fcbc02,64391618dff45a099d94d5f2,2023-04-14_10h01.44.547,PRaM,2021.2.3,Win32,144.1129846,61b8f3437b89212fae0dfadf
1,1.9276,space,0.2085,0,186,186,1,1,,,5c93b062c9d93b0015fcbc02,64391618dff45a099d94d5f2,2023-04-14_10h01.44.547,PRaM,2021.2.3,Win32,144.1129846,61b8f3437b89212fae0dfadf
5,3.4048,space,1.8942,0,187,187,313,1,,,5c93b062c9d93b0015fcbc02,64391618dff45a099d94d5f2,2023-04-14_10h01.44.547,PRaM,2021.2.3,Win32,144.1129846,61b8f3437b89212fae0dfadf
,,space,0.5488,0,188,188,213,1,,,5c93b062c9d93b0015fcbc02,64391618dff45a099d94d5f2,2023-04-14_10h01.44.547,PRaM,2021.2.3,Win32,144.1129846,61b8f3437b89212fae0dfadf
1,4.6965,space,3.2052,0,189,189,203,1,,,5c93b062c9d93b0015fcbc02,64391618dff45a099d94d5f2,2023-04-14_10h01.44.547,PRaM,2021.2.3,Win32,144.1129846,61b8f3437b89212fae0dfadf
1,1.733,space,0.0835,0,190,190,354,1,,,5c93b062c9d93b0015fcbc02,64391618dff45a099d94d5f2,2023-04-14_10h01.44.547,PRaM,2021.2.3,Win32,144.1129846,61b8f3437b89212fae0dfadf
1,1.3736,space,0.8951,0,191,191,49,1,,,5c93b062c9d93b0015fcbc02,64391618dff45a099d94d5f2,2023-04-14_10h01.44.547,PRaM,2021.2.3,Win32,144.1129846,61b8f3437b89212fae0dfadf
5,2.8708,space,1.2417,0,192,192,16,1,,,5c93b062c9d93b0015fcbc02,64391618dff45a099d94d5f2,2023-04-14_10h01.44.547,PRaM,2021.2.3,Win32,144.1129846,61b8f3437b89212fae0dfadf
5,6.048,space,4.3778,0,193,193,370,1,,,5c93b062c9d93b0015fcbc02,64391618dff45a099d94d5f2,2023-04-14_10h01.44.547,PRaM,2021.2.3,Win32,144.1129846,61b8f3437b89212fae0dfadf
3,4.2362,space,2.5115,0,194,194,290,1,,,5c93b062c9d93b0015fcbc02,64391618dff45a099d94d5f2,2023-04-14_10h01.44.547,PRaM,2021.2.3,Win32,144.1129846,61b8f3437b89212fae0dfadf
4,2.6626,space,0.9227,0,195,195,115,1,,,5c93b062c9d93b0015fcbc02,64391618dff45a099d94d5f2,2023-04-14_10h01.44.547,PRaM,2021.2.3,Win32,144.1129846,61b8f3437b89212fae0dfadf
5,2.8015,space,1.1309,0,196,196,365,1,,,5c93b062c9d93b0015fcbc02,64391618dff45a099d94d5f2,2023-04-14_10h01.44.547,PRaM,2021.2.3,Win32,144.1129846,61b8f3437b89212fae0dfadf
1,2.4757,space,0.84,0,197,197,8,1,,,5c93b062c9d93b0015fcbc02,64391618dff45a099d94d5f2,2023-04-14_10h01.44.547,PRaM,2021.2.3,Win32,144.1129846,61b8f3437b89212fae0dfadf
1,1.9896,space,0.3196,0,198,198,57,1,,,5c93b062c9d93b0015fcbc02,64391618dff45a099d94d5f2,2023-04-14_10h01.44.547,PRaM,2021.2.3,Win32,144.1129846,61b8f3437b89212fae0dfadf
5,3.1208,space,1.4159,0,199,199,166,1,,,5c93b062c9d93b0015fcbc02,64391618dff45a099d94d5f2,2023-04-14_10h01.44.547,PRaM,2021.2.3,Win32,144.1129846,61b8f3437b89212fae0dfadf
4,2.5936,space,0.8468,0,200,200,273,1,,,5c93b062c9d93b0015fcbc02,64391618dff45a099d94d5f2,2023-04-14_10h01.44.547,PRaM,2021.2.3,Win32,144.1129846,61b8f3437b89212fae0dfadf
1,2.6127,space,0.9371,0,201,201,161,1,,,5c93b062c9d93b0015fcbc02,64391618dff45a099d94d5f2,2023-04-14_10h01.44.547,PRaM,2021.2.3,Win32,144.1129846,61b8f3437b89212fae0dfadf
1,1.5527,space,0.7288,0,202,202,79,1,,,5c93b062c9d93b0015fcbc02,64391618dff45a099d94d5f2,2023-04-14_10h01.44.547,PRaM,2021.2.3,Win32,144.1129846,61b8f3437b89212fae0dfadf
1,1.6845,space,0.4654,0,203,203,63,1,,,5c93b062c9d93b0015fcbc02,64391618dff45a099d94d5f2,2023-04-14_10h01.44.547,PRaM,2021.2.3,Win32,144.1129846,61b8f3437b89212fae0dfadf
1,1.7955,space,0.3193,0,204,204,138,1,,,5c93b062c9d93b0015fcbc02,64391618dff45a099d94d5f2,2023-04-14_10h01.44.547,PRaM,2021.2.3,Win32,144.1129846,61b8f3437b89212fae0dfadf
1,1.6499,space,0.0006,0,205,205,275,1,,,5c93b062c9d93b0015fcbc02,64391618dff45a099d94d5f2,2023-04-14_10h01.44.547,PRaM,2021.2.3,Win32,144.1129846,61b8f3437b89212fae0dfadf
4,3.1969,space,1.5471,0,206,206,179,1,,,5c93b062c9d93b0015fcbc02,64391618dff45a099d94d5f2,2023-04-14_10h01.44.547,PRaM,2021.2.3,Win32,144.1129846,61b8f3437b89212fae0dfadf
1,2.4041,space,0.7359,0,207,207,315,1,,,5c93b062c9d93b0015fcbc02,64391618dff45a099d94d5f2,2023-04-14_10h01.44.547,PRaM,2021.2.3,Win32,144.1129846,61b8f3437b89212fae0dfadf
1,2.2677,space,0.583,0,208,208,126,1,,,5c93b062c9d93b0015fcbc02,64391618dff45a099d94d5f2,2023-04-14_10h01.44.547,PRaM,2021.2.3,Win32,144.1129846,61b8f3437b89212fae0dfadf
1,1.7678,space,0.0836,0,209,209,243,1,,,5c93b062c9d93b0015fcbc02,64391618dff45a099d94d5f2,2023-04-14_10h01.44.547,PRaM,2021.2.3,Win32,144.1129846,61b8f3437b89212fae0dfadf
3,3.2872,space,1.5821,0,210,210,134,1,,,5c93b062c9d93b0015fcbc02,64391618dff45a099d94d5f2,2023-04-14_10h01.44.547,PRaM,2021.2.3,Win32,144.1129846,61b8f3437b89212fae0dfadf
4,2.3506,space,0.6734,0,211,211,336,1,,,5c93b062c9d93b0015fcbc02,64391618dff45a099d94d5f2,2023-04-14_10h01.44.547,PRaM,2021.2.3,Win32,144.1129846,61b8f3437b89212fae0dfadf
4,3.2791,space,1.5614,0,212,212,327,1,,,5c93b062c9d93b0015fcbc02,64391618dff45a099d94d5f2,2023-04-14_10h01.44.547,PRaM,2021.2.3,Win32,144.1129846,61b8f3437b89212fae0dfadf
5,2.4472,space,0.7426,0,213,213,361,1,,,5c93b062c9d93b0015fcbc02,64391618dff45a099d94d5f2,2023-04-14_10h01.44.547,PRaM,2021.2.3,Win32,144.1129846,61b8f3437b89212fae0dfadf
1,5.6094,space,3.9343,0,214,214,229,1,,,5c93b062c9d93b0015fcbc02,64391618dff45a099d94d5f2,2023-04-14_10h01.44.547,PRaM,2021.2.3,Win32,144.1129846,61b8f3437b89212fae0dfadf
6,2.876,space,1.2493,0,215,215,279,1,,,5c93b062c9d93b0015fcbc02,64391618dff45a099d94d5f2,2023-04-14_10h01.44.547,PRaM,2021.2.3,Win32,144.1129846,61b8f3437b89212fae0dfadf
2,2.9192,space,1.187,0,216,216,90,1,,,5c93b062c9d93b0015fcbc02,64391618dff45a099d94d5f2,2023-04-14_10h01.44.547,PRaM,2021.2.3,Win32,144.1129846,61b8f3437b89212fae0dfadf
1,2.4477,space,0.7773,0,217,217,227,1,,,5c93b062c9d93b0015fcbc02,64391618dff45a099d94d5f2,2023-04-14_10h01.44.547,PRaM,2021.2.3,Win32,144.1129846,61b8f3437b89212fae0dfadf
1,1.6155,space,0.5969,0,218,218,13,1,,,5c93b062c9d93b0015fcbc02,64391618dff45a099d94d5f2,2023-04-14_10h01.44.547,PRaM,2021.2.3,Win32,144.1129846,61b8f3437b89212fae0dfadf
1,1.8034,space,0.1398,0,219,219,169,1,,,5c93b062c9d93b0015fcbc02,64391618dff45a099d94d5f2,2023-04-14_10h01.44.547,PRaM,2021.2.3,Win32,144.1129846,61b8f3437b89212fae0dfadf
1,1.5395,space,0.3124,0,220,220,36,1,,,5c93b062c9d93b0015fcbc02,64391618dff45a099d94d5f2,2023-04-14_10h01.44.547,PRaM,2021.2.3,Win32,144.1129846,61b8f3437b89212fae0dfadf
1,1.5388,space,0.4379,0,221,221,286,1,,,5c93b062c9d93b0015fcbc02,64391618dff45a099d94d5f2,2023-04-14_10h01.44.547,PRaM,2021.2.3,Win32,144.1129846,61b8f3437b89212fae0dfadf
1,1.5381,space,0.6815,0,222,222,101,1,,,5c93b062c9d93b0015fcbc02,64391618dff45a099d94d5f2,2023-04-14_10h01.44.547,PRaM,2021.2.3,Win32,144.1129846,61b8f3437b89212fae0dfadf
1,2.2186,space,0.6314,0,223,223,28,1,,,5c93b062c9d93b0015fcbc02,64391618dff45a099d94d5f2,2023-04-14_10h01.44.547,PRaM,2021.2.3,Win32,144.1129846,61b8f3437b89212fae0dfadf
1,4.3616,space,2.6761,0,224,224,258,1,,,5c93b062c9d93b0015fcbc02,64391618dff45a099d94d5f2,2023-04-14_10h01.44.547,PRaM,2021.2.3,Win32,144.1129846,61b8f3437b89212fae0dfadf
4,3.4595,space,1.7143,0,225,225,317,1,,,5c93b062c9d93b0015fcbc02,64391618dff45a099d94d5f2,2023-04-14_10h01.44.547,PRaM,2021.2.3,Win32,144.1129846,61b8f3437b89212fae0dfadf
1,5.5701,space,3.9819,0,226,226,299,1,,,5c93b062c9d93b0015fcbc02,64391618dff45a099d94d5f2,2023-04-14_10h01.44.547,PRaM,2021.2.3,Win32,144.1129846,61b8f3437b89212fae0dfadf
1,1.3596,space,0.2694,0,227,227,291,1,,,5c93b062c9d93b0015fcbc02,64391618dff45a099d94d5f2,2023-04-14_10h01.44.547,PRaM,2021.2.3,Win32,144.1129846,61b8f3437b89212fae0dfadf
4,2.9461,space,1.3029,0,228,228,174,1,,,5c93b062c9d93b0015fcbc02,64391618dff45a099d94d5f2,2023-04-14_10h01.44.547,PRaM,2021.2.3,Win32,144.1129846,61b8f3437b89212fae0dfadf
5,2.7656,space,1.135,0,229,229,139,1,,,5c93b062c9d93b0015fcbc02,64391618dff45a099d94d5f2,2023-04-14_10h01.44.547,PRaM,2021.2.3,Win32,144.1129846,61b8f3437b89212fae0dfadf
6,4.2442,space,3.3203,0,230,230,335,1,,,5c93b062c9d93b0015fcbc02,64391618dff45a099d94d5f2,2023-04-14_10h01.44.547,PRaM,2021.2.3,Win32,144.1129846,61b8f3437b89212fae0dfadf
6,3.4807,space,1.8225,0,231,231,321,1,,,5c93b062c9d93b0015fcbc02,64391618dff45a099d94d5f2,2023-04-14_10h01.44.547,PRaM,2021.2.3,Win32,144.1129846,61b8f3437b89212fae0dfadf
5,3.3038,space,1.6481,0,232,232,358,1,,,5c93b062c9d93b0015fcbc02,64391618dff45a099d94d5f2,2023-04-14_10h01.44.547,PRaM,2021.2.3,Win32,144.1129846,61b8f3437b89212fae0dfadf
1,4.3301,space,3.3009,0,233,233,232,1,,,5c93b062c9d93b0015fcbc02,64391618dff45a099d94d5f2,2023-04-14_10h01.44.547,PRaM,2021.2.3,Win32,144.1129846,61b8f3437b89212fae0dfadf
1,3.3107,space,1.6928,0,234,234,344,1,,,5c93b062c9d93b0015fcbc02,64391618dff45a099d94d5f2,2023-04-14_10h01.44.547,PRaM,2021.2.3,Win32,144.1129846,61b8f3437b89212fae0dfadf
4,4.3581,space,2.6853,0,235,235,32,1,,,5c93b062c9d93b0015fcbc02,64391618dff45a099d94d5f2,2023-04-14_10h01.44.547,PRaM,2021.2.3,Win32,144.1129846,61b8f3437b89212fae0dfadf
4,1.7049,space,0.3289,0,236,236,45,1,,,5c93b062c9d93b0015fcbc02,64391618dff45a099d94d5f2,2023-04-14_10h01.44.547,PRaM,2021.2.3,Win32,144.1129846,61b8f3437b89212fae0dfadf
5,2.5651,space,0.8535,0,237,237,278,1,,,5c93b062c9d93b0015fcbc02,64391618dff45a099d94d5f2,2023-04-14_10h01.44.547,PRaM,2021.2.3,Win32,144.1129846,61b8f3437b89212fae0dfadf
1,4.268,space,2.6584,0,238,238,266,1,,,5c93b062c9d93b0015fcbc02,64391618dff45a099d94d5f2,2023-04-14_10h01.44.547,PRaM,2021.2.3,Win32,144.1129846,61b8f3437b89212fae0dfadf
1,1.5573,space,0.4118,0,239,239,362,1,,,5c93b062c9d93b0015fcbc02,64391618dff45a099d94d5f2,2023-04-14_10h01.44.547,PRaM,2021.2.3,Win32,144.1129846,61b8f3437b89212fae0dfadf
1,1.4765,space,0.4579,0,240,240,343,1,,,5c93b062c9d93b0015fcbc02,64391618dff45a099d94d5f2,2023-04-14_10h01.44.547,PRaM,2021.2.3,Win32,144.1129846,61b8f3437b89212fae0dfadf
5,3.5617,space,1.9012,0,241,241,318,1,,,5c93b062c9d93b0015fcbc02,64391618dff45a099d94d5f2,2023-04-14_10h01.44.547,PRaM,2021.2.3,Win32,144.1129846,61b8f3437b89212fae0dfadf
1,3.7889,space,2.2144,0,242,242,283,1,,,5c93b062c9d93b0015fcbc02,64391618dff45a099d94d5f2,2023-04-14_10h01.44.547,PRaM,2021.2.3,Win32,144.1129846,61b8f3437b89212fae0dfadf
5,2.8912,space,1.2914,0,243,243,366,1,,,5c93b062c9d93b0015fcbc02,64391618dff45a099d94d5f2,2023-04-14_10h01.44.547,PRaM,2021.2.3,Win32,144.1129846,61b8f3437b89212fae0dfadf
6,3.3891,space,1.7325,0,244,244,144,1,,,5c93b062c9d93b0015fcbc02,64391618dff45a099d94d5f2,2023-04-14_10h01.44.547,PRaM,2021.2.3,Win32,144.1129846,61b8f3437b89212fae0dfadf
7,3.4099,space,1.7859,0,245,245,38,1,,,5c93b062c9d93b0015fcbc02,64391618dff45a099d94d5f2,2023-04-14_10h01.44.547,PRaM,2021.2.3,Win32,144.1129846,61b8f3437b89212fae0dfadf
1,4.6426,space,3.3314,0,246,246,87,1,,,5c93b062c9d93b0015fcbc02,64391618dff45a099d94d5f2,2023-04-14_10h01.44.547,PRaM,2021.2.3,Win32,144.1129846,61b8f3437b89212fae0dfadf
1,1.484,space,0.5718,0,247,247,106,1,,,5c93b062c9d93b0015fcbc02,64391618dff45a099d94d5f2,2023-04-14_10h01.44.547,PRaM,2021.2.3,Win32,144.1129846,61b8f3437b89212fae0dfadf
6,3.6712,space,2.283,0,248,248,280,1,,,5c93b062c9d93b0015fcbc02,64391618dff45a099d94d5f2,2023-04-14_10h01.44.547,PRaM,2021.2.3,Win32,144.1129846,61b8f3437b89212fae0dfadf
1,2.967,space,1.5269,0,249,249,314,1,,,5c93b062c9d93b0015fcbc02,64391618dff45a099d94d5f2,2023-04-14_10h01.44.547,PRaM,2021.2.3,Win32,144.1129846,61b8f3437b89212fae0dfadf
1,1.8173,space,0.2038,0,250,250,262,1,,,5c93b062c9d93b0015fcbc02,64391618dff45a099d94d5f2,2023-04-14_10h01.44.547,PRaM,2021.2.3,Win32,144.1129846,61b8f3437b89212fae0dfadf
1,1.6981,space,0.4717,0,251,251,360,1,,,5c93b062c9d93b0015fcbc02,64391618dff45a099d94d5f2,2023-04-14_10h01.44.547,PRaM,2021.2.3,Win32,144.1129846,61b8f3437b89212fae0dfadf
6,2.9226,space,1.3253,0,252,252,42,1,,,5c93b062c9d93b0015fcbc02,64391618dff45a099d94d5f2,2023-04-14_10h01.44.547,PRaM,2021.2.3,Win32,144.1129846,61b8f3437b89212fae0dfadf
1,3.0716,space,1.4293,0,253,253,339,1,,,5c93b062c9d93b0015fcbc02,64391618dff45a099d94d5f2,2023-04-14_10h01.44.547,PRaM,2021.2.3,Win32,144.1129846,61b8f3437b89212fae0dfadf
8,3.7461,space,2.2387,0,254,254,242,1,,,5c93b062c9d93b0015fcbc02,64391618dff45a099d94d5f2,2023-04-14_10h01.44.547,PRaM,2021.2.3,Win32,144.1129846,61b8f3437b89212fae0dfadf
4,3.0625,space,1.4229,0,255,255,192,1,,,5c93b062c9d93b0015fcbc02,64391618dff45a099d94d5f2,2023-04-14_10h01.44.547,PRaM,2021.2.3,Win32,144.1129846,61b8f3437b89212fae0dfadf
7,2.9524,space,1.31,0,256,256,208,1,,,5c93b062c9d93b0015fcbc02,64391618dff45a099d94d5f2,2023-04-14_10h01.44.547,PRaM,2021.2.3,Win32,144.1129846,61b8f3437b89212fae0dfadf
1,3.2137,space,1.5517,0,257,257,74,1,,,5c93b062c9d93b0015fcbc02,64391618dff45a099d94d5f2,2023-04-14_10h01.44.547,PRaM,2021.2.3,Win32,144.1129846,61b8f3437b89212fae0dfadf
1,2.6837,space,1.1031,0,258,258,347,1,,,5c93b062c9d93b0015fcbc02,64391618dff45a099d94d5f2,2023-04-14_10h01.44.547,PRaM,2021.2.3,Win32,144.1129846,61b8f3437b89212fae0dfadf
1,2.2168,space,0.7123,0,259,259,183,1,,,5c93b062c9d93b0015fcbc02,64391618dff45a099d94d5f2,2023-04-14_10h01.44.547,PRaM,2021.2.3,Win32,144.1129846,61b8f3437b89212fae0dfadf
1,1.9276,space,0.2987,0,260,260,202,1,,,5c93b062c9d93b0015fcbc02,64391618dff45a099d94d5f2,2023-04-14_10h01.44.547,PRaM,2021.2.3,Win32,144.1129846,61b8f3437b89212fae0dfadf
1,1.4051,space,0.4028,0,261,261,191,1,,,5c93b062c9d93b0015fcbc02,64391618dff45a099d94d5f2,2023-04-14_10h01.44.547,PRaM,2021.2.3,Win32,144.1129846,61b8f3437b89212fae0dfadf
1,1.7526,space,0.348,0,262,262,287,1,,,5c93b062c9d93b0015fcbc02,64391618dff45a099d94d5f2,2023-04-14_10h01.44.547,PRaM,2021.2.3,Win32,144.1129846,61b8f3437b89212fae0dfadf
3,4.0803,space,2.4009,0,263,263,368,1,,,5c93b062c9d93b0015fcbc02,64391618dff45a099d94d5f2,2023-04-14_10h01.44.547,PRaM,2021.2.3,Win32,144.1129846,61b8f3437b89212fae0dfadf
4,3,space,1.3439,0,264,264,151,1,,,5c93b062c9d93b0015fcbc02,64391618dff45a099d94d5f2,2023-04-14_10h01.44.547,PRaM,2021.2.3,Win32,144.1129846,61b8f3437b89212fae0dfadf
1,2.4685,space,0.8414,0,265,265,184,1,,,5c93b062c9d93b0015fcbc02,64391618dff45a099d94d5f2,2023-04-14_10h01.44.547,PRaM,2021.2.3,Win32,144.1129846,61b8f3437b89212fae0dfadf
3,3.4103,space,1.8232,0,266,266,205,1,,,5c93b062c9d93b0015fcbc02,64391618dff45a099d94d5f2,2023-04-14_10h01.44.547,PRaM,2021.2.3,Win32,144.1129846,61b8f3437b89212fae0dfadf
6,4.2194,space,3.4003,0,267,267,297,1,,,5c93b062c9d93b0015fcbc02,64391618dff45a099d94d5f2,2023-04-14_10h01.44.547,PRaM,2021.2.3,Win32,144.1129846,61b8f3437b89212fae0dfadf
1,2.5709,space,1.025,0,268,268,265,1,,,5c93b062c9d93b0015fcbc02,64391618dff45a099d94d5f2,2023-04-14_10h01.44.547,PRaM,2021.2.3,Win32,144.1129846,61b8f3437b89212fae0dfadf
2,2.5561,space,0.8674,0,269,269,150,1,,,5c93b062c9d93b0015fcbc02,64391618dff45a099d94d5f2,2023-04-14_10h01.44.547,PRaM,2021.2.3,Win32,144.1129846,61b8f3437b89212fae0dfadf
3,2.4934,space,0.821,0,270,270,256,1,,,5c93b062c9d93b0015fcbc02,64391618dff45a099d94d5f2,2023-04-14_10h01.44.547,PRaM,2021.2.3,Win32,144.1129846,61b8f3437b89212fae0dfadf
1,2.2235,space,0.5508,0,271,271,81,1,,,5c93b062c9d93b0015fcbc02,64391618dff45a099d94d5f2,2023-04-14_10h01.44.547,PRaM,2021.2.3,Win32,144.1129846,61b8f3437b89212fae0dfadf
1,1.7514,space,0.0903,0,272,272,130,1,,,5c93b062c9d93b0015fcbc02,64391618dff45a099d94d5f2,2023-04-14_10h01.44.547,PRaM,2021.2.3,Win32,144.1129846,61b8f3437b89212fae0dfadf
1,1.6973,space,0.1066,0,273,273,122,1,,,5c93b062c9d93b0015fcbc02,64391618dff45a099d94d5f2,2023-04-14_10h01.44.547,PRaM,2021.2.3,Win32,144.1129846,61b8f3437b89212fae0dfadf
1,1.6408,space,0.4124,0,274,274,247,1,,,5c93b062c9d93b0015fcbc02,64391618dff45a099d94d5f2,2023-04-14_10h01.44.547,PRaM,2021.2.3,Win32,144.1129846,61b8f3437b89212fae0dfadf
1,1.816,space,0.1114,0,275,275,131,1,,,5c93b062c9d93b0015fcbc02,64391618dff45a099d94d5f2,2023-04-14_10h01.44.547,PRaM,2021.2.3,Win32,144.1129846,61b8f3437b89212fae0dfadf
3,2.9105,space,1.1794,0,276,276,267,1,,,5c93b062c9d93b0015fcbc02,64391618dff45a099d94d5f2,2023-04-14_10h01.44.547,PRaM,2021.2.3,Win32,144.1129846,61b8f3437b89212fae0dfadf
8,3.2218,space,1.5334,0,277,277,302,1,,,5c93b062c9d93b0015fcbc02,64391618dff45a099d94d5f2,2023-04-14_10h01.44.547,PRaM,2021.2.3,Win32,144.1129846,61b8f3437b89212fae0dfadf
1,2.6559,space,1.168,0,278,278,113,1,,,5c93b062c9d93b0015fcbc02,64391618dff45a099d94d5f2,2023-04-14_10h01.44.547,PRaM,2021.2.3,Win32,144.1129846,61b8f3437b89212fae0dfadf
1,1.511,space,0.5442,0,279,279,241,1,,,5c93b062c9d93b0015fcbc02,64391618dff45a099d94d5f2,2023-04-14_10h01.44.547,PRaM,2021.2.3,Win32,144.1129846,61b8f3437b89212fae0dfadf
5,3.0435,space,1.342,0,280,280,75,1,,,5c93b062c9d93b0015fcbc02,64391618dff45a099d94d5f2,2023-04-14_10h01.44.547,PRaM,2021.2.3,Win32,144.1129846,61b8f3437b89212fae0dfadf
1,3.8038,space,2.0606,0,281,281,114,1,,,5c93b062c9d93b0015fcbc02,64391618dff45a099d94d5f2,2023-04-14_10h01.44.547,PRaM,2021.2.3,Win32,144.1129846,61b8f3437b89212fae0dfadf
1,2.2367,space,1.1126,0,282,282,342,1,,,5c93b062c9d93b0015fcbc02,64391618dff45a099d94d5f2,2023-04-14_10h01.44.547,PRaM,2021.2.3,Win32,144.1129846,61b8f3437b89212fae0dfadf
1,1.7259,space,0.1208,0,283,283,164,1,,,5c93b062c9d93b0015fcbc02,64391618dff45a099d94d5f2,2023-04-14_10h01.44.547,PRaM,2021.2.3,Win32,144.1129846,61b8f3437b89212fae0dfadf
1,1.6918,space,0.3334,0,284,284,73,1,,,5c93b062c9d93b0015fcbc02,64391618dff45a099d94d5f2,2023-04-14_10h01.44.547,PRaM,2021.2.3,Win32,144.1129846,61b8f3437b89212fae0dfadf
5,3.1758,space,1.5104,0,285,285,194,1,,,5c93b062c9d93b0015fcbc02,64391618dff45a099d94d5f2,2023-04-14_10h01.44.547,PRaM,2021.2.3,Win32,144.1129846,61b8f3437b89212fae0dfadf
1,2.7387,space,1.0479,0,286,286,257,1,,,5c93b062c9d93b0015fcbc02,64391618dff45a099d94d5f2,2023-04-14_10h01.44.547,PRaM,2021.2.3,Win32,144.1129846,61b8f3437b89212fae0dfadf
1,1.7873,space,0.1529,0,287,287,369,1,,,5c93b062c9d93b0015fcbc02,64391618dff45a099d94d5f2,2023-04-14_10h01.44.547,PRaM,2021.2.3,Win32,144.1129846,61b8f3437b89212fae0dfadf
5,3.9788,space,2.255,0,288,288,14,1,,,5c93b062c9d93b0015fcbc02,64391618dff45a099d94d5f2,2023-04-14_10h01.44.547,PRaM,2021.2.3,Win32,144.1129846,61b8f3437b89212fae0dfadf
1,2.5404,space,0.8192,0,289,289,364,1,,,5c93b062c9d93b0015fcbc02,64391618dff45a099d94d5f2,2023-04-14_10h01.44.547,PRaM,2021.2.3,Win32,144.1129846,61b8f3437b89212fae0dfadf
8,3.4352,space,1.7613,0,290,290,326,1,,,5c93b062c9d93b0015fcbc02,64391618dff45a099d94d5f2,2023-04-14_10h01.44.547,PRaM,2021.2.3,Win32,144.1129846,61b8f3437b89212fae0dfadf
6,2.9528,space,1.2409,0,291,291,334,1,,,5c93b062c9d93b0015fcbc02,64391618dff45a099d94d5f2,2023-04-14_10h01.44.547,PRaM,2021.2.3,Win32,144.1129846,61b8f3437b89212fae0dfadf
1,3.7233,space,1.9981,0,292,292,82,1,,,5c93b062c9d93b0015fcbc02,64391618dff45a099d94d5f2,2023-04-14_10h01.44.547,PRaM,2021.2.3,Win32,144.1129846,61b8f3437b89212fae0dfadf
1,1.51,space,0.3267,0,293,293,218,1,,,5c93b062c9d93b0015fcbc02,64391618dff45a099d94d5f2,2023-04-14_10h01.44.547,PRaM,2021.2.3,Win32,144.1129846,61b8f3437b89212fae0dfadf
1,1.9387,space,0.2939,0,294,294,160,1,,,5c93b062c9d93b0015fcbc02,64391618dff45a099d94d5f2,2023-04-14_10h01.44.547,PRaM,2021.2.3,Win32,144.1129846,61b8f3437b89212fae0dfadf
1,1.6981,space,0.028,0,295,295,91,1,,,5c93b062c9d93b0015fcbc02,64391618dff45a099d94d5f2,2023-04-14_10h01.44.547,PRaM,2021.2.3,Win32,144.1129846,61b8f3437b89212fae0dfadf
4,2.8267,space,1.1241,0,296,296,145,1,,,5c93b062c9d93b0015fcbc02,64391618dff45a099d94d5f2,2023-04-14_10h01.44.547,PRaM,2021.2.3,Win32,144.1129846,61b8f3437b89212fae0dfadf
4,7.8237,space,6.1446,0,297,297,12,1,,,5c93b062c9d93b0015fcbc02,64391618dff45a099d94d5f2,2023-04-14_10h01.44.547,PRaM,2021.2.3,Win32,144.1129846,61b8f3437b89212fae0dfadf
1,2.4601,space,0.8516,0,298,298,293,1,,,5c93b062c9d93b0015fcbc02,64391618dff45a099d94d5f2,2023-04-14_10h01.44.547,PRaM,2021.2.3,Win32,144.1129846,61b8f3437b89212fae0dfadf
1,1.5458,space,0.3701,0,299,299,70,1,,,5c93b062c9d93b0015fcbc02,64391618dff45a099d94d5f2,2023-04-14_10h01.44.547,PRaM,2021.2.3,Win32,144.1129846,61b8f3437b89212fae0dfadf
1,1.6979,space,0.0532,0,300,300,312,1,,,5c93b062c9d93b0015fcbc02,64391618dff45a099d94d5f2,2023-04-14_10h01.44.547,PRaM,2021.2.3,Win32,144.1129846,61b8f3437b89212fae0dfadf
4,3.0978,space,1.4131,0,301,301,93,1,,,5c93b062c9d93b0015fcbc02,64391618dff45a099d94d5f2,2023-04-14_10h01.44.547,PRaM,2021.2.3,Win32,144.1129846,61b8f3437b89212fae0dfadf
1,2.7169,space,1.0799,0,302,302,176,1,,,5c93b062c9d93b0015fcbc02,64391618dff45a099d94d5f2,2023-04-14_10h01.44.547,PRaM,2021.2.3,Win32,144.1129846,61b8f3437b89212fae0dfadf
1,1.8097,space,0.1805,0,303,303,328,1,,,5c93b062c9d93b0015fcbc02,64391618dff45a099d94d5f2,2023-04-14_10h01.44.547,PRaM,2021.2.3,Win32,144.1129846,61b8f3437b89212fae0dfadf
1,1.5086,space,0.419,0,304,304,376,1,,,5c93b062c9d93b0015fcbc02,64391618dff45a099d94d5f2,2023-04-14_10h01.44.547,PRaM,2021.2.3,Win32,144.1129846,61b8f3437b89212fae0dfadf
1,1.9113,space,0.2944,0,305,305,116,1,,,5c93b062c9d93b0015fcbc02,64391618dff45a099d94d5f2,2023-04-14_10h01.44.547,PRaM,2021.2.3,Win32,144.1129846,61b8f3437b89212fae0dfadf
1,1.7884,space,0.146,0,306,306,204,1,,,5c93b062c9d93b0015fcbc02,64391618dff45a099d94d5f2,2023-04-14_10h01.44.547,PRaM,2021.2.3,Win32,144.1129846,61b8f3437b89212fae0dfadf
7,3.4368,space,1.8202,0,307,307,120,1,,,5c93b062c9d93b0015fcbc02,64391618dff45a099d94d5f2,2023-04-14_10h01.44.547,PRaM,2021.2.3,Win32,144.1129846,61b8f3437b89212fae0dfadf
1,4.3095,space,2.6526,0,308,308,129,1,,,5c93b062c9d93b0015fcbc02,64391618dff45a099d94d5f2,2023-04-14_10h01.44.547,PRaM,2021.2.3,Win32,144.1129846,61b8f3437b89212fae0dfadf
1,2.1747,space,0.7293,0,309,309,153,1,,,5c93b062c9d93b0015fcbc02,64391618dff45a099d94d5f2,2023-04-14_10h01.44.547,PRaM,2021.2.3,Win32,144.1129846,61b8f3437b89212fae0dfadf
6,3.4577,space,1.8362,0,310,310,59,1,,,5c93b062c9d93b0015fcbc02,64391618dff45a099d94d5f2,2023-04-14_10h01.44.547,PRaM,2021.2.3,Win32,144.1129846,61b8f3437b89212fae0dfadf
6,2.7987,space,1.2246,0,311,311,197,1,,,5c93b062c9d93b0015fcbc02,64391618dff45a099d94d5f2,2023-04-14_10h01.44.547,PRaM,2021.2.3,Win32,144.1129846,61b8f3437b89212fae0dfadf
1,4.395,space,2.8629,0,312,312,170,1,,,5c93b062c9d93b0015fcbc02,64391618dff45a099d94d5f2,2023-04-14_10h01.44.547,PRaM,2021.2.3,Win32,144.1129846,61b8f3437b89212fae0dfadf
1,1.6681,space,0.0767,0,313,313,77,1,,,5c93b062c9d93b0015fcbc02,64391618dff45a099d94d5f2,2023-04-14_10h01.44.547,PRaM,2021.2.3,Win32,144.1129846,61b8f3437b89212fae0dfadf
3,3.8479,space,2.2683,0,314,314,298,1,,,5c93b062c9d93b0015fcbc02,64391618dff45a099d94d5f2,2023-04-14_10h01.44.547,PRaM,2021.2.3,Win32,144.1129846,61b8f3437b89212fae0dfadf
4,3.5062,space,1.8507,0,315,315,69,1,,,5c93b062c9d93b0015fcbc02,64391618dff45a099d94d5f2,2023-04-14_10h01.44.547,PRaM,2021.2.3,Win32,144.1129846,61b8f3437b89212fae0dfadf
9,3.1072,space,1.4713,0,316,316,372,1,,,5c93b062c9d93b0015fcbc02,64391618dff45a099d94d5f2,2023-04-14_10h01.44.547,PRaM,2021.2.3,Win32,144.1129846,61b8f3437b89212fae0dfadf
1,5.2061,space,3.8934,0,317,317,155,1,,,5c93b062c9d93b0015fcbc02,64391618dff45a099d94d5f2,2023-04-14_10h01.44.547,PRaM,2021.2.3,Win32,144.1129846,61b8f3437b89212fae0dfadf
2,2.9094,space,1.4184,0,318,318,40,1,,,5c93b062c9d93b0015fcbc02,64391618dff45a099d94d5f2,2023-04-14_10h01.44.547,PRaM,2021.2.3,Win32,144.1129846,61b8f3437b89212fae0dfadf
1,3.6374,space,2.0749,0,319,319,27,1,,,5c93b062c9d93b0015fcbc02,64391618dff45a099d94d5f2,2023-04-14_10h01.44.547,PRaM,2021.2.3,Win32,144.1129846,61b8f3437b89212fae0dfadf
2,3.8149,space,2.1585,0,320,320,271,1,,,5c93b062c9d93b0015fcbc02,64391618dff45a099d94d5f2,2023-04-14_10h01.44.547,PRaM,2021.2.3,Win32,144.1129846,61b8f3437b89212fae0dfadf
1,3.9515,space,2.2941,0,321,321,324,1,,,5c93b062c9d93b0015fcbc02,64391618dff45a099d94d5f2,2023-04-14_10h01.44.547,PRaM,2021.2.3,Win32,144.1129846,61b8f3437b89212fae0dfadf
1,2.0427,space,0.4326,0,322,322,97,1,,,5c93b062c9d93b0015fcbc02,64391618dff45a099d94d5f2,2023-04-14_10h01.44.547,PRaM,2021.2.3,Win32,144.1129846,61b8f3437b89212fae0dfadf
4,2.8144,space,1.1312,0,323,323,4,1,,,5c93b062c9d93b0015fcbc02,64391618dff45a099d94d5f2,2023-04-14_10h01.44.547,PRaM,2021.2.3,Win32,144.1129846,61b8f3437b89212fae0dfadf
1,2.3079,space,0.6864,0,324,324,47,1,,,5c93b062c9d93b0015fcbc02,64391618dff45a099d94d5f2,2023-04-14_10h01.44.547,PRaM,2021.2.3,Win32,144.1129846,61b8f3437b89212fae0dfadf
1,2.259,space,0.5822,0,325,325,157,1,,,5c93b062c9d93b0015fcbc02,64391618dff45a099d94d5f2,2023-04-14_10h01.44.547,PRaM,2021.2.3,Win32,144.1129846,61b8f3437b89212fae0dfadf
4,3.7284,space,2.026,0,326,326,270,1,,,5c93b062c9d93b0015fcbc02,64391618dff45a099d94d5f2,2023-04-14_10h01.44.547,PRaM,2021.2.3,Win32,144.1129846,61b8f3437b89212fae0dfadf
6,3.037,space,1.3604,0,327,327,118,1,,,5c93b062c9d93b0015fcbc02,64391618dff45a099d94d5f2,2023-04-14_10h01.44.547,PRaM,2021.2.3,Win32,144.1129846,61b8f3437b89212fae0dfadf
1,2.4963,space,0.8448,0,328,328,371,1,,,5c93b062c9d93b0015fcbc02,64391618dff45a099d94d5f2,2023-04-14_10h01.44.547,PRaM,2021.2.3,Win32,144.1129846,61b8f3437b89212fae0dfadf
1,1.6837,space,0.0213,0,329,329,41,1,,,5c93b062c9d93b0015fcbc02,64391618dff45a099d94d5f2,2023-04-14_10h01.44.547,PRaM,2021.2.3,Win32,144.1129846,61b8f3437b89212fae0dfadf
2,5.3422,space,3.6429,0,330,330,233,1,,,5c93b062c9d93b0015fcbc02,64391618dff45a099d94d5f2,2023-04-14_10h01.44.547,PRaM,2021.2.3,Win32,144.1129846,61b8f3437b89212fae0dfadf
9,3.8442,space,2.6409,0,331,331,323,1,,,5c93b062c9d93b0015fcbc02,64391618dff45a099d94d5f2,2023-04-14_10h01.44.547,PRaM,2021.2.3,Win32,144.1129846,61b8f3437b89212fae0dfadf
6,2.8391,space,1.1727,0,332,332,277,1,,,5c93b062c9d93b0015fcbc02,64391618dff45a099d94d5f2,2023-04-14_10h01.44.547,PRaM,2021.2.3,Win32,144.1129846,61b8f3437b89212fae0dfadf
1,2.8154,space,1.2954,0,333,333,37,1,,,5c93b062c9d93b0015fcbc02,64391618dff45a099d94d5f2,2023-04-14_10h01.44.547,PRaM,2021.2.3,Win32,144.1129846,61b8f3437b89212fae0dfadf
1,1.475,space,0.2719,0,334,334,185,1,,,5c93b062c9d93b0015fcbc02,64391618dff45a099d94d5f2,2023-04-14_10h01.44.547,PRaM,2021.2.3,Win32,144.1129846,61b8f3437b89212fae0dfadf
6,2.9584,space,1.285,0,335,335,84,1,,,5c93b062c9d93b0015fcbc02,64391618dff45a099d94d5f2,2023-04-14_10h01.44.547,PRaM,2021.2.3,Win32,144.1129846,61b8f3437b89212fae0dfadf
1,4.0258,space,2.3985,0,336,336,284,1,,,5c93b062c9d93b0015fcbc02,64391618dff45a099d94d5f2,2023-04-14_10h01.44.547,PRaM,2021.2.3,Win32,144.1129846,61b8f3437b89212fae0dfadf
5,3.4542,space,1.8851,0,337,337,363,1,,,5c93b062c9d93b0015fcbc02,64391618dff45a099d94d5f2,2023-04-14_10h01.44.547,PRaM,2021.2.3,Win32,144.1129846,61b8f3437b89212fae0dfadf
9,5.5747,space,3.9796,0,338,338,20,1,,,5c93b062c9d93b0015fcbc02,64391618dff45a099d94d5f2,2023-04-14_10h01.44.547,PRaM,2021.2.3,Win32,144.1129846,61b8f3437b89212fae0dfadf
6,2.604,space,0.9689,0,339,339,196,1,,,5c93b062c9d93b0015fcbc02,64391618dff45a099d94d5f2,2023-04-14_10h01.44.547,PRaM,2021.2.3,Win32,144.1129846,61b8f3437b89212fae0dfadf
5,4.3526,space,2.6711,0,340,340,246,1,,,5c93b062c9d93b0015fcbc02,64391618dff45a099d94d5f2,2023-04-14_10h01.44.547,PRaM,2021.2.3,Win32,144.1129846,61b8f3437b89212fae0dfadf
3,3.4108,space,1.7211,0,341,341,117,1,,,5c93b062c9d93b0015fcbc02,64391618dff45a099d94d5f2,2023-04-14_10h01.44.547,PRaM,2021.2.3,Win32,144.1129846,61b8f3437b89212fae0dfadf
1,2.535,space,0.8824,0,342,342,125,1,,,5c93b062c9d93b0015fcbc02,64391618dff45a099d94d5f2,2023-04-14_10h01.44.547,PRaM,2021.2.3,Win32,144.1129846,61b8f3437b89212fae0dfadf
1,1.5293,space,0.4098,0,343,343,251,1,,,5c93b062c9d93b0015fcbc02,64391618dff45a099d94d5f2,2023-04-14_10h01.44.547,PRaM,2021.2.3,Win32,144.1129846,61b8f3437b89212fae0dfadf
3,4.1378,space,2.6574,0,344,344,348,1,,,5c93b062c9d93b0015fcbc02,64391618dff45a099d94d5f2,2023-04-14_10h01.44.547,PRaM,2021.2.3,Win32,144.1129846,61b8f3437b89212fae0dfadf
1,2.3066,space,0.7634,0,345,345,248,1,,,5c93b062c9d93b0015fcbc02,64391618dff45a099d94d5f2,2023-04-14_10h01.44.547,PRaM,2021.2.3,Win32,144.1129846,61b8f3437b89212fae0dfadf
1,1.9179,space,0.2541,0,346,346,250,1,,,5c93b062c9d93b0015fcbc02,64391618dff45a099d94d5f2,2023-04-14_10h01.44.547,PRaM,2021.2.3,Win32,144.1129846,61b8f3437b89212fae0dfadf
1,2.0361,space,0.4721,0,347,347,237,1,,,5c93b062c9d93b0015fcbc02,64391618dff45a099d94d5f2,2023-04-14_10h01.44.547,PRaM,2021.2.3,Win32,144.1129846,61b8f3437b89212fae0dfadf
1,1.497,space,0.3083,0,348,348,322,1,,,5c93b062c9d93b0015fcbc02,64391618dff45a099d94d5f2,2023-04-14_10h01.44.547,PRaM,2021.2.3,Win32,144.1129846,61b8f3437b89212fae0dfadf
3,3.6757,space,2.0813,0,349,349,182,1,,,5c93b062c9d93b0015fcbc02,64391618dff45a099d94d5f2,2023-04-14_10h01.44.547,PRaM,2021.2.3,Win32,144.1129846,61b8f3437b89212fae0dfadf
1,2.1213,space,0.7772,0,350,350,228,1,,,5c93b062c9d93b0015fcbc02,64391618dff45a099d94d5f2,2023-04-14_10h01.44.547,PRaM,2021.2.3,Win32,144.1129846,61b8f3437b89212fae0dfadf
4,3.431,space,1.749,0,351,351,255,1,,,5c93b062c9d93b0015fcbc02,64391618dff45a099d94d5f2,2023-04-14_10h01.44.547,PRaM,2021.2.3,Win32,144.1129846,61b8f3437b89212fae0dfadf
2,4.6012,space,2.8891,0,352,352,181,1,,,5c93b062c9d93b0015fcbc02,64391618dff45a099d94d5f2,2023-04-14_10h01.44.547,PRaM,2021.2.3,Win32,144.1129846,61b8f3437b89212fae0dfadf
2,2.6807,space,0.9976,0,353,353,6,1,,,5c93b062c9d93b0015fcbc02,64391618dff45a099d94d5f2,2023-04-14_10h01.44.547,PRaM,2021.2.3,Win32,144.1129846,61b8f3437b89212fae0dfadf
4,2.3158,space,0.6385,0,354,354,340,1,,,5c93b062c9d93b0015fcbc02,64391618dff45a099d94d5f2,2023-04-14_10h01.44.547,PRaM,2021.2.3,Win32,144.1129846,61b8f3437b89212fae0dfadf
1,2.5203,space,0.8818,0,355,355,65,1,,,5c93b062c9d93b0015fcbc02,64391618dff45a099d94d5f2,2023-04-14_10h01.44.547,PRaM,2021.2.3,Win32,144.1129846,61b8f3437b89212fae0dfadf
8,2.9031,space,1.3668,0,356,356,88,1,,,5c93b062c9d93b0015fcbc02,64391618dff45a099d94d5f2,2023-04-14_10h01.44.547,PRaM,2021.2.3,Win32,144.1129846,61b8f3437b89212fae0dfadf
5,2.6602,space,0.9768,0,357,357,48,1,,,5c93b062c9d93b0015fcbc02,64391618dff45a099d94d5f2,2023-04-14_10h01.44.547,PRaM,2021.2.3,Win32,144.1129846,61b8f3437b89212fae0dfadf
5,2.181,space,0.4929,0,358,358,159,1,,,5c93b062c9d93b0015fcbc02,64391618dff45a099d94d5f2,2023-04-14_10h01.44.547,PRaM,2021.2.3,Win32,144.1129846,61b8f3437b89212fae0dfadf
1,3.1441,space,1.5356,0,359,359,71,1,,,5c93b062c9d93b0015fcbc02,64391618dff45a099d94d5f2,2023-04-14_10h01.44.547,PRaM,2021.2.3,Win32,144.1129846,61b8f3437b89212fae0dfadf
6,3.8054,space,2.1757,0,360,360,352,1,,,5c93b062c9d93b0015fcbc02,64391618dff45a099d94d5f2,2023-04-14_10h01.44.547,PRaM,2021.2.3,Win32,144.1129846,61b8f3437b89212fae0dfadf
1,3.027,space,1.4109,0,361,361,100,1,,,5c93b062c9d93b0015fcbc02,64391618dff45a099d94d5f2,2023-04-14_10h01.44.547,PRaM,2021.2.3,Win32,144.1129846,61b8f3437b89212fae0dfadf
3,3.0629,space,1.3667,0,362,362,199,1,,,5c93b062c9d93b0015fcbc02,64391618dff45a099d94d5f2,2023-04-14_10h01.44.547,PRaM,2021.2.3,Win32,144.1129846,61b8f3437b89212fae0dfadf
1,3.6459,space,1.9776,0,363,363,272,1,,,5c93b062c9d93b0015fcbc02,64391618dff45a099d94d5f2,2023-04-14_10h01.44.547,PRaM,2021.2.3,Win32,144.1129846,61b8f3437b89212fae0dfadf
6,3.1676,space,1.457,0,364,364,51,1,,,5c93b062c9d93b0015fcbc02,64391618dff45a099d94d5f2,2023-04-14_10h01.44.547,PRaM,2021.2.3,Win32,144.1129846,61b8f3437b89212fae0dfadf
1,2.9704,space,1.2424,0,365,365,268,1,,,5c93b062c9d93b0015fcbc02,64391618dff45a099d94d5f2,2023-04-14_10h01.44.547,PRaM,2021.2.3,Win32,144.1129846,61b8f3437b89212fae0dfadf
1,1.6983,space,0.4792,0,366,366,72,1,,,5c93b062c9d93b0015fcbc02,64391618dff45a099d94d5f2,2023-04-14_10h01.44.547,PRaM,2021.2.3,Win32,144.1129846,61b8f3437b89212fae0dfadf
1,2.2304,space,0.9737,0,367,367,95,1,,,5c93b062c9d93b0015fcbc02,64391618dff45a099d94d5f2,2023-04-14_10h01.44.547,PRaM,2021.2.3,Win32,144.1129846,61b8f3437b89212fae0dfadf
3,2.8892,space,1.2119,0,368,368,30,1,,,5c93b062c9d93b0015fcbc02,64391618dff45a099d94d5f2,2023-04-14_10h01.44.547,PRaM,2021.2.3,Win32,144.1129846,61b8f3437b89212fae0dfadf
3,4.1019,space,2.3889,0,369,369,123,1,,,5c93b062c9d93b0015fcbc02,64391618dff45a099d94d5f2,2023-04-14_10h01.44.547,PRaM,2021.2.3,Win32,144.1129846,61b8f3437b89212fae0dfadf
1,2.2097,space,0.4957,0,370,370,234,1,,,5c93b062c9d93b0015fcbc02,64391618dff45a099d94d5f2,2023-04-14_10h01.44.547,PRaM,2021.2.3,Win32,144.1129846,61b8f3437b89212fae0dfadf
1,1.8312,space,0.2295,0,371,371,306,1,,,5c93b062c9d93b0015fcbc02,64391618dff45a099d94d5f2,2023-04-14_10h01.44.547,PRaM,2021.2.3,Win32,144.1129846,61b8f3437b89212fae0dfadf
1,1.8215,space,0.1547,0,372,372,55,1,,,5c93b062c9d93b0015fcbc02,64391618dff45a099d94d5f2,2023-04-14_10h01.44.547,PRaM,2021.2.3,Win32,144.1129846,61b8f3437b89212fae0dfadf
5,2.7155,space,1.0642,0,373,373,56,1,,,5c93b062c9d93b0015fcbc02,64391618dff45a099d94d5f2,2023-04-14_10h01.44.547,PRaM,2021.2.3,Win32,144.1129846,61b8f3437b89212fae0dfadf
1,3.627,space,2.0054,0,374,374,50,1,,,5c93b062c9d93b0015fcbc02,64391618dff45a099d94d5f2,2023-04-14_10h01.44.547,PRaM,2021.2.3,Win32,144.1129846,61b8f3437b89212fae0dfadf
1,1.6819,space,0.1488,0,375,375,68,1,,,5c93b062c9d93b0015fcbc02,64391618dff45a099d94d5f2,2023-04-14_10h01.44.547,PRaM,2021.2.3,Win32,144.1129846,61b8f3437b89212fae0dfadf
6,2.8889,space,1.1889,0,376,376,211,1,,,5c93b062c9d93b0015fcbc02,64391618dff45a099d94d5f2,2023-04-14_10h01.44.547,PRaM,2021.2.3,Win32,144.1129846,61b8f3437b89212fae0dfadf
1,2.5351,space,0.822,0,377,377,108,1,,,5c93b062c9d93b0015fcbc02,64391618dff45a099d94d5f2,2023-04-14_10h01.44.547,PRaM,2021.2.3,Win32,144.1129846,61b8f3437b89212fae0dfadf
