Rating.response,Rating.rt,EndTrial.keys,EndTrial.rt,trials.thisRepN,trials.thisTrialN,trials.thisN,trials.thisIndex,trials.ran,Pos1,Pos2,participant,session,date,expName,psychopyVersion,OS,frameRate,study_id
1,13.6,space,12.71,0,0,0,160,1,,,5ce7046a9390750017b64ac6,61b904e49976c648b19e59cc,2021-12-15_09h57.02.920,PRaM,2021.2.3,Win32,20.00560157,61b8f3437b89212fae0dfade
1,2.659,space,1.584,0,1,1,101,1,,,5ce7046a9390750017b64ac6,61b904e49976c648b19e59cc,2021-12-15_09h57.02.920,PRaM,2021.2.3,Win32,20.00560157,61b8f3437b89212fae0dfade
1,2.495,space,1.712,0,2,2,232,1,,,5ce7046a9390750017b64ac6,61b904e49976c648b19e59cc,2021-12-15_09h57.02.920,PRaM,2021.2.3,Win32,20.00560157,61b8f3437b89212fae0dfade
4,4.439,space,3.253,0,3,3,235,1,,,5ce7046a9390750017b64ac6,61b904e49976c648b19e59cc,2021-12-15_09h57.02.920,PRaM,2021.2.3,Win32,20.00560157,61b8f3437b89212fae0dfade
6,4.474,space,3.362,0,4,4,48,1,,,5ce7046a9390750017b64ac6,61b904e49976c648b19e59cc,2021-12-15_09h57.02.920,PRaM,2021.2.3,Win32,20.00560157,61b8f3437b89212fae0dfade
1,2.99,space,1.824,0,5,5,248,1,,,5ce7046a9390750017b64ac6,61b904e49976c648b19e59cc,2021-12-15_09h57.02.920,PRaM,2021.2.3,Win32,20.00560157,61b8f3437b89212fae0dfade
5,4.269,space,3.13,0,6,6,40,1,,,5ce7046a9390750017b64ac6,61b904e49976c648b19e59cc,2021-12-15_09h57.02.920,PRaM,2021.2.3,Win32,20.00560157,61b8f3437b89212fae0dfade
5,4.208,space,3.155,0,7,7,199,1,,,5ce7046a9390750017b64ac6,61b904e49976c648b19e59cc,2021-12-15_09h57.02.920,PRaM,2021.2.3,Win32,20.00560157,61b8f3437b89212fae0dfade
4,4.387,space,3.157,0,8,8,147,1,,,5ce7046a9390750017b64ac6,61b904e49976c648b19e59cc,2021-12-15_09h57.02.920,PRaM,2021.2.3,Win32,20.00560157,61b8f3437b89212fae0dfade
5,4.088,space,2.719,0,9,9,254,1,,,5ce7046a9390750017b64ac6,61b904e49976c648b19e59cc,2021-12-15_09h57.02.920,PRaM,2021.2.3,Win32,20.00560157,61b8f3437b89212fae0dfade
3,3.163,space,1.753,0,10,10,11,1,,,5ce7046a9390750017b64ac6,61b904e49976c648b19e59cc,2021-12-15_09h57.02.920,PRaM,2021.2.3,Win32,20.00560157,61b8f3437b89212fae0dfade
6,5.464,space,4.089,0,11,11,318,1,,,5ce7046a9390750017b64ac6,61b904e49976c648b19e59cc,2021-12-15_09h57.02.920,PRaM,2021.2.3,Win32,20.00560157,61b8f3437b89212fae0dfade
4,3.997,space,2.581,0,12,12,164,1,,,5ce7046a9390750017b64ac6,61b904e49976c648b19e59cc,2021-12-15_09h57.02.920,PRaM,2021.2.3,Win32,20.00560157,61b8f3437b89212fae0dfade
2,4.276,space,2.746,0,13,13,275,1,,,5ce7046a9390750017b64ac6,61b904e49976c648b19e59cc,2021-12-15_09h57.02.920,PRaM,2021.2.3,Win32,20.00560157,61b8f3437b89212fae0dfade
2,2.77,space,1.413,0,14,14,24,1,,,5ce7046a9390750017b64ac6,61b904e49976c648b19e59cc,2021-12-15_09h57.02.920,PRaM,2021.2.3,Win32,20.00560157,61b8f3437b89212fae0dfade
6,6.296,space,5.132,0,15,15,32,1,,,5ce7046a9390750017b64ac6,61b904e49976c648b19e59cc,2021-12-15_09h57.02.920,PRaM,2021.2.3,Win32,20.00560157,61b8f3437b89212fae0dfade
6,6.77,space,5.2,0,16,16,355,1,,,5ce7046a9390750017b64ac6,61b904e49976c648b19e59cc,2021-12-15_09h57.02.920,PRaM,2021.2.3,Win32,20.00560157,61b8f3437b89212fae0dfade
1,3.371,space,1.927,0,17,17,330,1,,,5ce7046a9390750017b64ac6,61b904e49976c648b19e59cc,2021-12-15_09h57.02.920,PRaM,2021.2.3,Win32,20.00560157,61b8f3437b89212fae0dfade
2,4.264,space,2.881,0,18,18,79,1,,,5ce7046a9390750017b64ac6,61b904e49976c648b19e59cc,2021-12-15_09h57.02.920,PRaM,2021.2.3,Win32,20.00560157,61b8f3437b89212fae0dfade
1,6.236,space,4.381,0,19,19,210,1,,,5ce7046a9390750017b64ac6,61b904e49976c648b19e59cc,2021-12-15_09h57.02.920,PRaM,2021.2.3,Win32,20.00560157,61b8f3437b89212fae0dfade
7,5.164,space,3.755,0,20,20,319,1,,,5ce7046a9390750017b64ac6,61b904e49976c648b19e59cc,2021-12-15_09h57.02.920,PRaM,2021.2.3,Win32,20.00560157,61b8f3437b89212fae0dfade
1,3.621,space,2.239,0,21,21,162,1,,,5ce7046a9390750017b64ac6,61b904e49976c648b19e59cc,2021-12-15_09h57.02.920,PRaM,2021.2.3,Win32,20.00560157,61b8f3437b89212fae0dfade
7,5.463,space,4.141,0,22,22,351,1,,,5ce7046a9390750017b64ac6,61b904e49976c648b19e59cc,2021-12-15_09h57.02.920,PRaM,2021.2.3,Win32,20.00560157,61b8f3437b89212fae0dfade
3,4.794,space,3.337,0,23,23,215,1,,,5ce7046a9390750017b64ac6,61b904e49976c648b19e59cc,2021-12-15_09h57.02.920,PRaM,2021.2.3,Win32,20.00560157,61b8f3437b89212fae0dfade
6,8.647,space,7.432,0,24,24,373,1,,,5ce7046a9390750017b64ac6,61b904e49976c648b19e59cc,2021-12-15_09h57.02.920,PRaM,2021.2.3,Win32,20.00560157,61b8f3437b89212fae0dfade
3,3.571,space,2.144,0,25,25,234,1,,,5ce7046a9390750017b64ac6,61b904e49976c648b19e59cc,2021-12-15_09h57.02.920,PRaM,2021.2.3,Win32,20.00560157,61b8f3437b89212fae0dfade
7,3.87,space,3.885,0,26,26,213,1,,,5ce7046a9390750017b64ac6,61b904e49976c648b19e59cc,2021-12-15_09h57.02.920,PRaM,2021.2.3,Win32,20.00560157,61b8f3437b89212fae0dfade
5,5.543,space,4.164,0,27,27,249,1,,,5ce7046a9390750017b64ac6,61b904e49976c648b19e59cc,2021-12-15_09h57.02.920,PRaM,2021.2.3,Win32,20.00560157,61b8f3437b89212fae0dfade
4,4.03,space,2.377,0,28,28,238,1,,,5ce7046a9390750017b64ac6,61b904e49976c648b19e59cc,2021-12-15_09h57.02.920,PRaM,2021.2.3,Win32,20.00560157,61b8f3437b89212fae0dfade
4,3.424,space,1.912,0,29,29,212,1,,,5ce7046a9390750017b64ac6,61b904e49976c648b19e59cc,2021-12-15_09h57.02.920,PRaM,2021.2.3,Win32,20.00560157,61b8f3437b89212fae0dfade
5,5.069,space,3.258,0,30,30,344,1,,,5ce7046a9390750017b64ac6,61b904e49976c648b19e59cc,2021-12-15_09h57.02.920,PRaM,2021.2.3,Win32,20.00560157,61b8f3437b89212fae0dfade
5,3.789,space,2.367,0,31,31,123,1,,,5ce7046a9390750017b64ac6,61b904e49976c648b19e59cc,2021-12-15_09h57.02.920,PRaM,2021.2.3,Win32,20.00560157,61b8f3437b89212fae0dfade
7,3.932,space,2.409,0,32,32,314,1,,,5ce7046a9390750017b64ac6,61b904e49976c648b19e59cc,2021-12-15_09h57.02.920,PRaM,2021.2.3,Win32,20.00560157,61b8f3437b89212fae0dfade
3,3.896,space,2.488,0,33,33,340,1,,,5ce7046a9390750017b64ac6,61b904e49976c648b19e59cc,2021-12-15_09h57.02.920,PRaM,2021.2.3,Win32,20.00560157,61b8f3437b89212fae0dfade
7,5.947,space,4.425,0,34,34,228,1,,,5ce7046a9390750017b64ac6,61b904e49976c648b19e59cc,2021-12-15_09h57.02.920,PRaM,2021.2.3,Win32,20.00560157,61b8f3437b89212fae0dfade
4,5.395,space,3.996,0,35,35,183,1,,,5ce7046a9390750017b64ac6,61b904e49976c648b19e59cc,2021-12-15_09h57.02.920,PRaM,2021.2.3,Win32,20.00560157,61b8f3437b89212fae0dfade
2,7.071,space,5.677,0,36,36,341,1,,,5ce7046a9390750017b64ac6,61b904e49976c648b19e59cc,2021-12-15_09h57.02.920,PRaM,2021.2.3,Win32,20.00560157,61b8f3437b89212fae0dfade
5,5.256,space,3.605,0,37,37,244,1,,,5ce7046a9390750017b64ac6,61b904e49976c648b19e59cc,2021-12-15_09h57.02.920,PRaM,2021.2.3,Win32,20.00560157,61b8f3437b89212fae0dfade
4,5.398,space,3.543,0,38,38,209,1,,,5ce7046a9390750017b64ac6,61b904e49976c648b19e59cc,2021-12-15_09h57.02.920,PRaM,2021.2.3,Win32,20.00560157,61b8f3437b89212fae0dfade
4,3.243,space,1.88,0,39,39,288,1,,,5ce7046a9390750017b64ac6,61b904e49976c648b19e59cc,2021-12-15_09h57.02.920,PRaM,2021.2.3,Win32,20.00560157,61b8f3437b89212fae0dfade
6,4.721,space,2.909,0,40,40,236,1,,,5ce7046a9390750017b64ac6,61b904e49976c648b19e59cc,2021-12-15_09h57.02.920,PRaM,2021.2.3,Win32,20.00560157,61b8f3437b89212fae0dfade
8,6.036,space,4.656,0,41,41,20,1,,,5ce7046a9390750017b64ac6,61b904e49976c648b19e59cc,2021-12-15_09h57.02.920,PRaM,2021.2.3,Win32,20.00560157,61b8f3437b89212fae0dfade
7,4.059,space,2.686,0,42,42,59,1,,,5ce7046a9390750017b64ac6,61b904e49976c648b19e59cc,2021-12-15_09h57.02.920,PRaM,2021.2.3,Win32,20.00560157,61b8f3437b89212fae0dfade
4,3.136,space,1.746,0,43,43,65,1,,,5ce7046a9390750017b64ac6,61b904e49976c648b19e59cc,2021-12-15_09h57.02.920,PRaM,2021.2.3,Win32,20.00560157,61b8f3437b89212fae0dfade
8,4.29,space,3.376,0,44,44,53,1,,,5ce7046a9390750017b64ac6,61b904e49976c648b19e59cc,2021-12-15_09h57.02.920,PRaM,2021.2.3,Win32,20.00560157,61b8f3437b89212fae0dfade
5,7.71,space,6.026,0,45,45,139,1,,,5ce7046a9390750017b64ac6,61b904e49976c648b19e59cc,2021-12-15_09h57.02.920,PRaM,2021.2.3,Win32,20.00560157,61b8f3437b89212fae0dfade
2,4.095,space,2.253,0,46,46,250,1,,,5ce7046a9390750017b64ac6,61b904e49976c648b19e59cc,2021-12-15_09h57.02.920,PRaM,2021.2.3,Win32,20.00560157,61b8f3437b89212fae0dfade
5,4.574,space,3.045,0,47,47,52,1,,,5ce7046a9390750017b64ac6,61b904e49976c648b19e59cc,2021-12-15_09h57.02.920,PRaM,2021.2.3,Win32,20.00560157,61b8f3437b89212fae0dfade
2,3.616,space,2.108,0,48,48,49,1,,,5ce7046a9390750017b64ac6,61b904e49976c648b19e59cc,2021-12-15_09h57.02.920,PRaM,2021.2.3,Win32,20.00560157,61b8f3437b89212fae0dfade
2,3.152,space,1.758,0,49,49,78,1,,,5ce7046a9390750017b64ac6,61b904e49976c648b19e59cc,2021-12-15_09h57.02.920,PRaM,2021.2.3,Win32,20.00560157,61b8f3437b89212fae0dfade
4,5.038,space,3.667,0,50,50,100,1,,,5ce7046a9390750017b64ac6,61b904e49976c648b19e59cc,2021-12-15_09h57.02.920,PRaM,2021.2.3,Win32,20.00560157,61b8f3437b89212fae0dfade
6,5.161,space,3.828,0,51,51,85,1,,,5ce7046a9390750017b64ac6,61b904e49976c648b19e59cc,2021-12-15_09h57.02.920,PRaM,2021.2.3,Win32,20.00560157,61b8f3437b89212fae0dfade
6,3.909,space,2.525,0,52,52,302,1,,,5ce7046a9390750017b64ac6,61b904e49976c648b19e59cc,2021-12-15_09h57.02.920,PRaM,2021.2.3,Win32,20.00560157,61b8f3437b89212fae0dfade
2,3.306,space,1.908,0,53,53,292,1,,,5ce7046a9390750017b64ac6,61b904e49976c648b19e59cc,2021-12-15_09h57.02.920,PRaM,2021.2.3,Win32,20.00560157,61b8f3437b89212fae0dfade
6,3.627,space,2.101,0,54,54,346,1,,,5ce7046a9390750017b64ac6,61b904e49976c648b19e59cc,2021-12-15_09h57.02.920,PRaM,2021.2.3,Win32,20.00560157,61b8f3437b89212fae0dfade
5,3.217,space,1.821,0,55,55,367,1,,,5ce7046a9390750017b64ac6,61b904e49976c648b19e59cc,2021-12-15_09h57.02.920,PRaM,2021.2.3,Win32,20.00560157,61b8f3437b89212fae0dfade
4,4.252,space,2.718,0,56,56,227,1,,,5ce7046a9390750017b64ac6,61b904e49976c648b19e59cc,2021-12-15_09h57.02.920,PRaM,2021.2.3,Win32,20.00560157,61b8f3437b89212fae0dfade
1,6.653,space,5.274,0,57,57,125,1,,,5ce7046a9390750017b64ac6,61b904e49976c648b19e59cc,2021-12-15_09h57.02.920,PRaM,2021.2.3,Win32,20.00560157,61b8f3437b89212fae0dfade
5,4.538,space,3.047,0,58,58,56,1,,,5ce7046a9390750017b64ac6,61b904e49976c648b19e59cc,2021-12-15_09h57.02.920,PRaM,2021.2.3,Win32,20.00560157,61b8f3437b89212fae0dfade
2,3.322,space,1.888,0,59,59,309,1,,,5ce7046a9390750017b64ac6,61b904e49976c648b19e59cc,2021-12-15_09h57.02.920,PRaM,2021.2.3,Win32,20.00560157,61b8f3437b89212fae0dfade
4,3.947,space,2.551,0,60,60,242,1,,,5ce7046a9390750017b64ac6,61b904e49976c648b19e59cc,2021-12-15_09h57.02.920,PRaM,2021.2.3,Win32,20.00560157,61b8f3437b89212fae0dfade
4,6.982,space,5.599,0,61,61,169,1,,,5ce7046a9390750017b64ac6,61b904e49976c648b19e59cc,2021-12-15_09h57.02.920,PRaM,2021.2.3,Win32,20.00560157,61b8f3437b89212fae0dfade
2,3.405,space,1.286,0,62,62,128,1,,,5ce7046a9390750017b64ac6,61b904e49976c648b19e59cc,2021-12-15_09h57.02.920,PRaM,2021.2.3,Win32,20.00560157,61b8f3437b89212fae0dfade
2,4.018,space,2.644,0,63,63,176,1,,,5ce7046a9390750017b64ac6,61b904e49976c648b19e59cc,2021-12-15_09h57.02.920,PRaM,2021.2.3,Win32,20.00560157,61b8f3437b89212fae0dfade
8,4.363,space,2.968,0,64,64,137,1,,,5ce7046a9390750017b64ac6,61b904e49976c648b19e59cc,2021-12-15_09h57.02.920,PRaM,2021.2.3,Win32,20.00560157,61b8f3437b89212fae0dfade
3,4.556,space,2.936,0,65,65,189,1,,,5ce7046a9390750017b64ac6,61b904e49976c648b19e59cc,2021-12-15_09h57.02.920,PRaM,2021.2.3,Win32,20.00560157,61b8f3437b89212fae0dfade
7,8.62,space,7.07,0,66,66,327,1,,,5ce7046a9390750017b64ac6,61b904e49976c648b19e59cc,2021-12-15_09h57.02.920,PRaM,2021.2.3,Win32,20.00560157,61b8f3437b89212fae0dfade
3,4.731,space,3.352,0,67,67,67,1,,,5ce7046a9390750017b64ac6,61b904e49976c648b19e59cc,2021-12-15_09h57.02.920,PRaM,2021.2.3,Win32,20.00560157,61b8f3437b89212fae0dfade
7,4.414,space,3,0,68,68,264,1,,,5ce7046a9390750017b64ac6,61b904e49976c648b19e59cc,2021-12-15_09h57.02.920,PRaM,2021.2.3,Win32,20.00560157,61b8f3437b89212fae0dfade
4,3.641,space,2.253,0,69,69,336,1,,,5ce7046a9390750017b64ac6,61b904e49976c648b19e59cc,2021-12-15_09h57.02.920,PRaM,2021.2.3,Win32,20.00560157,61b8f3437b89212fae0dfade
6,6.777,space,5.366,0,70,70,347,1,,,5ce7046a9390750017b64ac6,61b904e49976c648b19e59cc,2021-12-15_09h57.02.920,PRaM,2021.2.3,Win32,20.00560157,61b8f3437b89212fae0dfade
4,3.773,space,2.401,0,71,71,82,1,,,5ce7046a9390750017b64ac6,61b904e49976c648b19e59cc,2021-12-15_09h57.02.920,PRaM,2021.2.3,Win32,20.00560157,61b8f3437b89212fae0dfade
2,3.746,space,2.368,0,72,72,293,1,,,5ce7046a9390750017b64ac6,61b904e49976c648b19e59cc,2021-12-15_09h57.02.920,PRaM,2021.2.3,Win32,20.00560157,61b8f3437b89212fae0dfade
,,space,0.326,0,73,73,41,1,,,5ce7046a9390750017b64ac6,61b904e49976c648b19e59cc,2021-12-15_09h57.02.920,PRaM,2021.2.3,Win32,20.00560157,61b8f3437b89212fae0dfade
6,5.68,space,4.444,0,74,74,241,1,,,5ce7046a9390750017b64ac6,61b904e49976c648b19e59cc,2021-12-15_09h57.02.920,PRaM,2021.2.3,Win32,20.00560157,61b8f3437b89212fae0dfade
7,7.044,space,5.664,0,75,75,118,1,,,5ce7046a9390750017b64ac6,61b904e49976c648b19e59cc,2021-12-15_09h57.02.920,PRaM,2021.2.3,Win32,20.00560157,61b8f3437b89212fae0dfade
3,3.118,space,1.638,0,76,76,92,1,,,5ce7046a9390750017b64ac6,61b904e49976c648b19e59cc,2021-12-15_09h57.02.920,PRaM,2021.2.3,Win32,20.00560157,61b8f3437b89212fae0dfade
8,4.522,space,3.117,0,77,77,323,1,,,5ce7046a9390750017b64ac6,61b904e49976c648b19e59cc,2021-12-15_09h57.02.920,PRaM,2021.2.3,Win32,20.00560157,61b8f3437b89212fae0dfade
6,8.093,space,6.707,0,78,78,93,1,,,5ce7046a9390750017b64ac6,61b904e49976c648b19e59cc,2021-12-15_09h57.02.920,PRaM,2021.2.3,Win32,20.00560157,61b8f3437b89212fae0dfade
3,6.107,space,4.738,0,79,79,37,1,,,5ce7046a9390750017b64ac6,61b904e49976c648b19e59cc,2021-12-15_09h57.02.920,PRaM,2021.2.3,Win32,20.00560157,61b8f3437b89212fae0dfade
8,3.443,space,1.934,0,80,80,279,1,,,5ce7046a9390750017b64ac6,61b904e49976c648b19e59cc,2021-12-15_09h57.02.920,PRaM,2021.2.3,Win32,20.00560157,61b8f3437b89212fae0dfade
6,5.346,space,3.963,0,81,81,305,1,,,5ce7046a9390750017b64ac6,61b904e49976c648b19e59cc,2021-12-15_09h57.02.920,PRaM,2021.2.3,Win32,20.00560157,61b8f3437b89212fae0dfade
6,7.199,space,5.773,0,82,82,272,1,,,5ce7046a9390750017b64ac6,61b904e49976c648b19e59cc,2021-12-15_09h57.02.920,PRaM,2021.2.3,Win32,20.00560157,61b8f3437b89212fae0dfade
8,3.036,space,1.637,0,83,83,267,1,,,5ce7046a9390750017b64ac6,61b904e49976c648b19e59cc,2021-12-15_09h57.02.920,PRaM,2021.2.3,Win32,20.00560157,61b8f3437b89212fae0dfade
8,2.938,space,1.575,0,84,84,307,1,,,5ce7046a9390750017b64ac6,61b904e49976c648b19e59cc,2021-12-15_09h57.02.920,PRaM,2021.2.3,Win32,20.00560157,61b8f3437b89212fae0dfade
8,2.492,space,1.116,0,85,85,69,1,,,5ce7046a9390750017b64ac6,61b904e49976c648b19e59cc,2021-12-15_09h57.02.920,PRaM,2021.2.3,Win32,20.00560157,61b8f3437b89212fae0dfade
4,3.01,space,1.606,0,86,86,260,1,,,5ce7046a9390750017b64ac6,61b904e49976c648b19e59cc,2021-12-15_09h57.02.920,PRaM,2021.2.3,Win32,20.00560157,61b8f3437b89212fae0dfade
6,5.693,space,4.373,0,87,87,296,1,,,5ce7046a9390750017b64ac6,61b904e49976c648b19e59cc,2021-12-15_09h57.02.920,PRaM,2021.2.3,Win32,20.00560157,61b8f3437b89212fae0dfade
6,3.753,space,2.325,0,88,88,177,1,,,5ce7046a9390750017b64ac6,61b904e49976c648b19e59cc,2021-12-15_09h57.02.920,PRaM,2021.2.3,Win32,20.00560157,61b8f3437b89212fae0dfade
3,5.568,space,3.888,0,89,89,116,1,,,5ce7046a9390750017b64ac6,61b904e49976c648b19e59cc,2021-12-15_09h57.02.920,PRaM,2021.2.3,Win32,20.00560157,61b8f3437b89212fae0dfade
5,4.687,space,3.352,0,90,90,104,1,,,5ce7046a9390750017b64ac6,61b904e49976c648b19e59cc,2021-12-15_09h57.02.920,PRaM,2021.2.3,Win32,20.00560157,61b8f3437b89212fae0dfade
6,3.006,space,1.463,0,91,91,180,1,,,5ce7046a9390750017b64ac6,61b904e49976c648b19e59cc,2021-12-15_09h57.02.920,PRaM,2021.2.3,Win32,20.00560157,61b8f3437b89212fae0dfade
7,4.451,space,3.068,0,92,92,30,1,,,5ce7046a9390750017b64ac6,61b904e49976c648b19e59cc,2021-12-15_09h57.02.920,PRaM,2021.2.3,Win32,20.00560157,61b8f3437b89212fae0dfade
6,5.219,space,3.825,0,93,93,266,1,,,5ce7046a9390750017b64ac6,61b904e49976c648b19e59cc,2021-12-15_09h57.02.920,PRaM,2021.2.3,Win32,20.00560157,61b8f3437b89212fae0dfade
7,2.517,space,1.125,0,94,94,178,1,,,5ce7046a9390750017b64ac6,61b904e49976c648b19e59cc,2021-12-15_09h57.02.920,PRaM,2021.2.3,Win32,20.00560157,61b8f3437b89212fae0dfade
8,3.181,space,1.827,0,95,95,173,1,,,5ce7046a9390750017b64ac6,61b904e49976c648b19e59cc,2021-12-15_09h57.02.920,PRaM,2021.2.3,Win32,20.00560157,61b8f3437b89212fae0dfade
5,4.626,space,3.261,0,96,96,6,1,,,5ce7046a9390750017b64ac6,61b904e49976c648b19e59cc,2021-12-15_09h57.02.920,PRaM,2021.2.3,Win32,20.00560157,61b8f3437b89212fae0dfade
6,2.869,space,1.471,0,97,97,337,1,,,5ce7046a9390750017b64ac6,61b904e49976c648b19e59cc,2021-12-15_09h57.02.920,PRaM,2021.2.3,Win32,20.00560157,61b8f3437b89212fae0dfade
7,2.653,space,1.14,0,98,98,352,1,,,5ce7046a9390750017b64ac6,61b904e49976c648b19e59cc,2021-12-15_09h57.02.920,PRaM,2021.2.3,Win32,20.00560157,61b8f3437b89212fae0dfade
6,7.158,space,5.645,0,99,99,195,1,,,5ce7046a9390750017b64ac6,61b904e49976c648b19e59cc,2021-12-15_09h57.02.920,PRaM,2021.2.3,Win32,20.00560157,61b8f3437b89212fae0dfade
2,3.922,space,2.57,0,100,100,1,1,,,5ce7046a9390750017b64ac6,61b904e49976c648b19e59cc,2021-12-15_09h57.02.920,PRaM,2021.2.3,Win32,20.00560157,61b8f3437b89212fae0dfade
1,4.89,space,3.646,0,101,101,247,1,,,5ce7046a9390750017b64ac6,61b904e49976c648b19e59cc,2021-12-15_09h57.02.920,PRaM,2021.2.3,Win32,20.00560157,61b8f3437b89212fae0dfade
5,4.581,space,3.22,0,102,102,35,1,,,5ce7046a9390750017b64ac6,61b904e49976c648b19e59cc,2021-12-15_09h57.02.920,PRaM,2021.2.3,Win32,20.00560157,61b8f3437b89212fae0dfade
2,3.466,space,2.103,0,103,103,70,1,,,5ce7046a9390750017b64ac6,61b904e49976c648b19e59cc,2021-12-15_09h57.02.920,PRaM,2021.2.3,Win32,20.00560157,61b8f3437b89212fae0dfade
1,3.302,space,1.926,0,104,104,171,1,,,5ce7046a9390750017b64ac6,61b904e49976c648b19e59cc,2021-12-15_09h57.02.920,PRaM,2021.2.3,Win32,20.00560157,61b8f3437b89212fae0dfade
5,5.085,space,3.512,0,105,105,90,1,,,5ce7046a9390750017b64ac6,61b904e49976c648b19e59cc,2021-12-15_09h57.02.920,PRaM,2021.2.3,Win32,20.00560157,61b8f3437b89212fae0dfade
2,9.35,space,7.825,0,106,106,95,1,,,5ce7046a9390750017b64ac6,61b904e49976c648b19e59cc,2021-12-15_09h57.02.920,PRaM,2021.2.3,Win32,20.00560157,61b8f3437b89212fae0dfade
7,7.949,space,6.229,0,107,107,43,1,,,5ce7046a9390750017b64ac6,61b904e49976c648b19e59cc,2021-12-15_09h57.02.920,PRaM,2021.2.3,Win32,20.00560157,61b8f3437b89212fae0dfade
6,3.001,space,1.605,0,108,108,299,1,,,5ce7046a9390750017b64ac6,61b904e49976c648b19e59cc,2021-12-15_09h57.02.920,PRaM,2021.2.3,Win32,20.00560157,61b8f3437b89212fae0dfade
5,7.975,space,6.633,0,109,109,103,1,,,5ce7046a9390750017b64ac6,61b904e49976c648b19e59cc,2021-12-15_09h57.02.920,PRaM,2021.2.3,Win32,20.00560157,61b8f3437b89212fae0dfade
6,3.807,space,2.415,0,110,110,33,1,,,5ce7046a9390750017b64ac6,61b904e49976c648b19e59cc,2021-12-15_09h57.02.920,PRaM,2021.2.3,Win32,20.00560157,61b8f3437b89212fae0dfade
3,5.528,space,4.149,0,111,111,237,1,,,5ce7046a9390750017b64ac6,61b904e49976c648b19e59cc,2021-12-15_09h57.02.920,PRaM,2021.2.3,Win32,20.00560157,61b8f3437b89212fae0dfade
7,3.361,space,1.945,0,112,112,333,1,,,5ce7046a9390750017b64ac6,61b904e49976c648b19e59cc,2021-12-15_09h57.02.920,PRaM,2021.2.3,Win32,20.00560157,61b8f3437b89212fae0dfade
6,4.239,space,2.839,0,113,113,113,1,,,5ce7046a9390750017b64ac6,61b904e49976c648b19e59cc,2021-12-15_09h57.02.920,PRaM,2021.2.3,Win32,20.00560157,61b8f3437b89212fae0dfade
8,4.101,space,2.751,0,114,114,119,1,,,5ce7046a9390750017b64ac6,61b904e49976c648b19e59cc,2021-12-15_09h57.02.920,PRaM,2021.2.3,Win32,20.00560157,61b8f3437b89212fae0dfade
4,8.437,space,6.807,0,115,115,300,1,,,5ce7046a9390750017b64ac6,61b904e49976c648b19e59cc,2021-12-15_09h57.02.920,PRaM,2021.2.3,Win32,20.00560157,61b8f3437b89212fae0dfade
6,6.093,space,4.415,0,116,116,13,1,,,5ce7046a9390750017b64ac6,61b904e49976c648b19e59cc,2021-12-15_09h57.02.920,PRaM,2021.2.3,Win32,20.00560157,61b8f3437b89212fae0dfade
6,3.71,space,2.197,0,117,117,170,1,,,5ce7046a9390750017b64ac6,61b904e49976c648b19e59cc,2021-12-15_09h57.02.920,PRaM,2021.2.3,Win32,20.00560157,61b8f3437b89212fae0dfade
4,4.564,space,4.125,0,118,118,339,1,,,5ce7046a9390750017b64ac6,61b904e49976c648b19e59cc,2021-12-15_09h57.02.920,PRaM,2021.2.3,Win32,20.00560157,61b8f3437b89212fae0dfade
5,4.869,space,3.348,0,119,119,80,1,,,5ce7046a9390750017b64ac6,61b904e49976c648b19e59cc,2021-12-15_09h57.02.920,PRaM,2021.2.3,Win32,20.00560157,61b8f3437b89212fae0dfade
4,4.235,space,2.687,0,120,120,268,1,,,5ce7046a9390750017b64ac6,61b904e49976c648b19e59cc,2021-12-15_09h57.02.920,PRaM,2021.2.3,Win32,20.00560157,61b8f3437b89212fae0dfade
6,3.633,space,1.649,0,121,121,72,1,,,5ce7046a9390750017b64ac6,61b904e49976c648b19e59cc,2021-12-15_09h57.02.920,PRaM,2021.2.3,Win32,20.00560157,61b8f3437b89212fae0dfade
7,2.914,space,1.306,0,122,122,276,1,,,5ce7046a9390750017b64ac6,61b904e49976c648b19e59cc,2021-12-15_09h57.02.920,PRaM,2021.2.3,Win32,20.00560157,61b8f3437b89212fae0dfade
2,3.774,space,1.942,0,123,123,312,1,,,5ce7046a9390750017b64ac6,61b904e49976c648b19e59cc,2021-12-15_09h57.02.920,PRaM,2021.2.3,Win32,20.00560157,61b8f3437b89212fae0dfade
3,3.888,space,2.001,0,124,124,122,1,,,5ce7046a9390750017b64ac6,61b904e49976c648b19e59cc,2021-12-15_09h57.02.920,PRaM,2021.2.3,Win32,20.00560157,61b8f3437b89212fae0dfade
1,9.558,space,7.865,0,125,125,36,1,,,5ce7046a9390750017b64ac6,61b904e49976c648b19e59cc,2021-12-15_09h57.02.920,PRaM,2021.2.3,Win32,20.00560157,61b8f3437b89212fae0dfade
6,7.515,space,6.137,0,126,126,203,1,,,5ce7046a9390750017b64ac6,61b904e49976c648b19e59cc,2021-12-15_09h57.02.920,PRaM,2021.2.3,Win32,20.00560157,61b8f3437b89212fae0dfade
7,4.233,space,2.803,0,127,127,4,1,,,5ce7046a9390750017b64ac6,61b904e49976c648b19e59cc,2021-12-15_09h57.02.920,PRaM,2021.2.3,Win32,20.00560157,61b8f3437b89212fae0dfade
3,6.077,space,4.554,0,128,128,71,1,,,5ce7046a9390750017b64ac6,61b904e49976c648b19e59cc,2021-12-15_09h57.02.920,PRaM,2021.2.3,Win32,20.00560157,61b8f3437b89212fae0dfade
6,4.102,space,2.724,0,129,129,259,1,,,5ce7046a9390750017b64ac6,61b904e49976c648b19e59cc,2021-12-15_09h57.02.920,PRaM,2021.2.3,Win32,20.00560157,61b8f3437b89212fae0dfade
7,3.256,space,1.747,0,130,130,310,1,,,5ce7046a9390750017b64ac6,61b904e49976c648b19e59cc,2021-12-15_09h57.02.920,PRaM,2021.2.3,Win32,20.00560157,61b8f3437b89212fae0dfade
2,6.261,space,4.441,0,131,131,54,1,,,5ce7046a9390750017b64ac6,61b904e49976c648b19e59cc,2021-12-15_09h57.02.920,PRaM,2021.2.3,Win32,20.00560157,61b8f3437b89212fae0dfade
8,3.814,space,2.424,0,132,132,114,1,,,5ce7046a9390750017b64ac6,61b904e49976c648b19e59cc,2021-12-15_09h57.02.920,PRaM,2021.2.3,Win32,20.00560157,61b8f3437b89212fae0dfade
2,3.932,space,2.556,0,133,133,217,1,,,5ce7046a9390750017b64ac6,61b904e49976c648b19e59cc,2021-12-15_09h57.02.920,PRaM,2021.2.3,Win32,20.00560157,61b8f3437b89212fae0dfade
2,4.289,space,2.9,0,134,134,158,1,,,5ce7046a9390750017b64ac6,61b904e49976c648b19e59cc,2021-12-15_09h57.02.920,PRaM,2021.2.3,Win32,20.00560157,61b8f3437b89212fae0dfade
7,3.945,space,2.561,0,135,135,219,1,,,5ce7046a9390750017b64ac6,61b904e49976c648b19e59cc,2021-12-15_09h57.02.920,PRaM,2021.2.3,Win32,20.00560157,61b8f3437b89212fae0dfade
3,3.907,space,2.534,0,136,136,10,1,,,5ce7046a9390750017b64ac6,61b904e49976c648b19e59cc,2021-12-15_09h57.02.920,PRaM,2021.2.3,Win32,20.00560157,61b8f3437b89212fae0dfade
6,5.34,space,3.679,0,137,137,73,1,,,5ce7046a9390750017b64ac6,61b904e49976c648b19e59cc,2021-12-15_09h57.02.920,PRaM,2021.2.3,Win32,20.00560157,61b8f3437b89212fae0dfade
2,4.211,space,2.682,0,138,138,287,1,,,5ce7046a9390750017b64ac6,61b904e49976c648b19e59cc,2021-12-15_09h57.02.920,PRaM,2021.2.3,Win32,20.00560157,61b8f3437b89212fae0dfade
9,11.172,space,10.11,0,139,139,98,1,,,5ce7046a9390750017b64ac6,61b904e49976c648b19e59cc,2021-12-15_09h57.02.920,PRaM,2021.2.3,Win32,20.00560157,61b8f3437b89212fae0dfade
3,3.508,space,2.11,0,140,140,375,1,,,5ce7046a9390750017b64ac6,61b904e49976c648b19e59cc,2021-12-15_09h57.02.920,PRaM,2021.2.3,Win32,20.00560157,61b8f3437b89212fae0dfade
8,3.87,space,2.474,0,141,141,110,1,,,5ce7046a9390750017b64ac6,61b904e49976c648b19e59cc,2021-12-15_09h57.02.920,PRaM,2021.2.3,Win32,20.00560157,61b8f3437b89212fae0dfade
6,4.324,space,2.857,0,142,142,206,1,,,5ce7046a9390750017b64ac6,61b904e49976c648b19e59cc,2021-12-15_09h57.02.920,PRaM,2021.2.3,Win32,20.00560157,61b8f3437b89212fae0dfade
7,4.111,space,2.729,0,143,143,205,1,,,5ce7046a9390750017b64ac6,61b904e49976c648b19e59cc,2021-12-15_09h57.02.920,PRaM,2021.2.3,Win32,20.00560157,61b8f3437b89212fae0dfade
2,2.99,space,1.479,0,144,144,34,1,,,5ce7046a9390750017b64ac6,61b904e49976c648b19e59cc,2021-12-15_09h57.02.920,PRaM,2021.2.3,Win32,20.00560157,61b8f3437b89212fae0dfade
8,3.96,space,2.572,0,145,145,221,1,,,5ce7046a9390750017b64ac6,61b904e49976c648b19e59cc,2021-12-15_09h57.02.920,PRaM,2021.2.3,Win32,20.00560157,61b8f3437b89212fae0dfade
6,4.489,space,3,0,146,146,360,1,,,5ce7046a9390750017b64ac6,61b904e49976c648b19e59cc,2021-12-15_09h57.02.920,PRaM,2021.2.3,Win32,20.00560157,61b8f3437b89212fae0dfade
7,4.9,space,3.512,0,147,147,136,1,,,5ce7046a9390750017b64ac6,61b904e49976c648b19e59cc,2021-12-15_09h57.02.920,PRaM,2021.2.3,Win32,20.00560157,61b8f3437b89212fae0dfade
7,2.773,space,1.258,0,148,148,68,1,,,5ce7046a9390750017b64ac6,61b904e49976c648b19e59cc,2021-12-15_09h57.02.920,PRaM,2021.2.3,Win32,20.00560157,61b8f3437b89212fae0dfade
5,5.196,space,3.98,0,149,149,146,1,,,5ce7046a9390750017b64ac6,61b904e49976c648b19e59cc,2021-12-15_09h57.02.920,PRaM,2021.2.3,Win32,20.00560157,61b8f3437b89212fae0dfade
5,3.924,space,2.546,0,150,150,374,1,,,5ce7046a9390750017b64ac6,61b904e49976c648b19e59cc,2021-12-15_09h57.02.920,PRaM,2021.2.3,Win32,20.00560157,61b8f3437b89212fae0dfade
3,4.88,space,3.488,0,151,151,157,1,,,5ce7046a9390750017b64ac6,61b904e49976c648b19e59cc,2021-12-15_09h57.02.920,PRaM,2021.2.3,Win32,20.00560157,61b8f3437b89212fae0dfade
3,3.729,space,2.345,0,152,152,163,1,,,5ce7046a9390750017b64ac6,61b904e49976c648b19e59cc,2021-12-15_09h57.02.920,PRaM,2021.2.3,Win32,20.00560157,61b8f3437b89212fae0dfade
9,5.266,space,3.781,0,153,153,61,1,,,5ce7046a9390750017b64ac6,61b904e49976c648b19e59cc,2021-12-15_09h57.02.920,PRaM,2021.2.3,Win32,20.00560157,61b8f3437b89212fae0dfade
6,3.649,space,1.946,0,154,154,25,1,,,5ce7046a9390750017b64ac6,61b904e49976c648b19e59cc,2021-12-15_09h57.02.920,PRaM,2021.2.3,Win32,20.00560157,61b8f3437b89212fae0dfade
2,2.833,space,1.438,0,155,155,354,1,,,5ce7046a9390750017b64ac6,61b904e49976c648b19e59cc,2021-12-15_09h57.02.920,PRaM,2021.2.3,Win32,20.00560157,61b8f3437b89212fae0dfade
7,2.989,space,1.583,0,156,156,150,1,,,5ce7046a9390750017b64ac6,61b904e49976c648b19e59cc,2021-12-15_09h57.02.920,PRaM,2021.2.3,Win32,20.00560157,61b8f3437b89212fae0dfade
8,3.291,space,1.796,0,157,157,335,1,,,5ce7046a9390750017b64ac6,61b904e49976c648b19e59cc,2021-12-15_09h57.02.920,PRaM,2021.2.3,Win32,20.00560157,61b8f3437b89212fae0dfade
6,3.638,space,2.247,0,158,158,22,1,,,5ce7046a9390750017b64ac6,61b904e49976c648b19e59cc,2021-12-15_09h57.02.920,PRaM,2021.2.3,Win32,20.00560157,61b8f3437b89212fae0dfade
7,2.321,space,0.943,0,159,159,274,1,,,5ce7046a9390750017b64ac6,61b904e49976c648b19e59cc,2021-12-15_09h57.02.920,PRaM,2021.2.3,Win32,20.00560157,61b8f3437b89212fae0dfade
7,2.653,space,1.421,0,160,160,348,1,,,5ce7046a9390750017b64ac6,61b904e49976c648b19e59cc,2021-12-15_09h57.02.920,PRaM,2021.2.3,Win32,20.00560157,61b8f3437b89212fae0dfade
2,3.92,space,2.546,0,161,161,261,1,,,5ce7046a9390750017b64ac6,61b904e49976c648b19e59cc,2021-12-15_09h57.02.920,PRaM,2021.2.3,Win32,20.00560157,61b8f3437b89212fae0dfade
7,3.133,space,1.757,0,162,162,271,1,,,5ce7046a9390750017b64ac6,61b904e49976c648b19e59cc,2021-12-15_09h57.02.920,PRaM,2021.2.3,Win32,20.00560157,61b8f3437b89212fae0dfade
7,2.836,space,1.439,0,163,163,120,1,,,5ce7046a9390750017b64ac6,61b904e49976c648b19e59cc,2021-12-15_09h57.02.920,PRaM,2021.2.3,Win32,20.00560157,61b8f3437b89212fae0dfade
3,3.037,space,1.618,0,164,164,58,1,,,5ce7046a9390750017b64ac6,61b904e49976c648b19e59cc,2021-12-15_09h57.02.920,PRaM,2021.2.3,Win32,20.00560157,61b8f3437b89212fae0dfade
6,3.333,space,1.897,0,165,165,298,1,,,5ce7046a9390750017b64ac6,61b904e49976c648b19e59cc,2021-12-15_09h57.02.920,PRaM,2021.2.3,Win32,20.00560157,61b8f3437b89212fae0dfade
7,2.744,space,1.26,0,166,166,140,1,,,5ce7046a9390750017b64ac6,61b904e49976c648b19e59cc,2021-12-15_09h57.02.920,PRaM,2021.2.3,Win32,20.00560157,61b8f3437b89212fae0dfade
7,4.647,space,3.137,0,167,167,102,1,,,5ce7046a9390750017b64ac6,61b904e49976c648b19e59cc,2021-12-15_09h57.02.920,PRaM,2021.2.3,Win32,20.00560157,61b8f3437b89212fae0dfade
8,3.646,space,2.246,0,168,168,17,1,,,5ce7046a9390750017b64ac6,61b904e49976c648b19e59cc,2021-12-15_09h57.02.920,PRaM,2021.2.3,Win32,20.00560157,61b8f3437b89212fae0dfade
7,2.963,space,1.587,0,169,169,21,1,,,5ce7046a9390750017b64ac6,61b904e49976c648b19e59cc,2021-12-15_09h57.02.920,PRaM,2021.2.3,Win32,20.00560157,61b8f3437b89212fae0dfade
2,4.195,space,2.784,0,170,170,91,1,,,5ce7046a9390750017b64ac6,61b904e49976c648b19e59cc,2021-12-15_09h57.02.920,PRaM,2021.2.3,Win32,20.00560157,61b8f3437b89212fae0dfade
7,2.582,space,1.108,0,171,171,278,1,,,5ce7046a9390750017b64ac6,61b904e49976c648b19e59cc,2021-12-15_09h57.02.920,PRaM,2021.2.3,Win32,20.00560157,61b8f3437b89212fae0dfade
3,4.604,space,3.163,0,172,172,230,1,,,5ce7046a9390750017b64ac6,61b904e49976c648b19e59cc,2021-12-15_09h57.02.920,PRaM,2021.2.3,Win32,20.00560157,61b8f3437b89212fae0dfade
4,4.394,space,3.006,0,173,173,224,1,,,5ce7046a9390750017b64ac6,61b904e49976c648b19e59cc,2021-12-15_09h57.02.920,PRaM,2021.2.3,Win32,20.00560157,61b8f3437b89212fae0dfade
6,4.212,space,2.811,0,174,174,141,1,,,5ce7046a9390750017b64ac6,61b904e49976c648b19e59cc,2021-12-15_09h57.02.920,PRaM,2021.2.3,Win32,20.00560157,61b8f3437b89212fae0dfade
2,2.964,space,1.593,0,175,175,94,1,,,5ce7046a9390750017b64ac6,61b904e49976c648b19e59cc,2021-12-15_09h57.02.920,PRaM,2021.2.3,Win32,20.00560157,61b8f3437b89212fae0dfade
7,6.847,space,5.253,0,176,176,45,1,,,5ce7046a9390750017b64ac6,61b904e49976c648b19e59cc,2021-12-15_09h57.02.920,PRaM,2021.2.3,Win32,20.00560157,61b8f3437b89212fae0dfade
7,2.483,space,1.12,0,177,177,322,1,,,5ce7046a9390750017b64ac6,61b904e49976c648b19e59cc,2021-12-15_09h57.02.920,PRaM,2021.2.3,Win32,20.00560157,61b8f3437b89212fae0dfade
8,3.077,space,1.268,0,178,178,285,1,,,5ce7046a9390750017b64ac6,61b904e49976c648b19e59cc,2021-12-15_09h57.02.920,PRaM,2021.2.3,Win32,20.00560157,61b8f3437b89212fae0dfade
9,3.485,space,2.074,0,179,179,291,1,,,5ce7046a9390750017b64ac6,61b904e49976c648b19e59cc,2021-12-15_09h57.02.920,PRaM,2021.2.3,Win32,20.00560157,61b8f3437b89212fae0dfade
2,3.629,space,1.793,0,180,180,191,1,,,5ce7046a9390750017b64ac6,61b904e49976c648b19e59cc,2021-12-15_09h57.02.920,PRaM,2021.2.3,Win32,20.00560157,61b8f3437b89212fae0dfade
7,4.05,space,2.65,0,181,181,19,1,,,5ce7046a9390750017b64ac6,61b904e49976c648b19e59cc,2021-12-15_09h57.02.920,PRaM,2021.2.3,Win32,20.00560157,61b8f3437b89212fae0dfade
9,2.755,space,1.312,0,182,182,115,1,,,5ce7046a9390750017b64ac6,61b904e49976c648b19e59cc,2021-12-15_09h57.02.920,PRaM,2021.2.3,Win32,20.00560157,61b8f3437b89212fae0dfade
9,3.093,space,1.707,0,183,183,143,1,,,5ce7046a9390750017b64ac6,61b904e49976c648b19e59cc,2021-12-15_09h57.02.920,PRaM,2021.2.3,Win32,20.00560157,61b8f3437b89212fae0dfade
7,6.079,space,4.64,0,184,184,273,1,,,5ce7046a9390750017b64ac6,61b904e49976c648b19e59cc,2021-12-15_09h57.02.920,PRaM,2021.2.3,Win32,20.00560157,61b8f3437b89212fae0dfade
8,5.933,space,4.466,0,185,185,366,1,,,5ce7046a9390750017b64ac6,61b904e49976c648b19e59cc,2021-12-15_09h57.02.920,PRaM,2021.2.3,Win32,20.00560157,61b8f3437b89212fae0dfade
6,3.028,space,1.654,0,186,186,376,1,,,5ce7046a9390750017b64ac6,61b904e49976c648b19e59cc,2021-12-15_09h57.02.920,PRaM,2021.2.3,Win32,20.00560157,61b8f3437b89212fae0dfade
8,5.575,space,3.876,0,187,187,29,1,,,5ce7046a9390750017b64ac6,61b904e49976c648b19e59cc,2021-12-15_09h57.02.920,PRaM,2021.2.3,Win32,20.00560157,61b8f3437b89212fae0dfade
8,2.781,space,1.399,0,188,188,365,1,,,5ce7046a9390750017b64ac6,61b904e49976c648b19e59cc,2021-12-15_09h57.02.920,PRaM,2021.2.3,Win32,20.00560157,61b8f3437b89212fae0dfade
2,3.287,space,1.477,0,189,189,262,1,,,5ce7046a9390750017b64ac6,61b904e49976c648b19e59cc,2021-12-15_09h57.02.920,PRaM,2021.2.3,Win32,20.00560157,61b8f3437b89212fae0dfade
6,3.078,space,1.665,0,190,190,77,1,,,5ce7046a9390750017b64ac6,61b904e49976c648b19e59cc,2021-12-15_09h57.02.920,PRaM,2021.2.3,Win32,20.00560157,61b8f3437b89212fae0dfade
6,5.331,space,3.79,0,191,191,270,1,,,5ce7046a9390750017b64ac6,61b904e49976c648b19e59cc,2021-12-15_09h57.02.920,PRaM,2021.2.3,Win32,20.00560157,61b8f3437b89212fae0dfade
3,5.533,space,3.849,0,192,192,263,1,,,5ce7046a9390750017b64ac6,61b904e49976c648b19e59cc,2021-12-15_09h57.02.920,PRaM,2021.2.3,Win32,20.00560157,61b8f3437b89212fae0dfade
6,2.56,space,1.129,0,193,193,294,1,,,5ce7046a9390750017b64ac6,61b904e49976c648b19e59cc,2021-12-15_09h57.02.920,PRaM,2021.2.3,Win32,20.00560157,61b8f3437b89212fae0dfade
2,2.968,space,1.589,0,194,194,50,1,,,5ce7046a9390750017b64ac6,61b904e49976c648b19e59cc,2021-12-15_09h57.02.920,PRaM,2021.2.3,Win32,20.00560157,61b8f3437b89212fae0dfade
4,6.295,space,4.76,0,195,195,97,1,,,5ce7046a9390750017b64ac6,61b904e49976c648b19e59cc,2021-12-15_09h57.02.920,PRaM,2021.2.3,Win32,20.00560157,61b8f3437b89212fae0dfade
5,9.894,space,8.558,0,196,196,167,1,,,5ce7046a9390750017b64ac6,61b904e49976c648b19e59cc,2021-12-15_09h57.02.920,PRaM,2021.2.3,Win32,20.00560157,61b8f3437b89212fae0dfade
7,3.315,space,1.912,0,197,197,325,1,,,5ce7046a9390750017b64ac6,61b904e49976c648b19e59cc,2021-12-15_09h57.02.920,PRaM,2021.2.3,Win32,20.00560157,61b8f3437b89212fae0dfade
5,5.364,space,3.847,0,198,198,175,1,,,5ce7046a9390750017b64ac6,61b904e49976c648b19e59cc,2021-12-15_09h57.02.920,PRaM,2021.2.3,Win32,20.00560157,61b8f3437b89212fae0dfade
7,3.129,space,1.765,0,199,199,201,1,,,5ce7046a9390750017b64ac6,61b904e49976c648b19e59cc,2021-12-15_09h57.02.920,PRaM,2021.2.3,Win32,20.00560157,61b8f3437b89212fae0dfade
8,13.805,space,12.435,0,200,200,225,1,,,5ce7046a9390750017b64ac6,61b904e49976c648b19e59cc,2021-12-15_09h57.02.920,PRaM,2021.2.3,Win32,20.00560157,61b8f3437b89212fae0dfade
8,2.474,space,1.11,0,201,201,370,1,,,5ce7046a9390750017b64ac6,61b904e49976c648b19e59cc,2021-12-15_09h57.02.920,PRaM,2021.2.3,Win32,20.00560157,61b8f3437b89212fae0dfade
2,4.966,space,3.463,0,202,202,23,1,,,5ce7046a9390750017b64ac6,61b904e49976c648b19e59cc,2021-12-15_09h57.02.920,PRaM,2021.2.3,Win32,20.00560157,61b8f3437b89212fae0dfade
7,3.766,space,2.41,0,203,203,313,1,,,5ce7046a9390750017b64ac6,61b904e49976c648b19e59cc,2021-12-15_09h57.02.920,PRaM,2021.2.3,Win32,20.00560157,61b8f3437b89212fae0dfade
5,4.682,space,3.255,0,204,204,126,1,,,5ce7046a9390750017b64ac6,61b904e49976c648b19e59cc,2021-12-15_09h57.02.920,PRaM,2021.2.3,Win32,20.00560157,61b8f3437b89212fae0dfade
6,3.657,space,2.297,0,205,205,152,1,,,5ce7046a9390750017b64ac6,61b904e49976c648b19e59cc,2021-12-15_09h57.02.920,PRaM,2021.2.3,Win32,20.00560157,61b8f3437b89212fae0dfade
6,4.768,space,2.754,0,206,206,255,1,,,5ce7046a9390750017b64ac6,61b904e49976c648b19e59cc,2021-12-15_09h57.02.920,PRaM,2021.2.3,Win32,20.00560157,61b8f3437b89212fae0dfade
2,3.967,space,2.597,0,207,207,108,1,,,5ce7046a9390750017b64ac6,61b904e49976c648b19e59cc,2021-12-15_09h57.02.920,PRaM,2021.2.3,Win32,20.00560157,61b8f3437b89212fae0dfade
6,6.795,space,5.11,0,208,208,371,1,,,5ce7046a9390750017b64ac6,61b904e49976c648b19e59cc,2021-12-15_09h57.02.920,PRaM,2021.2.3,Win32,20.00560157,61b8f3437b89212fae0dfade
7,3.182,space,2.886,0,209,209,0,1,,,5ce7046a9390750017b64ac6,61b904e49976c648b19e59cc,2021-12-15_09h57.02.920,PRaM,2021.2.3,Win32,20.00560157,61b8f3437b89212fae0dfade
8,2.814,space,1.441,0,210,210,75,1,,,5ce7046a9390750017b64ac6,61b904e49976c648b19e59cc,2021-12-15_09h57.02.920,PRaM,2021.2.3,Win32,20.00560157,61b8f3437b89212fae0dfade
8,4.591,space,3.196,0,211,211,144,1,,,5ce7046a9390750017b64ac6,61b904e49976c648b19e59cc,2021-12-15_09h57.02.920,PRaM,2021.2.3,Win32,20.00560157,61b8f3437b89212fae0dfade
8,2.525,space,1.131,0,212,212,111,1,,,5ce7046a9390750017b64ac6,61b904e49976c648b19e59cc,2021-12-15_09h57.02.920,PRaM,2021.2.3,Win32,20.00560157,61b8f3437b89212fae0dfade
2,2.737,space,1.328,0,213,213,214,1,,,5ce7046a9390750017b64ac6,61b904e49976c648b19e59cc,2021-12-15_09h57.02.920,PRaM,2021.2.3,Win32,20.00560157,61b8f3437b89212fae0dfade
2,4.432,space,2.96,0,214,214,121,1,,,5ce7046a9390750017b64ac6,61b904e49976c648b19e59cc,2021-12-15_09h57.02.920,PRaM,2021.2.3,Win32,20.00560157,61b8f3437b89212fae0dfade
2,3.994,space,2.567,0,215,215,229,1,,,5ce7046a9390750017b64ac6,61b904e49976c648b19e59cc,2021-12-15_09h57.02.920,PRaM,2021.2.3,Win32,20.00560157,61b8f3437b89212fae0dfade
6,3.864,space,2.438,0,216,216,51,1,,,5ce7046a9390750017b64ac6,61b904e49976c648b19e59cc,2021-12-15_09h57.02.920,PRaM,2021.2.3,Win32,20.00560157,61b8f3437b89212fae0dfade
8,3.383,space,1.974,0,217,217,42,1,,,5ce7046a9390750017b64ac6,61b904e49976c648b19e59cc,2021-12-15_09h57.02.920,PRaM,2021.2.3,Win32,20.00560157,61b8f3437b89212fae0dfade
9,6.297,space,4.737,0,218,218,3,1,,,5ce7046a9390750017b64ac6,61b904e49976c648b19e59cc,2021-12-15_09h57.02.920,PRaM,2021.2.3,Win32,20.00560157,61b8f3437b89212fae0dfade
6,4.966,space,3.134,0,219,219,226,1,,,5ce7046a9390750017b64ac6,61b904e49976c648b19e59cc,2021-12-15_09h57.02.920,PRaM,2021.2.3,Win32,20.00560157,61b8f3437b89212fae0dfade
4,3.313,space,1.93,0,220,220,343,1,,,5ce7046a9390750017b64ac6,61b904e49976c648b19e59cc,2021-12-15_09h57.02.920,PRaM,2021.2.3,Win32,20.00560157,61b8f3437b89212fae0dfade
7,3.046,space,1.646,0,221,221,38,1,,,5ce7046a9390750017b64ac6,61b904e49976c648b19e59cc,2021-12-15_09h57.02.920,PRaM,2021.2.3,Win32,20.00560157,61b8f3437b89212fae0dfade
3,6.419,space,4.903,0,222,222,359,1,,,5ce7046a9390750017b64ac6,61b904e49976c648b19e59cc,2021-12-15_09h57.02.920,PRaM,2021.2.3,Win32,20.00560157,61b8f3437b89212fae0dfade
7,2.964,space,1.587,0,223,223,198,1,,,5ce7046a9390750017b64ac6,61b904e49976c648b19e59cc,2021-12-15_09h57.02.920,PRaM,2021.2.3,Win32,20.00560157,61b8f3437b89212fae0dfade
5,3.777,space,2.438,0,224,224,218,1,,,5ce7046a9390750017b64ac6,61b904e49976c648b19e59cc,2021-12-15_09h57.02.920,PRaM,2021.2.3,Win32,20.00560157,61b8f3437b89212fae0dfade
3,3.736,space,2.357,0,225,225,185,1,,,5ce7046a9390750017b64ac6,61b904e49976c648b19e59cc,2021-12-15_09h57.02.920,PRaM,2021.2.3,Win32,20.00560157,61b8f3437b89212fae0dfade
1,3.293,space,1.913,0,226,226,28,1,,,5ce7046a9390750017b64ac6,61b904e49976c648b19e59cc,2021-12-15_09h57.02.920,PRaM,2021.2.3,Win32,20.00560157,61b8f3437b89212fae0dfade
4,6.121,space,4.748,0,227,227,149,1,,,5ce7046a9390750017b64ac6,61b904e49976c648b19e59cc,2021-12-15_09h57.02.920,PRaM,2021.2.3,Win32,20.00560157,61b8f3437b89212fae0dfade
4,3.43,space,2.045,0,228,228,151,1,,,5ce7046a9390750017b64ac6,61b904e49976c648b19e59cc,2021-12-15_09h57.02.920,PRaM,2021.2.3,Win32,20.00560157,61b8f3437b89212fae0dfade
6,3.024,space,1.465,0,229,229,87,1,,,5ce7046a9390750017b64ac6,61b904e49976c648b19e59cc,2021-12-15_09h57.02.920,PRaM,2021.2.3,Win32,20.00560157,61b8f3437b89212fae0dfade
6,2.756,space,1.254,0,230,230,18,1,,,5ce7046a9390750017b64ac6,61b904e49976c648b19e59cc,2021-12-15_09h57.02.920,PRaM,2021.2.3,Win32,20.00560157,61b8f3437b89212fae0dfade
6,2.974,space,1.591,0,231,231,63,1,,,5ce7046a9390750017b64ac6,61b904e49976c648b19e59cc,2021-12-15_09h57.02.920,PRaM,2021.2.3,Win32,20.00560157,61b8f3437b89212fae0dfade
3,5.557,space,3.994,0,232,232,368,1,,,5ce7046a9390750017b64ac6,61b904e49976c648b19e59cc,2021-12-15_09h57.02.920,PRaM,2021.2.3,Win32,20.00560157,61b8f3437b89212fae0dfade
3,3.63,space,2.24,0,233,233,89,1,,,5ce7046a9390750017b64ac6,61b904e49976c648b19e59cc,2021-12-15_09h57.02.920,PRaM,2021.2.3,Win32,20.00560157,61b8f3437b89212fae0dfade
3,2.974,space,1.571,0,234,234,188,1,,,5ce7046a9390750017b64ac6,61b904e49976c648b19e59cc,2021-12-15_09h57.02.920,PRaM,2021.2.3,Win32,20.00560157,61b8f3437b89212fae0dfade
4,5.321,space,3.632,0,235,235,361,1,,,5ce7046a9390750017b64ac6,61b904e49976c648b19e59cc,2021-12-15_09h57.02.920,PRaM,2021.2.3,Win32,20.00560157,61b8f3437b89212fae0dfade
6,3.016,space,1.328,0,236,236,84,1,,,5ce7046a9390750017b64ac6,61b904e49976c648b19e59cc,2021-12-15_09h57.02.920,PRaM,2021.2.3,Win32,20.00560157,61b8f3437b89212fae0dfade
7,5.259,space,3.756,0,237,237,280,1,,,5ce7046a9390750017b64ac6,61b904e49976c648b19e59cc,2021-12-15_09h57.02.920,PRaM,2021.2.3,Win32,20.00560157,61b8f3437b89212fae0dfade
8,2.8,space,1.28,0,238,238,222,1,,,5ce7046a9390750017b64ac6,61b904e49976c648b19e59cc,2021-12-15_09h57.02.920,PRaM,2021.2.3,Win32,20.00560157,61b8f3437b89212fae0dfade
3,2.804,space,1.26,0,239,239,109,1,,,5ce7046a9390750017b64ac6,61b904e49976c648b19e59cc,2021-12-15_09h57.02.920,PRaM,2021.2.3,Win32,20.00560157,61b8f3437b89212fae0dfade
3,2.949,space,1.273,0,240,240,130,1,,,5ce7046a9390750017b64ac6,61b904e49976c648b19e59cc,2021-12-15_09h57.02.920,PRaM,2021.2.3,Win32,20.00560157,61b8f3437b89212fae0dfade
6,4.343,space,2.652,0,241,241,131,1,,,5ce7046a9390750017b64ac6,61b904e49976c648b19e59cc,2021-12-15_09h57.02.920,PRaM,2021.2.3,Win32,20.00560157,61b8f3437b89212fae0dfade
6,5.907,space,4.368,0,242,242,269,1,,,5ce7046a9390750017b64ac6,61b904e49976c648b19e59cc,2021-12-15_09h57.02.920,PRaM,2021.2.3,Win32,20.00560157,61b8f3437b89212fae0dfade
7,3.721,space,2.218,0,243,243,239,1,,,5ce7046a9390750017b64ac6,61b904e49976c648b19e59cc,2021-12-15_09h57.02.920,PRaM,2021.2.3,Win32,20.00560157,61b8f3437b89212fae0dfade
6,3.625,space,2.248,0,244,244,129,1,,,5ce7046a9390750017b64ac6,61b904e49976c648b19e59cc,2021-12-15_09h57.02.920,PRaM,2021.2.3,Win32,20.00560157,61b8f3437b89212fae0dfade
4,8.385,space,7.043,0,245,245,166,1,,,5ce7046a9390750017b64ac6,61b904e49976c648b19e59cc,2021-12-15_09h57.02.920,PRaM,2021.2.3,Win32,20.00560157,61b8f3437b89212fae0dfade
4,2.663,space,1.32,0,246,246,148,1,,,5ce7046a9390750017b64ac6,61b904e49976c648b19e59cc,2021-12-15_09h57.02.920,PRaM,2021.2.3,Win32,20.00560157,61b8f3437b89212fae0dfade
8,2.831,space,1.433,0,247,247,83,1,,,5ce7046a9390750017b64ac6,61b904e49976c648b19e59cc,2021-12-15_09h57.02.920,PRaM,2021.2.3,Win32,20.00560157,61b8f3437b89212fae0dfade
8,2.612,space,1.104,0,248,248,112,1,,,5ce7046a9390750017b64ac6,61b904e49976c648b19e59cc,2021-12-15_09h57.02.920,PRaM,2021.2.3,Win32,20.00560157,61b8f3437b89212fae0dfade
3,6.339,space,4.96,0,249,249,81,1,,,5ce7046a9390750017b64ac6,61b904e49976c648b19e59cc,2021-12-15_09h57.02.920,PRaM,2021.2.3,Win32,20.00560157,61b8f3437b89212fae0dfade
5,3.632,space,2.116,0,250,250,342,1,,,5ce7046a9390750017b64ac6,61b904e49976c648b19e59cc,2021-12-15_09h57.02.920,PRaM,2021.2.3,Win32,20.00560157,61b8f3437b89212fae0dfade
8,2.664,space,1.124,0,251,251,211,1,,,5ce7046a9390750017b64ac6,61b904e49976c648b19e59cc,2021-12-15_09h57.02.920,PRaM,2021.2.3,Win32,20.00560157,61b8f3437b89212fae0dfade
2,3.622,space,1.641,0,252,252,155,1,,,5ce7046a9390750017b64ac6,61b904e49976c648b19e59cc,2021-12-15_09h57.02.920,PRaM,2021.2.3,Win32,20.00560157,61b8f3437b89212fae0dfade
2,2.459,space,0.942,0,253,253,27,1,,,5ce7046a9390750017b64ac6,61b904e49976c648b19e59cc,2021-12-15_09h57.02.920,PRaM,2021.2.3,Win32,20.00560157,61b8f3437b89212fae0dfade
7,2.831,space,1.444,0,254,254,303,1,,,5ce7046a9390750017b64ac6,61b904e49976c648b19e59cc,2021-12-15_09h57.02.920,PRaM,2021.2.3,Win32,20.00560157,61b8f3437b89212fae0dfade
6,4.683,space,2.851,0,255,255,258,1,,,5ce7046a9390750017b64ac6,61b904e49976c648b19e59cc,2021-12-15_09h57.02.920,PRaM,2021.2.3,Win32,20.00560157,61b8f3437b89212fae0dfade
7,3.098,space,1.431,0,256,256,364,1,,,5ce7046a9390750017b64ac6,61b904e49976c648b19e59cc,2021-12-15_09h57.02.920,PRaM,2021.2.3,Win32,20.00560157,61b8f3437b89212fae0dfade
2,13.147,space,11.621,0,257,257,8,1,,,5ce7046a9390750017b64ac6,61b904e49976c648b19e59cc,2021-12-15_09h57.02.920,PRaM,2021.2.3,Win32,20.00560157,61b8f3437b89212fae0dfade
7,2.457,space,0.802,0,258,258,174,1,,,5ce7046a9390750017b64ac6,61b904e49976c648b19e59cc,2021-12-15_09h57.02.920,PRaM,2021.2.3,Win32,20.00560157,61b8f3437b89212fae0dfade
6,4.745,space,3.037,0,259,259,304,1,,,5ce7046a9390750017b64ac6,61b904e49976c648b19e59cc,2021-12-15_09h57.02.920,PRaM,2021.2.3,Win32,20.00560157,61b8f3437b89212fae0dfade
5,3.793,space,2.406,0,260,260,240,1,,,5ce7046a9390750017b64ac6,61b904e49976c648b19e59cc,2021-12-15_09h57.02.920,PRaM,2021.2.3,Win32,20.00560157,61b8f3437b89212fae0dfade
6,8.767,space,7.349,0,261,261,223,1,,,5ce7046a9390750017b64ac6,61b904e49976c648b19e59cc,2021-12-15_09h57.02.920,PRaM,2021.2.3,Win32,20.00560157,61b8f3437b89212fae0dfade
6,3.534,space,2.02,0,262,262,349,1,,,5ce7046a9390750017b64ac6,61b904e49976c648b19e59cc,2021-12-15_09h57.02.920,PRaM,2021.2.3,Win32,20.00560157,61b8f3437b89212fae0dfade
8,4.711,space,3.331,0,263,263,281,1,,,5ce7046a9390750017b64ac6,61b904e49976c648b19e59cc,2021-12-15_09h57.02.920,PRaM,2021.2.3,Win32,20.00560157,61b8f3437b89212fae0dfade
8,2.292,space,0.799,0,264,264,306,1,,,5ce7046a9390750017b64ac6,61b904e49976c648b19e59cc,2021-12-15_09h57.02.920,PRaM,2021.2.3,Win32,20.00560157,61b8f3437b89212fae0dfade
4,5.394,space,4.02,0,265,265,138,1,,,5ce7046a9390750017b64ac6,61b904e49976c648b19e59cc,2021-12-15_09h57.02.920,PRaM,2021.2.3,Win32,20.00560157,61b8f3437b89212fae0dfade
1,3.635,space,2.238,0,266,266,246,1,,,5ce7046a9390750017b64ac6,61b904e49976c648b19e59cc,2021-12-15_09h57.02.920,PRaM,2021.2.3,Win32,20.00560157,61b8f3437b89212fae0dfade
2,3.285,space,1.589,0,267,267,358,1,,,5ce7046a9390750017b64ac6,61b904e49976c648b19e59cc,2021-12-15_09h57.02.920,PRaM,2021.2.3,Win32,20.00560157,61b8f3437b89212fae0dfade
1,3.299,space,1.763,0,268,268,329,1,,,5ce7046a9390750017b64ac6,61b904e49976c648b19e59cc,2021-12-15_09h57.02.920,PRaM,2021.2.3,Win32,20.00560157,61b8f3437b89212fae0dfade
6,4.913,space,3.515,0,269,269,46,1,,,5ce7046a9390750017b64ac6,61b904e49976c648b19e59cc,2021-12-15_09h57.02.920,PRaM,2021.2.3,Win32,20.00560157,61b8f3437b89212fae0dfade
8,3.147,space,1.785,0,270,270,297,1,,,5ce7046a9390750017b64ac6,61b904e49976c648b19e59cc,2021-12-15_09h57.02.920,PRaM,2021.2.3,Win32,20.00560157,61b8f3437b89212fae0dfade
2,3.037,space,1.445,0,271,271,55,1,,,5ce7046a9390750017b64ac6,61b904e49976c648b19e59cc,2021-12-15_09h57.02.920,PRaM,2021.2.3,Win32,20.00560157,61b8f3437b89212fae0dfade
2,5.427,space,3.906,0,272,272,315,1,,,5ce7046a9390750017b64ac6,61b904e49976c648b19e59cc,2021-12-15_09h57.02.920,PRaM,2021.2.3,Win32,20.00560157,61b8f3437b89212fae0dfade
7,5.032,space,3.656,0,273,273,134,1,,,5ce7046a9390750017b64ac6,61b904e49976c648b19e59cc,2021-12-15_09h57.02.920,PRaM,2021.2.3,Win32,20.00560157,61b8f3437b89212fae0dfade
7,5.293,space,3.76,0,274,274,216,1,,,5ce7046a9390750017b64ac6,61b904e49976c648b19e59cc,2021-12-15_09h57.02.920,PRaM,2021.2.3,Win32,20.00560157,61b8f3437b89212fae0dfade
6,3.147,space,1.656,0,275,275,332,1,,,5ce7046a9390750017b64ac6,61b904e49976c648b19e59cc,2021-12-15_09h57.02.920,PRaM,2021.2.3,Win32,20.00560157,61b8f3437b89212fae0dfade
6,2.93,space,1.565,0,276,276,26,1,,,5ce7046a9390750017b64ac6,61b904e49976c648b19e59cc,2021-12-15_09h57.02.920,PRaM,2021.2.3,Win32,20.00560157,61b8f3437b89212fae0dfade
5,3.475,space,1.799,0,277,277,153,1,,,5ce7046a9390750017b64ac6,61b904e49976c648b19e59cc,2021-12-15_09h57.02.920,PRaM,2021.2.3,Win32,20.00560157,61b8f3437b89212fae0dfade
7,2.842,space,1.609,0,278,278,159,1,,,5ce7046a9390750017b64ac6,61b904e49976c648b19e59cc,2021-12-15_09h57.02.920,PRaM,2021.2.3,Win32,20.00560157,61b8f3437b89212fae0dfade
8,2.525,space,0.662,0,279,279,350,1,,,5ce7046a9390750017b64ac6,61b904e49976c648b19e59cc,2021-12-15_09h57.02.920,PRaM,2021.2.3,Win32,20.00560157,61b8f3437b89212fae0dfade
2,2.669,space,1.272,0,280,280,338,1,,,5ce7046a9390750017b64ac6,61b904e49976c648b19e59cc,2021-12-15_09h57.02.920,PRaM,2021.2.3,Win32,20.00560157,61b8f3437b89212fae0dfade
6,3.713,space,2.156,0,281,281,66,1,,,5ce7046a9390750017b64ac6,61b904e49976c648b19e59cc,2021-12-15_09h57.02.920,PRaM,2021.2.3,Win32,20.00560157,61b8f3437b89212fae0dfade
5,3.484,space,1.755,0,282,282,193,1,,,5ce7046a9390750017b64ac6,61b904e49976c648b19e59cc,2021-12-15_09h57.02.920,PRaM,2021.2.3,Win32,20.00560157,61b8f3437b89212fae0dfade
5,2.854,space,1.463,0,283,283,187,1,,,5ce7046a9390750017b64ac6,61b904e49976c648b19e59cc,2021-12-15_09h57.02.920,PRaM,2021.2.3,Win32,20.00560157,61b8f3437b89212fae0dfade
1,6.569,space,5.204,0,284,284,190,1,,,5ce7046a9390750017b64ac6,61b904e49976c648b19e59cc,2021-12-15_09h57.02.920,PRaM,2021.2.3,Win32,20.00560157,61b8f3437b89212fae0dfade
8,3.179,space,1.787,0,285,285,372,1,,,5ce7046a9390750017b64ac6,61b904e49976c648b19e59cc,2021-12-15_09h57.02.920,PRaM,2021.2.3,Win32,20.00560157,61b8f3437b89212fae0dfade
5,2.662,space,1.291,0,286,286,257,1,,,5ce7046a9390750017b64ac6,61b904e49976c648b19e59cc,2021-12-15_09h57.02.920,PRaM,2021.2.3,Win32,20.00560157,61b8f3437b89212fae0dfade
2,3.777,space,2.417,0,287,287,308,1,,,5ce7046a9390750017b64ac6,61b904e49976c648b19e59cc,2021-12-15_09h57.02.920,PRaM,2021.2.3,Win32,20.00560157,61b8f3437b89212fae0dfade
2,2.352,space,0.963,0,288,288,289,1,,,5ce7046a9390750017b64ac6,61b904e49976c648b19e59cc,2021-12-15_09h57.02.920,PRaM,2021.2.3,Win32,20.00560157,61b8f3437b89212fae0dfade
6,3.387,space,1.988,0,289,289,331,1,,,5ce7046a9390750017b64ac6,61b904e49976c648b19e59cc,2021-12-15_09h57.02.920,PRaM,2021.2.3,Win32,20.00560157,61b8f3437b89212fae0dfade
6,3.3,space,1.923,0,290,290,99,1,,,5ce7046a9390750017b64ac6,61b904e49976c648b19e59cc,2021-12-15_09h57.02.920,PRaM,2021.2.3,Win32,20.00560157,61b8f3437b89212fae0dfade
6,2.985,space,1.59,0,291,291,200,1,,,5ce7046a9390750017b64ac6,61b904e49976c648b19e59cc,2021-12-15_09h57.02.920,PRaM,2021.2.3,Win32,20.00560157,61b8f3437b89212fae0dfade
7,2.839,space,1.455,0,292,292,12,1,,,5ce7046a9390750017b64ac6,61b904e49976c648b19e59cc,2021-12-15_09h57.02.920,PRaM,2021.2.3,Win32,20.00560157,61b8f3437b89212fae0dfade
6,4.451,space,2.858,0,293,293,172,1,,,5ce7046a9390750017b64ac6,61b904e49976c648b19e59cc,2021-12-15_09h57.02.920,PRaM,2021.2.3,Win32,20.00560157,61b8f3437b89212fae0dfade
5,2.97,space,1.759,0,294,294,124,1,,,5ce7046a9390750017b64ac6,61b904e49976c648b19e59cc,2021-12-15_09h57.02.920,PRaM,2021.2.3,Win32,20.00560157,61b8f3437b89212fae0dfade
8,2.807,space,1.437,0,295,295,88,1,,,5ce7046a9390750017b64ac6,61b904e49976c648b19e59cc,2021-12-15_09h57.02.920,PRaM,2021.2.3,Win32,20.00560157,61b8f3437b89212fae0dfade
6,3.342,space,1.94,0,296,296,184,1,,,5ce7046a9390750017b64ac6,61b904e49976c648b19e59cc,2021-12-15_09h57.02.920,PRaM,2021.2.3,Win32,20.00560157,61b8f3437b89212fae0dfade
8,7.633,space,6.221,0,297,297,186,1,,,5ce7046a9390750017b64ac6,61b904e49976c648b19e59cc,2021-12-15_09h57.02.920,PRaM,2021.2.3,Win32,20.00560157,61b8f3437b89212fae0dfade
8,2.328,space,1,0,298,298,86,1,,,5ce7046a9390750017b64ac6,61b904e49976c648b19e59cc,2021-12-15_09h57.02.920,PRaM,2021.2.3,Win32,20.00560157,61b8f3437b89212fae0dfade
2,5.069,space,3.701,0,299,299,253,1,,,5ce7046a9390750017b64ac6,61b904e49976c648b19e59cc,2021-12-15_09h57.02.920,PRaM,2021.2.3,Win32,20.00560157,61b8f3437b89212fae0dfade
9,3.346,space,1.912,0,300,300,326,1,,,5ce7046a9390750017b64ac6,61b904e49976c648b19e59cc,2021-12-15_09h57.02.920,PRaM,2021.2.3,Win32,20.00560157,61b8f3437b89212fae0dfade
9,2.615,space,1.095,0,301,301,47,1,,,5ce7046a9390750017b64ac6,61b904e49976c648b19e59cc,2021-12-15_09h57.02.920,PRaM,2021.2.3,Win32,20.00560157,61b8f3437b89212fae0dfade
6,6.392,space,4.846,0,302,302,243,1,,,5ce7046a9390750017b64ac6,61b904e49976c648b19e59cc,2021-12-15_09h57.02.920,PRaM,2021.2.3,Win32,20.00560157,61b8f3437b89212fae0dfade
1,3.45,space,1.943,0,303,303,106,1,,,5ce7046a9390750017b64ac6,61b904e49976c648b19e59cc,2021-12-15_09h57.02.920,PRaM,2021.2.3,Win32,20.00560157,61b8f3437b89212fae0dfade
1,3.424,space,1.935,0,304,304,220,1,,,5ce7046a9390750017b64ac6,61b904e49976c648b19e59cc,2021-12-15_09h57.02.920,PRaM,2021.2.3,Win32,20.00560157,61b8f3437b89212fae0dfade
5,2.675,space,1.001,0,305,305,286,1,,,5ce7046a9390750017b64ac6,61b904e49976c648b19e59cc,2021-12-15_09h57.02.920,PRaM,2021.2.3,Win32,20.00560157,61b8f3437b89212fae0dfade
6,2.846,space,1.439,0,306,306,277,1,,,5ce7046a9390750017b64ac6,61b904e49976c648b19e59cc,2021-12-15_09h57.02.920,PRaM,2021.2.3,Win32,20.00560157,61b8f3437b89212fae0dfade
2,2.868,space,0.985,0,307,307,5,1,,,5ce7046a9390750017b64ac6,61b904e49976c648b19e59cc,2021-12-15_09h57.02.920,PRaM,2021.2.3,Win32,20.00560157,61b8f3437b89212fae0dfade
9,2.723,space,1.281,0,308,308,363,1,,,5ce7046a9390750017b64ac6,61b904e49976c648b19e59cc,2021-12-15_09h57.02.920,PRaM,2021.2.3,Win32,20.00560157,61b8f3437b89212fae0dfade
3,4.554,space,2.889,0,309,309,208,1,,,5ce7046a9390750017b64ac6,61b904e49976c648b19e59cc,2021-12-15_09h57.02.920,PRaM,2021.2.3,Win32,20.00560157,61b8f3437b89212fae0dfade
3,5.144,space,3.76,0,310,310,194,1,,,5ce7046a9390750017b64ac6,61b904e49976c648b19e59cc,2021-12-15_09h57.02.920,PRaM,2021.2.3,Win32,20.00560157,61b8f3437b89212fae0dfade
7,7.43,space,5.929,0,311,311,132,1,,,5ce7046a9390750017b64ac6,61b904e49976c648b19e59cc,2021-12-15_09h57.02.920,PRaM,2021.2.3,Win32,20.00560157,61b8f3437b89212fae0dfade
7,2.153,space,0.814,0,312,312,179,1,,,5ce7046a9390750017b64ac6,61b904e49976c648b19e59cc,2021-12-15_09h57.02.920,PRaM,2021.2.3,Win32,20.00560157,61b8f3437b89212fae0dfade
7,2.994,space,1.618,0,313,313,328,1,,,5ce7046a9390750017b64ac6,61b904e49976c648b19e59cc,2021-12-15_09h57.02.920,PRaM,2021.2.3,Win32,20.00560157,61b8f3437b89212fae0dfade
7,2.766,space,1.244,0,314,314,16,1,,,5ce7046a9390750017b64ac6,61b904e49976c648b19e59cc,2021-12-15_09h57.02.920,PRaM,2021.2.3,Win32,20.00560157,61b8f3437b89212fae0dfade
7,2.471,space,1.101,0,315,315,182,1,,,5ce7046a9390750017b64ac6,61b904e49976c648b19e59cc,2021-12-15_09h57.02.920,PRaM,2021.2.3,Win32,20.00560157,61b8f3437b89212fae0dfade
6,6.374,space,4.99,0,316,316,321,1,,,5ce7046a9390750017b64ac6,61b904e49976c648b19e59cc,2021-12-15_09h57.02.920,PRaM,2021.2.3,Win32,20.00560157,61b8f3437b89212fae0dfade
1,4.23,space,2.736,0,317,317,345,1,,,5ce7046a9390750017b64ac6,61b904e49976c648b19e59cc,2021-12-15_09h57.02.920,PRaM,2021.2.3,Win32,20.00560157,61b8f3437b89212fae0dfade
7,3.108,space,1.596,0,318,318,64,1,,,5ce7046a9390750017b64ac6,61b904e49976c648b19e59cc,2021-12-15_09h57.02.920,PRaM,2021.2.3,Win32,20.00560157,61b8f3437b89212fae0dfade
2,4.703,space,3.17,0,319,319,295,1,,,5ce7046a9390750017b64ac6,61b904e49976c648b19e59cc,2021-12-15_09h57.02.920,PRaM,2021.2.3,Win32,20.00560157,61b8f3437b89212fae0dfade
5,3.308,space,1.963,0,320,320,362,1,,,5ce7046a9390750017b64ac6,61b904e49976c648b19e59cc,2021-12-15_09h57.02.920,PRaM,2021.2.3,Win32,20.00560157,61b8f3437b89212fae0dfade
6,4.761,space,3.371,0,321,321,135,1,,,5ce7046a9390750017b64ac6,61b904e49976c648b19e59cc,2021-12-15_09h57.02.920,PRaM,2021.2.3,Win32,20.00560157,61b8f3437b89212fae0dfade
3,2.631,space,1.108,0,322,322,31,1,,,5ce7046a9390750017b64ac6,61b904e49976c648b19e59cc,2021-12-15_09h57.02.920,PRaM,2021.2.3,Win32,20.00560157,61b8f3437b89212fae0dfade
1,3,space,1.158,0,323,323,353,1,,,5ce7046a9390750017b64ac6,61b904e49976c648b19e59cc,2021-12-15_09h57.02.920,PRaM,2021.2.3,Win32,20.00560157,61b8f3437b89212fae0dfade
4,2.874,space,1.596,0,324,324,290,1,,,5ce7046a9390750017b64ac6,61b904e49976c648b19e59cc,2021-12-15_09h57.02.920,PRaM,2021.2.3,Win32,20.00560157,61b8f3437b89212fae0dfade
8,4.651,space,3.227,0,325,325,207,1,,,5ce7046a9390750017b64ac6,61b904e49976c648b19e59cc,2021-12-15_09h57.02.920,PRaM,2021.2.3,Win32,20.00560157,61b8f3437b89212fae0dfade
2,3.636,space,2.251,0,326,326,2,1,,,5ce7046a9390750017b64ac6,61b904e49976c648b19e59cc,2021-12-15_09h57.02.920,PRaM,2021.2.3,Win32,20.00560157,61b8f3437b89212fae0dfade
8,4.611,space,3.102,0,327,327,197,1,,,5ce7046a9390750017b64ac6,61b904e49976c648b19e59cc,2021-12-15_09h57.02.920,PRaM,2021.2.3,Win32,20.00560157,61b8f3437b89212fae0dfade
6,3.765,space,2.408,0,328,328,145,1,,,5ce7046a9390750017b64ac6,61b904e49976c648b19e59cc,2021-12-15_09h57.02.920,PRaM,2021.2.3,Win32,20.00560157,61b8f3437b89212fae0dfade
4,11.621,space,10.11,0,329,329,284,1,,,5ce7046a9390750017b64ac6,61b904e49976c648b19e59cc,2021-12-15_09h57.02.920,PRaM,2021.2.3,Win32,20.00560157,61b8f3437b89212fae0dfade
7,3.349,space,1.971,0,330,330,44,1,,,5ce7046a9390750017b64ac6,61b904e49976c648b19e59cc,2021-12-15_09h57.02.920,PRaM,2021.2.3,Win32,20.00560157,61b8f3437b89212fae0dfade
7,2.84,space,1.487,0,331,331,168,1,,,5ce7046a9390750017b64ac6,61b904e49976c648b19e59cc,2021-12-15_09h57.02.920,PRaM,2021.2.3,Win32,20.00560157,61b8f3437b89212fae0dfade
6,4.014,space,2.43,0,332,332,142,1,,,5ce7046a9390750017b64ac6,61b904e49976c648b19e59cc,2021-12-15_09h57.02.920,PRaM,2021.2.3,Win32,20.00560157,61b8f3437b89212fae0dfade
2,6.65,space,5.268,0,333,333,231,1,,,5ce7046a9390750017b64ac6,61b904e49976c648b19e59cc,2021-12-15_09h57.02.920,PRaM,2021.2.3,Win32,20.00560157,61b8f3437b89212fae0dfade
9,3.951,space,3.184,0,334,334,192,1,,,5ce7046a9390750017b64ac6,61b904e49976c648b19e59cc,2021-12-15_09h57.02.920,PRaM,2021.2.3,Win32,20.00560157,61b8f3437b89212fae0dfade
7,2.866,space,1.481,0,335,335,127,1,,,5ce7046a9390750017b64ac6,61b904e49976c648b19e59cc,2021-12-15_09h57.02.920,PRaM,2021.2.3,Win32,20.00560157,61b8f3437b89212fae0dfade
8,3.808,space,2.402,0,336,336,317,1,,,5ce7046a9390750017b64ac6,61b904e49976c648b19e59cc,2021-12-15_09h57.02.920,PRaM,2021.2.3,Win32,20.00560157,61b8f3437b89212fae0dfade
3,4.502,space,3.098,0,337,337,369,1,,,5ce7046a9390750017b64ac6,61b904e49976c648b19e59cc,2021-12-15_09h57.02.920,PRaM,2021.2.3,Win32,20.00560157,61b8f3437b89212fae0dfade
7,3.35,space,1.657,0,338,338,252,1,,,5ce7046a9390750017b64ac6,61b904e49976c648b19e59cc,2021-12-15_09h57.02.920,PRaM,2021.2.3,Win32,20.00560157,61b8f3437b89212fae0dfade
5,2.542,space,1.14,0,339,339,356,1,,,5ce7046a9390750017b64ac6,61b904e49976c648b19e59cc,2021-12-15_09h57.02.920,PRaM,2021.2.3,Win32,20.00560157,61b8f3437b89212fae0dfade
8,3.824,space,2.408,0,340,340,76,1,,,5ce7046a9390750017b64ac6,61b904e49976c648b19e59cc,2021-12-15_09h57.02.920,PRaM,2021.2.3,Win32,20.00560157,61b8f3437b89212fae0dfade
3,3.47,space,2.082,0,341,341,265,1,,,5ce7046a9390750017b64ac6,61b904e49976c648b19e59cc,2021-12-15_09h57.02.920,PRaM,2021.2.3,Win32,20.00560157,61b8f3437b89212fae0dfade
7,2.352,space,0.945,0,342,342,334,1,,,5ce7046a9390750017b64ac6,61b904e49976c648b19e59cc,2021-12-15_09h57.02.920,PRaM,2021.2.3,Win32,20.00560157,61b8f3437b89212fae0dfade
7,4.197,space,2.694,0,343,343,357,1,,,5ce7046a9390750017b64ac6,61b904e49976c648b19e59cc,2021-12-15_09h57.02.920,PRaM,2021.2.3,Win32,20.00560157,61b8f3437b89212fae0dfade
5,4.042,space,2.392,0,344,344,233,1,,,5ce7046a9390750017b64ac6,61b904e49976c648b19e59cc,2021-12-15_09h57.02.920,PRaM,2021.2.3,Win32,20.00560157,61b8f3437b89212fae0dfade
2,2.832,space,1.583,0,345,345,15,1,,,5ce7046a9390750017b64ac6,61b904e49976c648b19e59cc,2021-12-15_09h57.02.920,PRaM,2021.2.3,Win32,20.00560157,61b8f3437b89212fae0dfade
1,3.788,space,2.407,0,346,346,251,1,,,5ce7046a9390750017b64ac6,61b904e49976c648b19e59cc,2021-12-15_09h57.02.920,PRaM,2021.2.3,Win32,20.00560157,61b8f3437b89212fae0dfade
7,3.136,space,1.612,0,347,347,165,1,,,5ce7046a9390750017b64ac6,61b904e49976c648b19e59cc,2021-12-15_09h57.02.920,PRaM,2021.2.3,Win32,20.00560157,61b8f3437b89212fae0dfade
6,3.454,space,2.084,0,348,348,324,1,,,5ce7046a9390750017b64ac6,61b904e49976c648b19e59cc,2021-12-15_09h57.02.920,PRaM,2021.2.3,Win32,20.00560157,61b8f3437b89212fae0dfade
5,2.369,space,0.957,0,349,349,311,1,,,5ce7046a9390750017b64ac6,61b904e49976c648b19e59cc,2021-12-15_09h57.02.920,PRaM,2021.2.3,Win32,20.00560157,61b8f3437b89212fae0dfade
2,2.77,space,1.265,0,350,350,245,1,,,5ce7046a9390750017b64ac6,61b904e49976c648b19e59cc,2021-12-15_09h57.02.920,PRaM,2021.2.3,Win32,20.00560157,61b8f3437b89212fae0dfade
2,2.646,space,1.262,0,351,351,316,1,,,5ce7046a9390750017b64ac6,61b904e49976c648b19e59cc,2021-12-15_09h57.02.920,PRaM,2021.2.3,Win32,20.00560157,61b8f3437b89212fae0dfade
7,3.158,space,1.299,0,352,352,154,1,,,5ce7046a9390750017b64ac6,61b904e49976c648b19e59cc,2021-12-15_09h57.02.920,PRaM,2021.2.3,Win32,20.00560157,61b8f3437b89212fae0dfade
7,2.499,space,0.938,0,353,353,256,1,,,5ce7046a9390750017b64ac6,61b904e49976c648b19e59cc,2021-12-15_09h57.02.920,PRaM,2021.2.3,Win32,20.00560157,61b8f3437b89212fae0dfade
6,3.058,space,1.566,0,354,354,204,1,,,5ce7046a9390750017b64ac6,61b904e49976c648b19e59cc,2021-12-15_09h57.02.920,PRaM,2021.2.3,Win32,20.00560157,61b8f3437b89212fae0dfade
5,2.39,space,0.96,0,355,355,377,1,,,5ce7046a9390750017b64ac6,61b904e49976c648b19e59cc,2021-12-15_09h57.02.920,PRaM,2021.2.3,Win32,20.00560157,61b8f3437b89212fae0dfade
3,3.729,space,2.209,0,356,356,283,1,,,5ce7046a9390750017b64ac6,61b904e49976c648b19e59cc,2021-12-15_09h57.02.920,PRaM,2021.2.3,Win32,20.00560157,61b8f3437b89212fae0dfade
1,5.757,space,4.074,0,357,357,9,1,,,5ce7046a9390750017b64ac6,61b904e49976c648b19e59cc,2021-12-15_09h57.02.920,PRaM,2021.2.3,Win32,20.00560157,61b8f3437b89212fae0dfade
1,2.159,space,0.794,0,358,358,39,1,,,5ce7046a9390750017b64ac6,61b904e49976c648b19e59cc,2021-12-15_09h57.02.920,PRaM,2021.2.3,Win32,20.00560157,61b8f3437b89212fae0dfade
7,3.151,space,1.761,0,359,359,60,1,,,5ce7046a9390750017b64ac6,61b904e49976c648b19e59cc,2021-12-15_09h57.02.920,PRaM,2021.2.3,Win32,20.00560157,61b8f3437b89212fae0dfade
7,2.145,space,0.638,0,360,360,96,1,,,5ce7046a9390750017b64ac6,61b904e49976c648b19e59cc,2021-12-15_09h57.02.920,PRaM,2021.2.3,Win32,20.00560157,61b8f3437b89212fae0dfade
7,2.305,space,0.794,0,361,361,14,1,,,5ce7046a9390750017b64ac6,61b904e49976c648b19e59cc,2021-12-15_09h57.02.920,PRaM,2021.2.3,Win32,20.00560157,61b8f3437b89212fae0dfade
7,2.124,space,0.64,0,362,362,196,1,,,5ce7046a9390750017b64ac6,61b904e49976c648b19e59cc,2021-12-15_09h57.02.920,PRaM,2021.2.3,Win32,20.00560157,61b8f3437b89212fae0dfade
7,2.489,space,1.133,0,363,363,181,1,,,5ce7046a9390750017b64ac6,61b904e49976c648b19e59cc,2021-12-15_09h57.02.920,PRaM,2021.2.3,Win32,20.00560157,61b8f3437b89212fae0dfade
8,5.309,space,3.941,0,364,364,301,1,,,5ce7046a9390750017b64ac6,61b904e49976c648b19e59cc,2021-12-15_09h57.02.920,PRaM,2021.2.3,Win32,20.00560157,61b8f3437b89212fae0dfade
8,2.076,space,0.625,0,365,365,320,1,,,5ce7046a9390750017b64ac6,61b904e49976c648b19e59cc,2021-12-15_09h57.02.920,PRaM,2021.2.3,Win32,20.00560157,61b8f3437b89212fae0dfade
8,3.214,space,1.729,0,366,366,7,1,,,5ce7046a9390750017b64ac6,61b904e49976c648b19e59cc,2021-12-15_09h57.02.920,PRaM,2021.2.3,Win32,20.00560157,61b8f3437b89212fae0dfade
1,3.433,space,2.063,0,367,367,107,1,,,5ce7046a9390750017b64ac6,61b904e49976c648b19e59cc,2021-12-15_09h57.02.920,PRaM,2021.2.3,Win32,20.00560157,61b8f3437b89212fae0dfade
6,3.836,space,2.447,0,368,368,57,1,,,5ce7046a9390750017b64ac6,61b904e49976c648b19e59cc,2021-12-15_09h57.02.920,PRaM,2021.2.3,Win32,20.00560157,61b8f3437b89212fae0dfade
8,4.248,space,2.861,0,369,369,117,1,,,5ce7046a9390750017b64ac6,61b904e49976c648b19e59cc,2021-12-15_09h57.02.920,PRaM,2021.2.3,Win32,20.00560157,61b8f3437b89212fae0dfade
4,4.237,space,2.709,0,370,370,156,1,,,5ce7046a9390750017b64ac6,61b904e49976c648b19e59cc,2021-12-15_09h57.02.920,PRaM,2021.2.3,Win32,20.00560157,61b8f3437b89212fae0dfade
7,3.741,space,2.193,0,371,371,74,1,,,5ce7046a9390750017b64ac6,61b904e49976c648b19e59cc,2021-12-15_09h57.02.920,PRaM,2021.2.3,Win32,20.00560157,61b8f3437b89212fae0dfade
8,2.505,space,1.095,0,372,372,282,1,,,5ce7046a9390750017b64ac6,61b904e49976c648b19e59cc,2021-12-15_09h57.02.920,PRaM,2021.2.3,Win32,20.00560157,61b8f3437b89212fae0dfade
3,3.727,space,2.229,0,373,373,161,1,,,5ce7046a9390750017b64ac6,61b904e49976c648b19e59cc,2021-12-15_09h57.02.920,PRaM,2021.2.3,Win32,20.00560157,61b8f3437b89212fae0dfade
2,2.95,space,1.265,0,374,374,202,1,,,5ce7046a9390750017b64ac6,61b904e49976c648b19e59cc,2021-12-15_09h57.02.920,PRaM,2021.2.3,Win32,20.00560157,61b8f3437b89212fae0dfade
6,3.804,space,2.263,0,375,375,62,1,,,5ce7046a9390750017b64ac6,61b904e49976c648b19e59cc,2021-12-15_09h57.02.920,PRaM,2021.2.3,Win32,20.00560157,61b8f3437b89212fae0dfade
2,3.28,space,1.615,0,376,376,133,1,,,5ce7046a9390750017b64ac6,61b904e49976c648b19e59cc,2021-12-15_09h57.02.920,PRaM,2021.2.3,Win32,20.00560157,61b8f3437b89212fae0dfade
7,3.336,space,1.929,0,377,377,105,1,,,5ce7046a9390750017b64ac6,61b904e49976c648b19e59cc,2021-12-15_09h57.02.920,PRaM,2021.2.3,Win32,20.00560157,61b8f3437b89212fae0dfade
