Rating.response,Rating.rt,EndTrial.keys,EndTrial.rt,trials.thisRepN,trials.thisTrialN,trials.thisN,trials.thisIndex,trials.ran,Pos1,Pos2,participant,session,date,expName,psychopyVersion,OS,frameRate,study_id
5,8.538,space,7.6166,0,0,0,357,1,,,5d53fd59f6d6da00011209c0,6437730b15358bdc37fc85a8,2023-04-13_12h44.18.369,PRaM,2021.2.3,Win32,57.94414185,61b8f3437b89212fae0dfade
3,5.5466,space,5.2215,0,1,1,13,1,,,5d53fd59f6d6da00011209c0,6437730b15358bdc37fc85a8,2023-04-13_12h44.18.369,PRaM,2021.2.3,Win32,57.94414185,61b8f3437b89212fae0dfade
1,2.3798,space,1.0566,0,2,2,204,1,,,5d53fd59f6d6da00011209c0,6437730b15358bdc37fc85a8,2023-04-13_12h44.18.369,PRaM,2021.2.3,Win32,57.94414185,61b8f3437b89212fae0dfade
1,3.4487,space,1.8958,0,3,3,49,1,,,5d53fd59f6d6da00011209c0,6437730b15358bdc37fc85a8,2023-04-13_12h44.18.369,PRaM,2021.2.3,Win32,57.94414185,61b8f3437b89212fae0dfade
6,6.5586,space,5.3894,0,4,4,331,1,,,5d53fd59f6d6da00011209c0,6437730b15358bdc37fc85a8,2023-04-13_12h44.18.369,PRaM,2021.2.3,Win32,57.94414185,61b8f3437b89212fae0dfade
5,4.3395,space,2.767,0,5,5,100,1,,,5d53fd59f6d6da00011209c0,6437730b15358bdc37fc85a8,2023-04-13_12h44.18.369,PRaM,2021.2.3,Win32,57.94414185,61b8f3437b89212fae0dfade
8,5.7466,space,4.9547,0,6,6,319,1,,,5d53fd59f6d6da00011209c0,6437730b15358bdc37fc85a8,2023-04-13_12h44.18.369,PRaM,2021.2.3,Win32,57.94414185,61b8f3437b89212fae0dfade
5,3.2672,space,1.8013,0,7,7,183,1,,,5d53fd59f6d6da00011209c0,6437730b15358bdc37fc85a8,2023-04-13_12h44.18.369,PRaM,2021.2.3,Win32,57.94414185,61b8f3437b89212fae0dfade
4,4.2858,space,2.8479,0,8,8,338,1,,,5d53fd59f6d6da00011209c0,6437730b15358bdc37fc85a8,2023-04-13_12h44.18.369,PRaM,2021.2.3,Win32,57.94414185,61b8f3437b89212fae0dfade
4,3.3804,space,1.886,0,9,9,309,1,,,5d53fd59f6d6da00011209c0,6437730b15358bdc37fc85a8,2023-04-13_12h44.18.369,PRaM,2021.2.3,Win32,57.94414185,61b8f3437b89212fae0dfade
2,6.7838,space,5.451,0,10,10,184,1,,,5d53fd59f6d6da00011209c0,6437730b15358bdc37fc85a8,2023-04-13_12h44.18.369,PRaM,2021.2.3,Win32,57.94414185,61b8f3437b89212fae0dfade
7,3.8978,space,2.2752,0,11,11,16,1,,,5d53fd59f6d6da00011209c0,6437730b15358bdc37fc85a8,2023-04-13_12h44.18.369,PRaM,2021.2.3,Win32,57.94414185,61b8f3437b89212fae0dfade
6,4.3852,space,3.3323,0,12,12,141,1,,,5d53fd59f6d6da00011209c0,6437730b15358bdc37fc85a8,2023-04-13_12h44.18.369,PRaM,2021.2.3,Win32,57.94414185,61b8f3437b89212fae0dfade
7,3.8318,space,2.8607,0,13,13,294,1,,,5d53fd59f6d6da00011209c0,6437730b15358bdc37fc85a8,2023-04-13_12h44.18.369,PRaM,2021.2.3,Win32,57.94414185,61b8f3437b89212fae0dfade
1,7.6721,space,6.152,0,14,14,354,1,,,5d53fd59f6d6da00011209c0,6437730b15358bdc37fc85a8,2023-04-13_12h44.18.369,PRaM,2021.2.3,Win32,57.94414185,61b8f3437b89212fae0dfade
5,4.9598,space,3.4387,0,15,15,194,1,,,5d53fd59f6d6da00011209c0,6437730b15358bdc37fc85a8,2023-04-13_12h44.18.369,PRaM,2021.2.3,Win32,57.94414185,61b8f3437b89212fae0dfade
7,5.3659,space,3.9442,0,16,16,242,1,,,5d53fd59f6d6da00011209c0,6437730b15358bdc37fc85a8,2023-04-13_12h44.18.369,PRaM,2021.2.3,Win32,57.94414185,61b8f3437b89212fae0dfade
7,4.6811,space,3.0888,0,17,17,199,1,,,5d53fd59f6d6da00011209c0,6437730b15358bdc37fc85a8,2023-04-13_12h44.18.369,PRaM,2021.2.3,Win32,57.94414185,61b8f3437b89212fae0dfade
3,4.3273,space,2.7188,0,18,18,332,1,,,5d53fd59f6d6da00011209c0,6437730b15358bdc37fc85a8,2023-04-13_12h44.18.369,PRaM,2021.2.3,Win32,57.94414185,61b8f3437b89212fae0dfade
3,5.798,space,4.223,0,19,19,353,1,,,5d53fd59f6d6da00011209c0,6437730b15358bdc37fc85a8,2023-04-13_12h44.18.369,PRaM,2021.2.3,Win32,57.94414185,61b8f3437b89212fae0dfade
6,4.6897,space,3.4387,0,20,20,96,1,,,5d53fd59f6d6da00011209c0,6437730b15358bdc37fc85a8,2023-04-13_12h44.18.369,PRaM,2021.2.3,Win32,57.94414185,61b8f3437b89212fae0dfade
6,2.454,space,0.8561,0,21,21,47,1,,,5d53fd59f6d6da00011209c0,6437730b15358bdc37fc85a8,2023-04-13_12h44.18.369,PRaM,2021.2.3,Win32,57.94414185,61b8f3437b89212fae0dfade
4,6.5839,space,5.0248,0,22,22,153,1,,,5d53fd59f6d6da00011209c0,6437730b15358bdc37fc85a8,2023-04-13_12h44.18.369,PRaM,2021.2.3,Win32,57.94414185,61b8f3437b89212fae0dfade
6,5.5116,space,4.2961,0,23,23,296,1,,,5d53fd59f6d6da00011209c0,6437730b15358bdc37fc85a8,2023-04-13_12h44.18.369,PRaM,2021.2.3,Win32,57.94414185,61b8f3437b89212fae0dfade
7,6.0306,space,4.4442,0,24,24,105,1,,,5d53fd59f6d6da00011209c0,6437730b15358bdc37fc85a8,2023-04-13_12h44.18.369,PRaM,2021.2.3,Win32,57.94414185,61b8f3437b89212fae0dfade
6,5.4158,space,4.028,0,25,25,142,1,,,5d53fd59f6d6da00011209c0,6437730b15358bdc37fc85a8,2023-04-13_12h44.18.369,PRaM,2021.2.3,Win32,57.94414185,61b8f3437b89212fae0dfade
7,5.3655,space,4.5827,0,26,26,213,1,,,5d53fd59f6d6da00011209c0,6437730b15358bdc37fc85a8,2023-04-13_12h44.18.369,PRaM,2021.2.3,Win32,57.94414185,61b8f3437b89212fae0dfade
1,3.1718,space,2.7637,0,27,27,210,1,,,5d53fd59f6d6da00011209c0,6437730b15358bdc37fc85a8,2023-04-13_12h44.18.369,PRaM,2021.2.3,Win32,57.94414185,61b8f3437b89212fae0dfade
9,4.7391,space,3.4882,0,28,28,320,1,,,5d53fd59f6d6da00011209c0,6437730b15358bdc37fc85a8,2023-04-13_12h44.18.369,PRaM,2021.2.3,Win32,57.94414185,61b8f3437b89212fae0dfade
4,3.5353,space,1.9161,0,29,29,181,1,,,5d53fd59f6d6da00011209c0,6437730b15358bdc37fc85a8,2023-04-13_12h44.18.369,PRaM,2021.2.3,Win32,57.94414185,61b8f3437b89212fae0dfade
1,3.6332,space,1.9797,0,30,30,343,1,,,5d53fd59f6d6da00011209c0,6437730b15358bdc37fc85a8,2023-04-13_12h44.18.369,PRaM,2021.2.3,Win32,57.94414185,61b8f3437b89212fae0dfade
6,5.1948,space,4.858,0,31,31,19,1,,,5d53fd59f6d6da00011209c0,6437730b15358bdc37fc85a8,2023-04-13_12h44.18.369,PRaM,2021.2.3,Win32,57.94414185,61b8f3437b89212fae0dfade
7,12.613,space,11.2669,0,32,32,221,1,,,5d53fd59f6d6da00011209c0,6437730b15358bdc37fc85a8,2023-04-13_12h44.18.369,PRaM,2021.2.3,Win32,57.94414185,61b8f3437b89212fae0dfade
1,4.0802,space,2.9778,0,33,33,68,1,,,5d53fd59f6d6da00011209c0,6437730b15358bdc37fc85a8,2023-04-13_12h44.18.369,PRaM,2021.2.3,Win32,57.94414185,61b8f3437b89212fae0dfade
1,6.6871,space,5.6024,0,34,34,290,1,,,5d53fd59f6d6da00011209c0,6437730b15358bdc37fc85a8,2023-04-13_12h44.18.369,PRaM,2021.2.3,Win32,57.94414185,61b8f3437b89212fae0dfade
1,3.8957,space,2.4703,0,35,35,214,1,,,5d53fd59f6d6da00011209c0,6437730b15358bdc37fc85a8,2023-04-13_12h44.18.369,PRaM,2021.2.3,Win32,57.94414185,61b8f3437b89212fae0dfade
7,5.1406,space,3.5998,0,36,36,14,1,,,5d53fd59f6d6da00011209c0,6437730b15358bdc37fc85a8,2023-04-13_12h44.18.369,PRaM,2021.2.3,Win32,57.94414185,61b8f3437b89212fae0dfade
6,3.7025,space,2.3214,0,37,37,285,1,,,5d53fd59f6d6da00011209c0,6437730b15358bdc37fc85a8,2023-04-13_12h44.18.369,PRaM,2021.2.3,Win32,57.94414185,61b8f3437b89212fae0dfade
8,11.5272,space,10.3281,0,38,38,228,1,,,5d53fd59f6d6da00011209c0,6437730b15358bdc37fc85a8,2023-04-13_12h44.18.369,PRaM,2021.2.3,Win32,57.94414185,61b8f3437b89212fae0dfade
6,3.17,space,1.93,0,39,39,102,1,,,5d53fd59f6d6da00011209c0,6437730b15358bdc37fc85a8,2023-04-13_12h44.18.369,PRaM,2021.2.3,Win32,57.94414185,61b8f3437b89212fae0dfade
7,2.9462,space,2.1153,0,40,40,348,1,,,5d53fd59f6d6da00011209c0,6437730b15358bdc37fc85a8,2023-04-13_12h44.18.369,PRaM,2021.2.3,Win32,57.94414185,61b8f3437b89212fae0dfade
5,3.0944,space,1.9659,0,41,41,135,1,,,5d53fd59f6d6da00011209c0,6437730b15358bdc37fc85a8,2023-04-13_12h44.18.369,PRaM,2021.2.3,Win32,57.94414185,61b8f3437b89212fae0dfade
2,4.8807,space,3.8756,0,42,42,224,1,,,5d53fd59f6d6da00011209c0,6437730b15358bdc37fc85a8,2023-04-13_12h44.18.369,PRaM,2021.2.3,Win32,57.94414185,61b8f3437b89212fae0dfade
1,3.0866,space,1.4685,0,43,43,106,1,,,5d53fd59f6d6da00011209c0,6437730b15358bdc37fc85a8,2023-04-13_12h44.18.369,PRaM,2021.2.3,Win32,57.94414185,61b8f3437b89212fae0dfade
4,3.886,space,2.4303,0,44,44,25,1,,,5d53fd59f6d6da00011209c0,6437730b15358bdc37fc85a8,2023-04-13_12h44.18.369,PRaM,2021.2.3,Win32,57.94414185,61b8f3437b89212fae0dfade
5,3.6261,space,2.033,0,45,45,158,1,,,5d53fd59f6d6da00011209c0,6437730b15358bdc37fc85a8,2023-04-13_12h44.18.369,PRaM,2021.2.3,Win32,57.94414185,61b8f3437b89212fae0dfade
3,6.8266,space,5.1865,0,46,46,215,1,,,5d53fd59f6d6da00011209c0,6437730b15358bdc37fc85a8,2023-04-13_12h44.18.369,PRaM,2021.2.3,Win32,57.94414185,61b8f3437b89212fae0dfade
1,3.0488,space,1.5048,0,47,47,275,1,,,5d53fd59f6d6da00011209c0,6437730b15358bdc37fc85a8,2023-04-13_12h44.18.369,PRaM,2021.2.3,Win32,57.94414185,61b8f3437b89212fae0dfade
2,8.2574,space,8.691,0,48,48,1,1,,,5d53fd59f6d6da00011209c0,6437730b15358bdc37fc85a8,2023-04-13_12h44.18.369,PRaM,2021.2.3,Win32,57.94414185,61b8f3437b89212fae0dfade
7,3.4125,space,1.8664,0,49,49,301,1,,,5d53fd59f6d6da00011209c0,6437730b15358bdc37fc85a8,2023-04-13_12h44.18.369,PRaM,2021.2.3,Win32,57.94414185,61b8f3437b89212fae0dfade
1,5.0395,space,3.7899,0,50,50,284,1,,,5d53fd59f6d6da00011209c0,6437730b15358bdc37fc85a8,2023-04-13_12h44.18.369,PRaM,2021.2.3,Win32,57.94414185,61b8f3437b89212fae0dfade
6,6.0934,space,5.4434,0,51,51,88,1,,,5d53fd59f6d6da00011209c0,6437730b15358bdc37fc85a8,2023-04-13_12h44.18.369,PRaM,2021.2.3,Win32,57.94414185,61b8f3437b89212fae0dfade
1,3.2008,space,2.0632,0,52,52,220,1,,,5d53fd59f6d6da00011209c0,6437730b15358bdc37fc85a8,2023-04-13_12h44.18.369,PRaM,2021.2.3,Win32,57.94414185,61b8f3437b89212fae0dfade
3,10.7309,space,9.1981,0,53,53,28,1,,,5d53fd59f6d6da00011209c0,6437730b15358bdc37fc85a8,2023-04-13_12h44.18.369,PRaM,2021.2.3,Win32,57.94414185,61b8f3437b89212fae0dfade
3,5.0621,space,3.4064,0,54,54,170,1,,,5d53fd59f6d6da00011209c0,6437730b15358bdc37fc85a8,2023-04-13_12h44.18.369,PRaM,2021.2.3,Win32,57.94414185,61b8f3437b89212fae0dfade
1,3.644,space,2.0488,0,55,55,50,1,,,5d53fd59f6d6da00011209c0,6437730b15358bdc37fc85a8,2023-04-13_12h44.18.369,PRaM,2021.2.3,Win32,57.94414185,61b8f3437b89212fae0dfade
2,4.4716,space,3.735,0,56,56,34,1,,,5d53fd59f6d6da00011209c0,6437730b15358bdc37fc85a8,2023-04-13_12h44.18.369,PRaM,2021.2.3,Win32,57.94414185,61b8f3437b89212fae0dfade
6,8.3279,space,7.6632,0,57,57,246,1,,,5d53fd59f6d6da00011209c0,6437730b15358bdc37fc85a8,2023-04-13_12h44.18.369,PRaM,2021.2.3,Win32,57.94414185,61b8f3437b89212fae0dfade
5,5.031,space,3.6519,0,58,58,314,1,,,5d53fd59f6d6da00011209c0,6437730b15358bdc37fc85a8,2023-04-13_12h44.18.369,PRaM,2021.2.3,Win32,57.94414185,61b8f3437b89212fae0dfade
1,2.8468,space,1.2597,0,59,59,318,1,,,5d53fd59f6d6da00011209c0,6437730b15358bdc37fc85a8,2023-04-13_12h44.18.369,PRaM,2021.2.3,Win32,57.94414185,61b8f3437b89212fae0dfade
1,2.9071,space,1.3137,0,60,60,247,1,,,5d53fd59f6d6da00011209c0,6437730b15358bdc37fc85a8,2023-04-13_12h44.18.369,PRaM,2021.2.3,Win32,57.94414185,61b8f3437b89212fae0dfade
1,4.435,space,2.6935,0,61,61,250,1,,,5d53fd59f6d6da00011209c0,6437730b15358bdc37fc85a8,2023-04-13_12h44.18.369,PRaM,2021.2.3,Win32,57.94414185,61b8f3437b89212fae0dfade
2,4.1154,space,3.4076,0,62,62,171,1,,,5d53fd59f6d6da00011209c0,6437730b15358bdc37fc85a8,2023-04-13_12h44.18.369,PRaM,2021.2.3,Win32,57.94414185,61b8f3437b89212fae0dfade
4,4.2395,space,3.0954,0,63,63,126,1,,,5d53fd59f6d6da00011209c0,6437730b15358bdc37fc85a8,2023-04-13_12h44.18.369,PRaM,2021.2.3,Win32,57.94414185,61b8f3437b89212fae0dfade
6,4.3325,space,2.7692,0,64,64,159,1,,,5d53fd59f6d6da00011209c0,6437730b15358bdc37fc85a8,2023-04-13_12h44.18.369,PRaM,2021.2.3,Win32,57.94414185,61b8f3437b89212fae0dfade
7,5.4907,space,4.2235,0,65,65,192,1,,,5d53fd59f6d6da00011209c0,6437730b15358bdc37fc85a8,2023-04-13_12h44.18.369,PRaM,2021.2.3,Win32,57.94414185,61b8f3437b89212fae0dfade
4,5.5996,space,4.0583,0,66,66,374,1,,,5d53fd59f6d6da00011209c0,6437730b15358bdc37fc85a8,2023-04-13_12h44.18.369,PRaM,2021.2.3,Win32,57.94414185,61b8f3437b89212fae0dfade
6,3.3631,space,11.9285,0,67,67,249,1,,,5d53fd59f6d6da00011209c0,6437730b15358bdc37fc85a8,2023-04-13_12h44.18.369,PRaM,2021.2.3,Win32,57.94414185,61b8f3437b89212fae0dfade
3,9.628,space,8.1337,0,68,68,95,1,,,5d53fd59f6d6da00011209c0,6437730b15358bdc37fc85a8,2023-04-13_12h44.18.369,PRaM,2021.2.3,Win32,57.94414185,61b8f3437b89212fae0dfade
5,12.7325,space,13.038,0,69,69,311,1,,,5d53fd59f6d6da00011209c0,6437730b15358bdc37fc85a8,2023-04-13_12h44.18.369,PRaM,2021.2.3,Win32,57.94414185,61b8f3437b89212fae0dfade
9,4.88,space,3.5572,0,70,70,276,1,,,5d53fd59f6d6da00011209c0,6437730b15358bdc37fc85a8,2023-04-13_12h44.18.369,PRaM,2021.2.3,Win32,57.94414185,61b8f3437b89212fae0dfade
1,5.6408,space,4.1183,0,71,71,87,1,,,5d53fd59f6d6da00011209c0,6437730b15358bdc37fc85a8,2023-04-13_12h44.18.369,PRaM,2021.2.3,Win32,57.94414185,61b8f3437b89212fae0dfade
6,13.5697,space,11.9913,0,72,72,305,1,,,5d53fd59f6d6da00011209c0,6437730b15358bdc37fc85a8,2023-04-13_12h44.18.369,PRaM,2021.2.3,Win32,57.94414185,61b8f3437b89212fae0dfade
1,3.1957,space,1.9061,0,73,73,289,1,,,5d53fd59f6d6da00011209c0,6437730b15358bdc37fc85a8,2023-04-13_12h44.18.369,PRaM,2021.2.3,Win32,57.94414185,61b8f3437b89212fae0dfade
4,9.0751,space,7.5055,0,74,74,262,1,,,5d53fd59f6d6da00011209c0,6437730b15358bdc37fc85a8,2023-04-13_12h44.18.369,PRaM,2021.2.3,Win32,57.94414185,61b8f3437b89212fae0dfade
5,3.1618,space,1.5957,0,75,75,175,1,,,5d53fd59f6d6da00011209c0,6437730b15358bdc37fc85a8,2023-04-13_12h44.18.369,PRaM,2021.2.3,Win32,57.94414185,61b8f3437b89212fae0dfade
3,3.4365,space,1.8609,0,76,76,375,1,,,5d53fd59f6d6da00011209c0,6437730b15358bdc37fc85a8,2023-04-13_12h44.18.369,PRaM,2021.2.3,Win32,57.94414185,61b8f3437b89212fae0dfade
4,3.8844,space,2.3957,0,77,77,18,1,,,5d53fd59f6d6da00011209c0,6437730b15358bdc37fc85a8,2023-04-13_12h44.18.369,PRaM,2021.2.3,Win32,57.94414185,61b8f3437b89212fae0dfade
4,5.1753,space,3.9272,0,78,78,339,1,,,5d53fd59f6d6da00011209c0,6437730b15358bdc37fc85a8,2023-04-13_12h44.18.369,PRaM,2021.2.3,Win32,57.94414185,61b8f3437b89212fae0dfade
5,5.8856,space,4.3752,0,79,79,71,1,,,5d53fd59f6d6da00011209c0,6437730b15358bdc37fc85a8,2023-04-13_12h44.18.369,PRaM,2021.2.3,Win32,57.94414185,61b8f3437b89212fae0dfade
5,2.637,space,1.7994,0,80,80,138,1,,,5d53fd59f6d6da00011209c0,6437730b15358bdc37fc85a8,2023-04-13_12h44.18.369,PRaM,2021.2.3,Win32,57.94414185,61b8f3437b89212fae0dfade
1,27.2911,space,25.6332,0,81,81,315,1,,,5d53fd59f6d6da00011209c0,6437730b15358bdc37fc85a8,2023-04-13_12h44.18.369,PRaM,2021.2.3,Win32,57.94414185,61b8f3437b89212fae0dfade
1,3.9054,space,2.27,0,82,82,193,1,,,5d53fd59f6d6da00011209c0,6437730b15358bdc37fc85a8,2023-04-13_12h44.18.369,PRaM,2021.2.3,Win32,57.94414185,61b8f3437b89212fae0dfade
3,20.385,space,19.3553,0,83,83,129,1,,,5d53fd59f6d6da00011209c0,6437730b15358bdc37fc85a8,2023-04-13_12h44.18.369,PRaM,2021.2.3,Win32,57.94414185,61b8f3437b89212fae0dfade
1,8.5092,space,7.5911,0,84,84,234,1,,,5d53fd59f6d6da00011209c0,6437730b15358bdc37fc85a8,2023-04-13_12h44.18.369,PRaM,2021.2.3,Win32,57.94414185,61b8f3437b89212fae0dfade
1,4.8275,space,3.3203,0,85,85,89,1,,,5d53fd59f6d6da00011209c0,6437730b15358bdc37fc85a8,2023-04-13_12h44.18.369,PRaM,2021.2.3,Win32,57.94414185,61b8f3437b89212fae0dfade
6,3.805,space,2.4966,0,86,86,154,1,,,5d53fd59f6d6da00011209c0,6437730b15358bdc37fc85a8,2023-04-13_12h44.18.369,PRaM,2021.2.3,Win32,57.94414185,61b8f3437b89212fae0dfade
7,21.5019,space,19.8853,0,87,87,60,1,,,5d53fd59f6d6da00011209c0,6437730b15358bdc37fc85a8,2023-04-13_12h44.18.369,PRaM,2021.2.3,Win32,57.94414185,61b8f3437b89212fae0dfade
7,2.7993,space,1.1529,0,88,88,32,1,,,5d53fd59f6d6da00011209c0,6437730b15358bdc37fc85a8,2023-04-13_12h44.18.369,PRaM,2021.2.3,Win32,57.94414185,61b8f3437b89212fae0dfade
4,4.8924,space,3.3336,0,89,89,160,1,,,5d53fd59f6d6da00011209c0,6437730b15358bdc37fc85a8,2023-04-13_12h44.18.369,PRaM,2021.2.3,Win32,57.94414185,61b8f3437b89212fae0dfade
1,15.425,space,13.9442,0,90,90,78,1,,,5d53fd59f6d6da00011209c0,6437730b15358bdc37fc85a8,2023-04-13_12h44.18.369,PRaM,2021.2.3,Win32,57.94414185,61b8f3437b89212fae0dfade
4,3.6434,space,2.0883,0,91,91,140,1,,,5d53fd59f6d6da00011209c0,6437730b15358bdc37fc85a8,2023-04-13_12h44.18.369,PRaM,2021.2.3,Win32,57.94414185,61b8f3437b89212fae0dfade
7,4.446,space,2.91,0,92,92,267,1,,,5d53fd59f6d6da00011209c0,6437730b15358bdc37fc85a8,2023-04-13_12h44.18.369,PRaM,2021.2.3,Win32,57.94414185,61b8f3437b89212fae0dfade
3,4.2194,space,2.7052,0,93,93,361,1,,,5d53fd59f6d6da00011209c0,6437730b15358bdc37fc85a8,2023-04-13_12h44.18.369,PRaM,2021.2.3,Win32,57.94414185,61b8f3437b89212fae0dfade
5,3.6922,space,2.3759,0,94,94,358,1,,,5d53fd59f6d6da00011209c0,6437730b15358bdc37fc85a8,2023-04-13_12h44.18.369,PRaM,2021.2.3,Win32,57.94414185,61b8f3437b89212fae0dfade
3,5.8012,space,4.2436,0,95,95,329,1,,,5d53fd59f6d6da00011209c0,6437730b15358bdc37fc85a8,2023-04-13_12h44.18.369,PRaM,2021.2.3,Win32,57.94414185,61b8f3437b89212fae0dfade
2,4.0873,space,2.86,0,96,96,26,1,,,5d53fd59f6d6da00011209c0,6437730b15358bdc37fc85a8,2023-04-13_12h44.18.369,PRaM,2021.2.3,Win32,57.94414185,61b8f3437b89212fae0dfade
9,6.8536,space,5.3366,0,97,97,7,1,,,5d53fd59f6d6da00011209c0,6437730b15358bdc37fc85a8,2023-04-13_12h44.18.369,PRaM,2021.2.3,Win32,57.94414185,61b8f3437b89212fae0dfade
7,5.9743,space,4.4388,0,98,98,278,1,,,5d53fd59f6d6da00011209c0,6437730b15358bdc37fc85a8,2023-04-13_12h44.18.369,PRaM,2021.2.3,Win32,57.94414185,61b8f3437b89212fae0dfade
2,6.1731,space,5.0201,0,99,99,5,1,,,5d53fd59f6d6da00011209c0,6437730b15358bdc37fc85a8,2023-04-13_12h44.18.369,PRaM,2021.2.3,Win32,57.94414185,61b8f3437b89212fae0dfade
6,3.7109,space,2.2317,0,100,100,260,1,,,5d53fd59f6d6da00011209c0,6437730b15358bdc37fc85a8,2023-04-13_12h44.18.369,PRaM,2021.2.3,Win32,57.94414185,61b8f3437b89212fae0dfade
3,4.2715,space,3.2821,0,101,101,185,1,,,5d53fd59f6d6da00011209c0,6437730b15358bdc37fc85a8,2023-04-13_12h44.18.369,PRaM,2021.2.3,Win32,57.94414185,61b8f3437b89212fae0dfade
9,3.7291,space,2.1813,0,102,102,207,1,,,5d53fd59f6d6da00011209c0,6437730b15358bdc37fc85a8,2023-04-13_12h44.18.369,PRaM,2021.2.3,Win32,57.94414185,61b8f3437b89212fae0dfade
5,2.7877,space,1.127,0,103,103,356,1,,,5d53fd59f6d6da00011209c0,6437730b15358bdc37fc85a8,2023-04-13_12h44.18.369,PRaM,2021.2.3,Win32,57.94414185,61b8f3437b89212fae0dfade
3,4.5785,space,3.029,0,104,104,31,1,,,5d53fd59f6d6da00011209c0,6437730b15358bdc37fc85a8,2023-04-13_12h44.18.369,PRaM,2021.2.3,Win32,57.94414185,61b8f3437b89212fae0dfade
9,2.1676,space,0.6025,0,105,105,42,1,,,5d53fd59f6d6da00011209c0,6437730b15358bdc37fc85a8,2023-04-13_12h44.18.369,PRaM,2021.2.3,Win32,57.94414185,61b8f3437b89212fae0dfade
6,7.2263,space,5.9719,0,106,106,29,1,,,5d53fd59f6d6da00011209c0,6437730b15358bdc37fc85a8,2023-04-13_12h44.18.369,PRaM,2021.2.3,Win32,57.94414185,61b8f3437b89212fae0dfade
7,11.9781,space,10.4225,0,107,107,328,1,,,5d53fd59f6d6da00011209c0,6437730b15358bdc37fc85a8,2023-04-13_12h44.18.369,PRaM,2021.2.3,Win32,57.94414185,61b8f3437b89212fae0dfade
1,4.5438,space,4.2472,0,108,108,190,1,,,5d53fd59f6d6da00011209c0,6437730b15358bdc37fc85a8,2023-04-13_12h44.18.369,PRaM,2021.2.3,Win32,57.94414185,61b8f3437b89212fae0dfade
6,3.188,space,1.7774,0,109,109,56,1,,,5d53fd59f6d6da00011209c0,6437730b15358bdc37fc85a8,2023-04-13_12h44.18.369,PRaM,2021.2.3,Win32,57.94414185,61b8f3437b89212fae0dfade
3,3.8622,space,2.3586,0,110,110,101,1,,,5d53fd59f6d6da00011209c0,6437730b15358bdc37fc85a8,2023-04-13_12h44.18.369,PRaM,2021.2.3,Win32,57.94414185,61b8f3437b89212fae0dfade
5,6.6912,space,5.3017,0,111,111,308,1,,,5d53fd59f6d6da00011209c0,6437730b15358bdc37fc85a8,2023-04-13_12h44.18.369,PRaM,2021.2.3,Win32,57.94414185,61b8f3437b89212fae0dfade
3,6.1826,space,5.4614,0,112,112,15,1,,,5d53fd59f6d6da00011209c0,6437730b15358bdc37fc85a8,2023-04-13_12h44.18.369,PRaM,2021.2.3,Win32,57.94414185,61b8f3437b89212fae0dfade
1,8.5062,space,7.0945,0,113,113,44,1,,,5d53fd59f6d6da00011209c0,6437730b15358bdc37fc85a8,2023-04-13_12h44.18.369,PRaM,2021.2.3,Win32,57.94414185,61b8f3437b89212fae0dfade
3,10.4638,space,9.1081,0,114,114,347,1,,,5d53fd59f6d6da00011209c0,6437730b15358bdc37fc85a8,2023-04-13_12h44.18.369,PRaM,2021.2.3,Win32,57.94414185,61b8f3437b89212fae0dfade
3,5.5474,space,3.9284,0,115,115,303,1,,,5d53fd59f6d6da00011209c0,6437730b15358bdc37fc85a8,2023-04-13_12h44.18.369,PRaM,2021.2.3,Win32,57.94414185,61b8f3437b89212fae0dfade
6,3.4877,space,2.0567,0,116,116,69,1,,,5d53fd59f6d6da00011209c0,6437730b15358bdc37fc85a8,2023-04-13_12h44.18.369,PRaM,2021.2.3,Win32,57.94414185,61b8f3437b89212fae0dfade
6,2.832,space,1.6268,0,117,117,136,1,,,5d53fd59f6d6da00011209c0,6437730b15358bdc37fc85a8,2023-04-13_12h44.18.369,PRaM,2021.2.3,Win32,57.94414185,61b8f3437b89212fae0dfade
1,10.411,space,9.1345,0,118,118,295,1,,,5d53fd59f6d6da00011209c0,6437730b15358bdc37fc85a8,2023-04-13_12h44.18.369,PRaM,2021.2.3,Win32,57.94414185,61b8f3437b89212fae0dfade
1,7.9043,space,6.4889,0,119,119,23,1,,,5d53fd59f6d6da00011209c0,6437730b15358bdc37fc85a8,2023-04-13_12h44.18.369,PRaM,2021.2.3,Win32,57.94414185,61b8f3437b89212fae0dfade
6,10.8456,space,9.9744,0,120,120,186,1,,,5d53fd59f6d6da00011209c0,6437730b15358bdc37fc85a8,2023-04-13_12h44.18.369,PRaM,2021.2.3,Win32,57.94414185,61b8f3437b89212fae0dfade
2,8.2928,space,7.5097,0,121,121,123,1,,,5d53fd59f6d6da00011209c0,6437730b15358bdc37fc85a8,2023-04-13_12h44.18.369,PRaM,2021.2.3,Win32,57.94414185,61b8f3437b89212fae0dfade
1,3.916,space,3.1312,0,122,122,292,1,,,5d53fd59f6d6da00011209c0,6437730b15358bdc37fc85a8,2023-04-13_12h44.18.369,PRaM,2021.2.3,Win32,57.94414185,61b8f3437b89212fae0dfade
3,6.9221,space,5.4217,0,123,123,256,1,,,5d53fd59f6d6da00011209c0,6437730b15358bdc37fc85a8,2023-04-13_12h44.18.369,PRaM,2021.2.3,Win32,57.94414185,61b8f3437b89212fae0dfade
7,16.5128,space,15.1591,0,124,124,288,1,,,5d53fd59f6d6da00011209c0,6437730b15358bdc37fc85a8,2023-04-13_12h44.18.369,PRaM,2021.2.3,Win32,57.94414185,61b8f3437b89212fae0dfade
6,8.3563,space,7.6704,0,125,125,200,1,,,5d53fd59f6d6da00011209c0,6437730b15358bdc37fc85a8,2023-04-13_12h44.18.369,PRaM,2021.2.3,Win32,57.94414185,61b8f3437b89212fae0dfade
1,3.225,space,2.13,0,126,126,268,1,,,5d53fd59f6d6da00011209c0,6437730b15358bdc37fc85a8,2023-04-13_12h44.18.369,PRaM,2021.2.3,Win32,57.94414185,61b8f3437b89212fae0dfade
5,6.6728,space,5.2707,0,127,127,33,1,,,5d53fd59f6d6da00011209c0,6437730b15358bdc37fc85a8,2023-04-13_12h44.18.369,PRaM,2021.2.3,Win32,57.94414185,61b8f3437b89212fae0dfade
1,2.6936,space,1.1114,0,128,128,316,1,,,5d53fd59f6d6da00011209c0,6437730b15358bdc37fc85a8,2023-04-13_12h44.18.369,PRaM,2021.2.3,Win32,57.94414185,61b8f3437b89212fae0dfade
7,4.0429,space,3.3428,0,129,129,313,1,,,5d53fd59f6d6da00011209c0,6437730b15358bdc37fc85a8,2023-04-13_12h44.18.369,PRaM,2021.2.3,Win32,57.94414185,61b8f3437b89212fae0dfade
2,4.0595,space,2.7935,0,130,130,130,1,,,5d53fd59f6d6da00011209c0,6437730b15358bdc37fc85a8,2023-04-13_12h44.18.369,PRaM,2021.2.3,Win32,57.94414185,61b8f3437b89212fae0dfade
4,4.9963,space,4.0324,0,131,131,198,1,,,5d53fd59f6d6da00011209c0,6437730b15358bdc37fc85a8,2023-04-13_12h44.18.369,PRaM,2021.2.3,Win32,57.94414185,61b8f3437b89212fae0dfade
1,3.0975,space,1.5892,0,132,132,10,1,,,5d53fd59f6d6da00011209c0,6437730b15358bdc37fc85a8,2023-04-13_12h44.18.369,PRaM,2021.2.3,Win32,57.94414185,61b8f3437b89212fae0dfade
2,5.3458,space,3.8692,0,133,133,293,1,,,5d53fd59f6d6da00011209c0,6437730b15358bdc37fc85a8,2023-04-13_12h44.18.369,PRaM,2021.2.3,Win32,57.94414185,61b8f3437b89212fae0dfade
3,8.3385,space,6.9606,0,134,134,139,1,,,5d53fd59f6d6da00011209c0,6437730b15358bdc37fc85a8,2023-04-13_12h44.18.369,PRaM,2021.2.3,Win32,57.94414185,61b8f3437b89212fae0dfade
5,9.1661,space,7.902,0,135,135,274,1,,,5d53fd59f6d6da00011209c0,6437730b15358bdc37fc85a8,2023-04-13_12h44.18.369,PRaM,2021.2.3,Win32,57.94414185,61b8f3437b89212fae0dfade
2,10.6309,space,9.5044,0,136,136,324,1,,,5d53fd59f6d6da00011209c0,6437730b15358bdc37fc85a8,2023-04-13_12h44.18.369,PRaM,2021.2.3,Win32,57.94414185,61b8f3437b89212fae0dfade
4,6.0828,space,4.6424,0,137,137,298,1,,,5d53fd59f6d6da00011209c0,6437730b15358bdc37fc85a8,2023-04-13_12h44.18.369,PRaM,2021.2.3,Win32,57.94414185,61b8f3437b89212fae0dfade
2,4.5487,space,2.9162,0,138,138,273,1,,,5d53fd59f6d6da00011209c0,6437730b15358bdc37fc85a8,2023-04-13_12h44.18.369,PRaM,2021.2.3,Win32,57.94414185,61b8f3437b89212fae0dfade
8,4.0843,space,3.3188,0,139,139,168,1,,,5d53fd59f6d6da00011209c0,6437730b15358bdc37fc85a8,2023-04-13_12h44.18.369,PRaM,2021.2.3,Win32,57.94414185,61b8f3437b89212fae0dfade
2,8.2697,space,7.2557,0,140,140,287,1,,,5d53fd59f6d6da00011209c0,6437730b15358bdc37fc85a8,2023-04-13_12h44.18.369,PRaM,2021.2.3,Win32,57.94414185,61b8f3437b89212fae0dfade
5,6.0035,space,4.571,0,141,141,124,1,,,5d53fd59f6d6da00011209c0,6437730b15358bdc37fc85a8,2023-04-13_12h44.18.369,PRaM,2021.2.3,Win32,57.94414185,61b8f3437b89212fae0dfade
4,5.6581,space,4.3442,0,142,142,342,1,,,5d53fd59f6d6da00011209c0,6437730b15358bdc37fc85a8,2023-04-13_12h44.18.369,PRaM,2021.2.3,Win32,57.94414185,61b8f3437b89212fae0dfade
2,2.8861,space,1.3539,0,143,143,299,1,,,5d53fd59f6d6da00011209c0,6437730b15358bdc37fc85a8,2023-04-13_12h44.18.369,PRaM,2021.2.3,Win32,57.94414185,61b8f3437b89212fae0dfade
2,6.6702,space,5.1072,0,144,144,81,1,,,5d53fd59f6d6da00011209c0,6437730b15358bdc37fc85a8,2023-04-13_12h44.18.369,PRaM,2021.2.3,Win32,57.94414185,61b8f3437b89212fae0dfade
3,6.4231,space,5.2685,0,145,145,93,1,,,5d53fd59f6d6da00011209c0,6437730b15358bdc37fc85a8,2023-04-13_12h44.18.369,PRaM,2021.2.3,Win32,57.94414185,61b8f3437b89212fae0dfade
6,4.3635,space,3.6561,0,146,146,66,1,,,5d53fd59f6d6da00011209c0,6437730b15358bdc37fc85a8,2023-04-13_12h44.18.369,PRaM,2021.2.3,Win32,57.94414185,61b8f3437b89212fae0dfade
1,3.3692,space,2.2694,0,147,147,27,1,,,5d53fd59f6d6da00011209c0,6437730b15358bdc37fc85a8,2023-04-13_12h44.18.369,PRaM,2021.2.3,Win32,57.94414185,61b8f3437b89212fae0dfade
7,5.412,space,5.2244,0,148,148,302,1,,,5d53fd59f6d6da00011209c0,6437730b15358bdc37fc85a8,2023-04-13_12h44.18.369,PRaM,2021.2.3,Win32,57.94414185,61b8f3437b89212fae0dfade
3,3.8754,space,2.8498,0,149,149,373,1,,,5d53fd59f6d6da00011209c0,6437730b15358bdc37fc85a8,2023-04-13_12h44.18.369,PRaM,2021.2.3,Win32,57.94414185,61b8f3437b89212fae0dfade
3,8.0837,space,6.9504,0,150,150,62,1,,,5d53fd59f6d6da00011209c0,6437730b15358bdc37fc85a8,2023-04-13_12h44.18.369,PRaM,2021.2.3,Win32,57.94414185,61b8f3437b89212fae0dfade
4,3.6698,space,2.3541,0,151,151,146,1,,,5d53fd59f6d6da00011209c0,6437730b15358bdc37fc85a8,2023-04-13_12h44.18.369,PRaM,2021.2.3,Win32,57.94414185,61b8f3437b89212fae0dfade
5,7.6066,space,6.1046,0,152,152,120,1,,,5d53fd59f6d6da00011209c0,6437730b15358bdc37fc85a8,2023-04-13_12h44.18.369,PRaM,2021.2.3,Win32,57.94414185,61b8f3437b89212fae0dfade
4,7.7657,space,6.3367,0,153,153,340,1,,,5d53fd59f6d6da00011209c0,6437730b15358bdc37fc85a8,2023-04-13_12h44.18.369,PRaM,2021.2.3,Win32,57.94414185,61b8f3437b89212fae0dfade
2,4.2185,space,2.6769,0,154,154,157,1,,,5d53fd59f6d6da00011209c0,6437730b15358bdc37fc85a8,2023-04-13_12h44.18.369,PRaM,2021.2.3,Win32,57.94414185,61b8f3437b89212fae0dfade
1,12.6458,space,11.381,0,155,155,9,1,,,5d53fd59f6d6da00011209c0,6437730b15358bdc37fc85a8,2023-04-13_12h44.18.369,PRaM,2021.2.3,Win32,57.94414185,61b8f3437b89212fae0dfade
1,14.331,space,12.7844,0,156,156,322,1,,,5d53fd59f6d6da00011209c0,6437730b15358bdc37fc85a8,2023-04-13_12h44.18.369,PRaM,2021.2.3,Win32,57.94414185,61b8f3437b89212fae0dfade
6,2.8569,space,1.4651,0,157,157,21,1,,,5d53fd59f6d6da00011209c0,6437730b15358bdc37fc85a8,2023-04-13_12h44.18.369,PRaM,2021.2.3,Win32,57.94414185,61b8f3437b89212fae0dfade
1,3.6441,space,2.1128,0,158,158,82,1,,,5d53fd59f6d6da00011209c0,6437730b15358bdc37fc85a8,2023-04-13_12h44.18.369,PRaM,2021.2.3,Win32,57.94414185,61b8f3437b89212fae0dfade
1,6.7826,space,5.2906,0,159,159,73,1,,,5d53fd59f6d6da00011209c0,6437730b15358bdc37fc85a8,2023-04-13_12h44.18.369,PRaM,2021.2.3,Win32,57.94414185,61b8f3437b89212fae0dfade
1,6.8351,space,12.0169,0,160,160,243,1,,,5d53fd59f6d6da00011209c0,6437730b15358bdc37fc85a8,2023-04-13_12h44.18.369,PRaM,2021.2.3,Win32,57.94414185,61b8f3437b89212fae0dfade
1,6.6226,space,5.1072,0,161,161,176,1,,,5d53fd59f6d6da00011209c0,6437730b15358bdc37fc85a8,2023-04-13_12h44.18.369,PRaM,2021.2.3,Win32,57.94414185,61b8f3437b89212fae0dfade
5,7.7229,space,6.2377,0,162,162,52,1,,,5d53fd59f6d6da00011209c0,6437730b15358bdc37fc85a8,2023-04-13_12h44.18.369,PRaM,2021.2.3,Win32,57.94414185,61b8f3437b89212fae0dfade
2,3.544,space,2.4761,0,163,163,359,1,,,5d53fd59f6d6da00011209c0,6437730b15358bdc37fc85a8,2023-04-13_12h44.18.369,PRaM,2021.2.3,Win32,57.94414185,61b8f3437b89212fae0dfade
5,5.4202,space,4.0901,0,164,164,177,1,,,5d53fd59f6d6da00011209c0,6437730b15358bdc37fc85a8,2023-04-13_12h44.18.369,PRaM,2021.2.3,Win32,57.94414185,61b8f3437b89212fae0dfade
4,30.2042,space,29.5532,0,165,165,230,1,,,5d53fd59f6d6da00011209c0,6437730b15358bdc37fc85a8,2023-04-13_12h44.18.369,PRaM,2021.2.3,Win32,57.94414185,61b8f3437b89212fae0dfade
2,4.5134,space,2.9699,0,166,166,79,1,,,5d53fd59f6d6da00011209c0,6437730b15358bdc37fc85a8,2023-04-13_12h44.18.369,PRaM,2021.2.3,Win32,57.94414185,61b8f3437b89212fae0dfade
1,2.955,space,1.3833,0,167,167,195,1,,,5d53fd59f6d6da00011209c0,6437730b15358bdc37fc85a8,2023-04-13_12h44.18.369,PRaM,2021.2.3,Win32,57.94414185,61b8f3437b89212fae0dfade
4,3.1117,space,1.7111,0,168,168,362,1,,,5d53fd59f6d6da00011209c0,6437730b15358bdc37fc85a8,2023-04-13_12h44.18.369,PRaM,2021.2.3,Win32,57.94414185,61b8f3437b89212fae0dfade
5,7.2899,space,5.845,0,169,169,4,1,,,5d53fd59f6d6da00011209c0,6437730b15358bdc37fc85a8,2023-04-13_12h44.18.369,PRaM,2021.2.3,Win32,57.94414185,61b8f3437b89212fae0dfade
6,10.0982,space,9.0599,0,170,170,117,1,,,5d53fd59f6d6da00011209c0,6437730b15358bdc37fc85a8,2023-04-13_12h44.18.369,PRaM,2021.2.3,Win32,57.94414185,61b8f3437b89212fae0dfade
5,10.4139,space,9.474,0,171,171,254,1,,,5d53fd59f6d6da00011209c0,6437730b15358bdc37fc85a8,2023-04-13_12h44.18.369,PRaM,2021.2.3,Win32,57.94414185,61b8f3437b89212fae0dfade
2,3.2442,space,1.9045,0,172,172,91,1,,,5d53fd59f6d6da00011209c0,6437730b15358bdc37fc85a8,2023-04-13_12h44.18.369,PRaM,2021.2.3,Win32,57.94414185,61b8f3437b89212fae0dfade
6,19.6311,space,18.4629,0,173,173,40,1,,,5d53fd59f6d6da00011209c0,6437730b15358bdc37fc85a8,2023-04-13_12h44.18.369,PRaM,2021.2.3,Win32,57.94414185,61b8f3437b89212fae0dfade
6,3.6006,space,2.2901,0,174,174,239,1,,,5d53fd59f6d6da00011209c0,6437730b15358bdc37fc85a8,2023-04-13_12h44.18.369,PRaM,2021.2.3,Win32,57.94414185,61b8f3437b89212fae0dfade
2,22.5973,space,21.6114,0,175,175,191,1,,,5d53fd59f6d6da00011209c0,6437730b15358bdc37fc85a8,2023-04-13_12h44.18.369,PRaM,2021.2.3,Win32,57.94414185,61b8f3437b89212fae0dfade
9,3.3974,space,1.9823,0,176,176,115,1,,,5d53fd59f6d6da00011209c0,6437730b15358bdc37fc85a8,2023-04-13_12h44.18.369,PRaM,2021.2.3,Win32,57.94414185,61b8f3437b89212fae0dfade
5,7.6635,space,6.073,0,177,177,304,1,,,5d53fd59f6d6da00011209c0,6437730b15358bdc37fc85a8,2023-04-13_12h44.18.369,PRaM,2021.2.3,Win32,57.94414185,61b8f3437b89212fae0dfade
4,4.6565,space,3.1032,0,178,178,187,1,,,5d53fd59f6d6da00011209c0,6437730b15358bdc37fc85a8,2023-04-13_12h44.18.369,PRaM,2021.2.3,Win32,57.94414185,61b8f3437b89212fae0dfade
1,7.0082,space,5.4352,0,179,179,116,1,,,5d53fd59f6d6da00011209c0,6437730b15358bdc37fc85a8,2023-04-13_12h44.18.369,PRaM,2021.2.3,Win32,57.94414185,61b8f3437b89212fae0dfade
1,2.4326,space,0.9849,0,180,180,312,1,,,5d53fd59f6d6da00011209c0,6437730b15358bdc37fc85a8,2023-04-13_12h44.18.369,PRaM,2021.2.3,Win32,57.94414185,61b8f3437b89212fae0dfade
2,6.9979,space,6.398,0,181,181,128,1,,,5d53fd59f6d6da00011209c0,6437730b15358bdc37fc85a8,2023-04-13_12h44.18.369,PRaM,2021.2.3,Win32,57.94414185,61b8f3437b89212fae0dfade
1,2.8044,space,1.1705,0,182,182,163,1,,,5d53fd59f6d6da00011209c0,6437730b15358bdc37fc85a8,2023-04-13_12h44.18.369,PRaM,2021.2.3,Win32,57.94414185,61b8f3437b89212fae0dfade
5,4.1327,space,3.1635,0,183,183,86,1,,,5d53fd59f6d6da00011209c0,6437730b15358bdc37fc85a8,2023-04-13_12h44.18.369,PRaM,2021.2.3,Win32,57.94414185,61b8f3437b89212fae0dfade
1,4.6606,space,3.3235,0,184,184,283,1,,,5d53fd59f6d6da00011209c0,6437730b15358bdc37fc85a8,2023-04-13_12h44.18.369,PRaM,2021.2.3,Win32,57.94414185,61b8f3437b89212fae0dfade
3,23.0568,space,21.6887,0,185,185,77,1,,,5d53fd59f6d6da00011209c0,6437730b15358bdc37fc85a8,2023-04-13_12h44.18.369,PRaM,2021.2.3,Win32,57.94414185,61b8f3437b89212fae0dfade
5,7.385,space,6.0988,0,186,186,151,1,,,5d53fd59f6d6da00011209c0,6437730b15358bdc37fc85a8,2023-04-13_12h44.18.369,PRaM,2021.2.3,Win32,57.94414185,61b8f3437b89212fae0dfade
6,2.5559,space,1.6687,0,187,187,252,1,,,5d53fd59f6d6da00011209c0,6437730b15358bdc37fc85a8,2023-04-13_12h44.18.369,PRaM,2021.2.3,Win32,57.94414185,61b8f3437b89212fae0dfade
5,4.4232,space,3.0763,0,188,188,201,1,,,5d53fd59f6d6da00011209c0,6437730b15358bdc37fc85a8,2023-04-13_12h44.18.369,PRaM,2021.2.3,Win32,57.94414185,61b8f3437b89212fae0dfade
1,2.8242,space,1.5658,0,189,189,107,1,,,5d53fd59f6d6da00011209c0,6437730b15358bdc37fc85a8,2023-04-13_12h44.18.369,PRaM,2021.2.3,Win32,57.94414185,61b8f3437b89212fae0dfade
6,6.1557,space,5.3403,0,190,190,307,1,,,5d53fd59f6d6da00011209c0,6437730b15358bdc37fc85a8,2023-04-13_12h44.18.369,PRaM,2021.2.3,Win32,57.94414185,61b8f3437b89212fae0dfade
8,8.0952,space,6.7724,0,191,191,85,1,,,5d53fd59f6d6da00011209c0,6437730b15358bdc37fc85a8,2023-04-13_12h44.18.369,PRaM,2021.2.3,Win32,57.94414185,61b8f3437b89212fae0dfade
6,7.9254,space,6.353,0,192,192,90,1,,,5d53fd59f6d6da00011209c0,6437730b15358bdc37fc85a8,2023-04-13_12h44.18.369,PRaM,2021.2.3,Win32,57.94414185,61b8f3437b89212fae0dfade
3,6.129,space,4.9634,0,193,193,57,1,,,5d53fd59f6d6da00011209c0,6437730b15358bdc37fc85a8,2023-04-13_12h44.18.369,PRaM,2021.2.3,Win32,57.94414185,61b8f3437b89212fae0dfade
4,9.7127,space,8.0744,0,194,194,377,1,,,5d53fd59f6d6da00011209c0,6437730b15358bdc37fc85a8,2023-04-13_12h44.18.369,PRaM,2021.2.3,Win32,57.94414185,61b8f3437b89212fae0dfade
3,10.4394,space,9.0273,0,195,195,227,1,,,5d53fd59f6d6da00011209c0,6437730b15358bdc37fc85a8,2023-04-13_12h44.18.369,PRaM,2021.2.3,Win32,57.94414185,61b8f3437b89212fae0dfade
1,2.8843,space,1.6672,0,196,196,248,1,,,5d53fd59f6d6da00011209c0,6437730b15358bdc37fc85a8,2023-04-13_12h44.18.369,PRaM,2021.2.3,Win32,57.94414185,61b8f3437b89212fae0dfade
4,3.463,space,1.9808,0,197,197,172,1,,,5d53fd59f6d6da00011209c0,6437730b15358bdc37fc85a8,2023-04-13_12h44.18.369,PRaM,2021.2.3,Win32,57.94414185,61b8f3437b89212fae0dfade
8,5.827,space,4.2241,0,198,198,372,1,,,5d53fd59f6d6da00011209c0,6437730b15358bdc37fc85a8,2023-04-13_12h44.18.369,PRaM,2021.2.3,Win32,57.94414185,61b8f3437b89212fae0dfade
3,6.3374,space,4.6927,0,199,199,24,1,,,5d53fd59f6d6da00011209c0,6437730b15358bdc37fc85a8,2023-04-13_12h44.18.369,PRaM,2021.2.3,Win32,57.94414185,61b8f3437b89212fae0dfade
5,10.5165,space,8.9022,0,200,200,166,1,,,5d53fd59f6d6da00011209c0,6437730b15358bdc37fc85a8,2023-04-13_12h44.18.369,PRaM,2021.2.3,Win32,57.94414185,61b8f3437b89212fae0dfade
6,3.3618,space,1.8429,0,201,201,334,1,,,5d53fd59f6d6da00011209c0,6437730b15358bdc37fc85a8,2023-04-13_12h44.18.369,PRaM,2021.2.3,Win32,57.94414185,61b8f3437b89212fae0dfade
1,4.3127,space,2.845,0,202,202,330,1,,,5d53fd59f6d6da00011209c0,6437730b15358bdc37fc85a8,2023-04-13_12h44.18.369,PRaM,2021.2.3,Win32,57.94414185,61b8f3437b89212fae0dfade
9,3.8888,space,2.3174,0,203,203,244,1,,,5d53fd59f6d6da00011209c0,6437730b15358bdc37fc85a8,2023-04-13_12h44.18.369,PRaM,2021.2.3,Win32,57.94414185,61b8f3437b89212fae0dfade
6,3.4129,space,1.8093,0,204,204,99,1,,,5d53fd59f6d6da00011209c0,6437730b15358bdc37fc85a8,2023-04-13_12h44.18.369,PRaM,2021.2.3,Win32,57.94414185,61b8f3437b89212fae0dfade
2,21.3642,space,20.5257,0,205,205,74,1,,,5d53fd59f6d6da00011209c0,6437730b15358bdc37fc85a8,2023-04-13_12h44.18.369,PRaM,2021.2.3,Win32,57.94414185,61b8f3437b89212fae0dfade
4,5.5287,space,4.0384,0,206,206,368,1,,,5d53fd59f6d6da00011209c0,6437730b15358bdc37fc85a8,2023-04-13_12h44.18.369,PRaM,2021.2.3,Win32,57.94414185,61b8f3437b89212fae0dfade
2,4.2766,space,3.1611,0,207,207,174,1,,,5d53fd59f6d6da00011209c0,6437730b15358bdc37fc85a8,2023-04-13_12h44.18.369,PRaM,2021.2.3,Win32,57.94414185,61b8f3437b89212fae0dfade
3,4.3936,space,2.9139,0,208,208,258,1,,,5d53fd59f6d6da00011209c0,6437730b15358bdc37fc85a8,2023-04-13_12h44.18.369,PRaM,2021.2.3,Win32,57.94414185,61b8f3437b89212fae0dfade
5,9.4215,space,8.5906,0,209,209,104,1,,,5d53fd59f6d6da00011209c0,6437730b15358bdc37fc85a8,2023-04-13_12h44.18.369,PRaM,2021.2.3,Win32,57.94414185,61b8f3437b89212fae0dfade
1,2.9072,space,1.4153,0,210,210,54,1,,,5d53fd59f6d6da00011209c0,6437730b15358bdc37fc85a8,2023-04-13_12h44.18.369,PRaM,2021.2.3,Win32,57.94414185,61b8f3437b89212fae0dfade
2,10.9199,space,9.2909,0,211,211,376,1,,,5d53fd59f6d6da00011209c0,6437730b15358bdc37fc85a8,2023-04-13_12h44.18.369,PRaM,2021.2.3,Win32,57.94414185,61b8f3437b89212fae0dfade
8,3.0464,space,1.484,0,212,212,222,1,,,5d53fd59f6d6da00011209c0,6437730b15358bdc37fc85a8,2023-04-13_12h44.18.369,PRaM,2021.2.3,Win32,57.94414185,61b8f3437b89212fae0dfade
7,3.9849,space,4.8989,0,213,213,326,1,,,5d53fd59f6d6da00011209c0,6437730b15358bdc37fc85a8,2023-04-13_12h44.18.369,PRaM,2021.2.3,Win32,57.94414185,61b8f3437b89212fae0dfade
1,4.1794,space,2.7363,0,214,214,103,1,,,5d53fd59f6d6da00011209c0,6437730b15358bdc37fc85a8,2023-04-13_12h44.18.369,PRaM,2021.2.3,Win32,57.94414185,61b8f3437b89212fae0dfade
1,3.4859,space,2.2921,0,215,215,237,1,,,5d53fd59f6d6da00011209c0,6437730b15358bdc37fc85a8,2023-04-13_12h44.18.369,PRaM,2021.2.3,Win32,57.94414185,61b8f3437b89212fae0dfade
3,5.2491,space,3.7222,0,216,216,149,1,,,5d53fd59f6d6da00011209c0,6437730b15358bdc37fc85a8,2023-04-13_12h44.18.369,PRaM,2021.2.3,Win32,57.94414185,61b8f3437b89212fae0dfade
3,3.9633,space,2.5324,0,217,217,167,1,,,5d53fd59f6d6da00011209c0,6437730b15358bdc37fc85a8,2023-04-13_12h44.18.369,PRaM,2021.2.3,Win32,57.94414185,61b8f3437b89212fae0dfade
1,10.7914,space,9.5953,0,218,218,231,1,,,5d53fd59f6d6da00011209c0,6437730b15358bdc37fc85a8,2023-04-13_12h44.18.369,PRaM,2021.2.3,Win32,57.94414185,61b8f3437b89212fae0dfade
6,3.9277,space,2.5237,0,219,219,152,1,,,5d53fd59f6d6da00011209c0,6437730b15358bdc37fc85a8,2023-04-13_12h44.18.369,PRaM,2021.2.3,Win32,57.94414185,61b8f3437b89212fae0dfade
6,4.0607,space,2.9561,0,220,220,233,1,,,5d53fd59f6d6da00011209c0,6437730b15358bdc37fc85a8,2023-04-13_12h44.18.369,PRaM,2021.2.3,Win32,57.94414185,61b8f3437b89212fae0dfade
1,18.1162,space,16.5513,0,221,221,122,1,,,5d53fd59f6d6da00011209c0,6437730b15358bdc37fc85a8,2023-04-13_12h44.18.369,PRaM,2021.2.3,Win32,57.94414185,61b8f3437b89212fae0dfade
5,3.2927,space,1.7591,0,222,222,270,1,,,5d53fd59f6d6da00011209c0,6437730b15358bdc37fc85a8,2023-04-13_12h44.18.369,PRaM,2021.2.3,Win32,57.94414185,61b8f3437b89212fae0dfade
1,2.9196,space,1.5725,0,223,223,253,1,,,5d53fd59f6d6da00011209c0,6437730b15358bdc37fc85a8,2023-04-13_12h44.18.369,PRaM,2021.2.3,Win32,57.94414185,61b8f3437b89212fae0dfade
6,2.9884,space,1.3675,0,224,224,280,1,,,5d53fd59f6d6da00011209c0,6437730b15358bdc37fc85a8,2023-04-13_12h44.18.369,PRaM,2021.2.3,Win32,57.94414185,61b8f3437b89212fae0dfade
5,10.7546,space,9.1501,0,225,225,150,1,,,5d53fd59f6d6da00011209c0,6437730b15358bdc37fc85a8,2023-04-13_12h44.18.369,PRaM,2021.2.3,Win32,57.94414185,61b8f3437b89212fae0dfade
5,3.8505,space,2.3585,0,226,226,30,1,,,5d53fd59f6d6da00011209c0,6437730b15358bdc37fc85a8,2023-04-13_12h44.18.369,PRaM,2021.2.3,Win32,57.94414185,61b8f3437b89212fae0dfade
1,2.7301,space,1.0515,0,227,227,111,1,,,5d53fd59f6d6da00011209c0,6437730b15358bdc37fc85a8,2023-04-13_12h44.18.369,PRaM,2021.2.3,Win32,57.94414185,61b8f3437b89212fae0dfade
1,4.8879,space,3.3299,0,228,228,65,1,,,5d53fd59f6d6da00011209c0,6437730b15358bdc37fc85a8,2023-04-13_12h44.18.369,PRaM,2021.2.3,Win32,57.94414185,61b8f3437b89212fae0dfade
2,3.4067,space,3.5356,0,229,229,161,1,,,5d53fd59f6d6da00011209c0,6437730b15358bdc37fc85a8,2023-04-13_12h44.18.369,PRaM,2021.2.3,Win32,57.94414185,61b8f3437b89212fae0dfade
6,4.7278,space,3.1799,0,230,230,325,1,,,5d53fd59f6d6da00011209c0,6437730b15358bdc37fc85a8,2023-04-13_12h44.18.369,PRaM,2021.2.3,Win32,57.94414185,61b8f3437b89212fae0dfade
1,7.9979,space,6.5962,0,231,231,133,1,,,5d53fd59f6d6da00011209c0,6437730b15358bdc37fc85a8,2023-04-13_12h44.18.369,PRaM,2021.2.3,Win32,57.94414185,61b8f3437b89212fae0dfade
5,3.6871,space,3.2173,0,232,232,144,1,,,5d53fd59f6d6da00011209c0,6437730b15358bdc37fc85a8,2023-04-13_12h44.18.369,PRaM,2021.2.3,Win32,57.94414185,61b8f3437b89212fae0dfade
9,26.2676,space,24.7355,0,233,233,3,1,,,5d53fd59f6d6da00011209c0,6437730b15358bdc37fc85a8,2023-04-13_12h44.18.369,PRaM,2021.2.3,Win32,57.94414185,61b8f3437b89212fae0dfade
6,4.1999,space,3.1434,0,234,234,22,1,,,5d53fd59f6d6da00011209c0,6437730b15358bdc37fc85a8,2023-04-13_12h44.18.369,PRaM,2021.2.3,Win32,57.94414185,61b8f3437b89212fae0dfade
1,3.5983,space,2.1218,0,235,235,218,1,,,5d53fd59f6d6da00011209c0,6437730b15358bdc37fc85a8,2023-04-13_12h44.18.369,PRaM,2021.2.3,Win32,57.94414185,61b8f3437b89212fae0dfade
7,3.6941,space,2.3933,0,236,236,238,1,,,5d53fd59f6d6da00011209c0,6437730b15358bdc37fc85a8,2023-04-13_12h44.18.369,PRaM,2021.2.3,Win32,57.94414185,61b8f3437b89212fae0dfade
2,3.3543,space,1.8585,0,237,237,155,1,,,5d53fd59f6d6da00011209c0,6437730b15358bdc37fc85a8,2023-04-13_12h44.18.369,PRaM,2021.2.3,Win32,57.94414185,61b8f3437b89212fae0dfade
5,8.0559,space,6.5256,0,238,238,147,1,,,5d53fd59f6d6da00011209c0,6437730b15358bdc37fc85a8,2023-04-13_12h44.18.369,PRaM,2021.2.3,Win32,57.94414185,61b8f3437b89212fae0dfade
1,3.3026,space,1.7006,0,239,239,108,1,,,5d53fd59f6d6da00011209c0,6437730b15358bdc37fc85a8,2023-04-13_12h44.18.369,PRaM,2021.2.3,Win32,57.94414185,61b8f3437b89212fae0dfade
6,10.1022,space,9.3181,0,240,240,269,1,,,5d53fd59f6d6da00011209c0,6437730b15358bdc37fc85a8,2023-04-13_12h44.18.369,PRaM,2021.2.3,Win32,57.94414185,61b8f3437b89212fae0dfade
5,2.8937,space,1.387,0,241,241,223,1,,,5d53fd59f6d6da00011209c0,6437730b15358bdc37fc85a8,2023-04-13_12h44.18.369,PRaM,2021.2.3,Win32,57.94414185,61b8f3437b89212fae0dfade
6,3.1828,space,1.6074,0,242,242,51,1,,,5d53fd59f6d6da00011209c0,6437730b15358bdc37fc85a8,2023-04-13_12h44.18.369,PRaM,2021.2.3,Win32,57.94414185,61b8f3437b89212fae0dfade
4,4.6352,space,3.1068,0,243,243,300,1,,,5d53fd59f6d6da00011209c0,6437730b15358bdc37fc85a8,2023-04-13_12h44.18.369,PRaM,2021.2.3,Win32,57.94414185,61b8f3437b89212fae0dfade
2,6.2666,space,4.6344,0,244,244,63,1,,,5d53fd59f6d6da00011209c0,6437730b15358bdc37fc85a8,2023-04-13_12h44.18.369,PRaM,2021.2.3,Win32,57.94414185,61b8f3437b89212fae0dfade
6,2.979,space,1.4665,0,245,245,64,1,,,5d53fd59f6d6da00011209c0,6437730b15358bdc37fc85a8,2023-04-13_12h44.18.369,PRaM,2021.2.3,Win32,57.94414185,61b8f3437b89212fae0dfade
1,12.2458,space,10.6487,0,246,246,35,1,,,5d53fd59f6d6da00011209c0,6437730b15358bdc37fc85a8,2023-04-13_12h44.18.369,PRaM,2021.2.3,Win32,57.94414185,61b8f3437b89212fae0dfade
5,11.2171,space,9.6873,0,247,247,344,1,,,5d53fd59f6d6da00011209c0,6437730b15358bdc37fc85a8,2023-04-13_12h44.18.369,PRaM,2021.2.3,Win32,57.94414185,61b8f3437b89212fae0dfade
1,2.8519,space,1.2686,0,248,248,8,1,,,5d53fd59f6d6da00011209c0,6437730b15358bdc37fc85a8,2023-04-13_12h44.18.369,PRaM,2021.2.3,Win32,57.94414185,61b8f3437b89212fae0dfade
6,3.2623,space,1.6655,0,249,249,211,1,,,5d53fd59f6d6da00011209c0,6437730b15358bdc37fc85a8,2023-04-13_12h44.18.369,PRaM,2021.2.3,Win32,57.94414185,61b8f3437b89212fae0dfade
6,6.0645,space,4.7398,0,250,250,363,1,,,5d53fd59f6d6da00011209c0,6437730b15358bdc37fc85a8,2023-04-13_12h44.18.369,PRaM,2021.2.3,Win32,57.94414185,61b8f3437b89212fae0dfade
9,2.8306,space,2.0879,0,251,251,279,1,,,5d53fd59f6d6da00011209c0,6437730b15358bdc37fc85a8,2023-04-13_12h44.18.369,PRaM,2021.2.3,Win32,57.94414185,61b8f3437b89212fae0dfade
7,4.7851,space,3.2124,0,252,252,366,1,,,5d53fd59f6d6da00011209c0,6437730b15358bdc37fc85a8,2023-04-13_12h44.18.369,PRaM,2021.2.3,Win32,57.94414185,61b8f3437b89212fae0dfade
6,3.2278,space,1.7329,0,253,253,255,1,,,5d53fd59f6d6da00011209c0,6437730b15358bdc37fc85a8,2023-04-13_12h44.18.369,PRaM,2021.2.3,Win32,57.94414185,61b8f3437b89212fae0dfade
1,7.0962,space,5.8381,0,254,254,36,1,,,5d53fd59f6d6da00011209c0,6437730b15358bdc37fc85a8,2023-04-13_12h44.18.369,PRaM,2021.2.3,Win32,57.94414185,61b8f3437b89212fae0dfade
5,10.3603,space,10.3335,0,255,255,277,1,,,5d53fd59f6d6da00011209c0,6437730b15358bdc37fc85a8,2023-04-13_12h44.18.369,PRaM,2021.2.3,Win32,57.94414185,61b8f3437b89212fae0dfade
5,8.828,space,7.2715,0,256,256,341,1,,,5d53fd59f6d6da00011209c0,6437730b15358bdc37fc85a8,2023-04-13_12h44.18.369,PRaM,2021.2.3,Win32,57.94414185,61b8f3437b89212fae0dfade
5,4.9785,space,3.42,0,257,257,336,1,,,5d53fd59f6d6da00011209c0,6437730b15358bdc37fc85a8,2023-04-13_12h44.18.369,PRaM,2021.2.3,Win32,57.94414185,61b8f3437b89212fae0dfade
2,3.0889,space,2.2515,0,258,258,257,1,,,5d53fd59f6d6da00011209c0,6437730b15358bdc37fc85a8,2023-04-13_12h44.18.369,PRaM,2021.2.3,Win32,57.94414185,61b8f3437b89212fae0dfade
5,6.0423,space,4.4393,0,259,259,369,1,,,5d53fd59f6d6da00011209c0,6437730b15358bdc37fc85a8,2023-04-13_12h44.18.369,PRaM,2021.2.3,Win32,57.94414185,61b8f3437b89212fae0dfade
6,3.9131,space,2.7936,0,260,260,48,1,,,5d53fd59f6d6da00011209c0,6437730b15358bdc37fc85a8,2023-04-13_12h44.18.369,PRaM,2021.2.3,Win32,57.94414185,61b8f3437b89212fae0dfade
5,4.1264,space,2.9399,0,261,261,75,1,,,5d53fd59f6d6da00011209c0,6437730b15358bdc37fc85a8,2023-04-13_12h44.18.369,PRaM,2021.2.3,Win32,57.94414185,61b8f3437b89212fae0dfade
5,3.3897,space,1.8187,0,262,262,37,1,,,5d53fd59f6d6da00011209c0,6437730b15358bdc37fc85a8,2023-04-13_12h44.18.369,PRaM,2021.2.3,Win32,57.94414185,61b8f3437b89212fae0dfade
6,3.4662,space,2.5274,0,263,263,323,1,,,5d53fd59f6d6da00011209c0,6437730b15358bdc37fc85a8,2023-04-13_12h44.18.369,PRaM,2021.2.3,Win32,57.94414185,61b8f3437b89212fae0dfade
8,3.4849,space,2.4519,0,264,264,118,1,,,5d53fd59f6d6da00011209c0,6437730b15358bdc37fc85a8,2023-04-13_12h44.18.369,PRaM,2021.2.3,Win32,57.94414185,61b8f3437b89212fae0dfade
5,4.4269,space,3.124,0,265,265,80,1,,,5d53fd59f6d6da00011209c0,6437730b15358bdc37fc85a8,2023-04-13_12h44.18.369,PRaM,2021.2.3,Win32,57.94414185,61b8f3437b89212fae0dfade
1,5.6402,space,4.1033,0,266,266,251,1,,,5d53fd59f6d6da00011209c0,6437730b15358bdc37fc85a8,2023-04-13_12h44.18.369,PRaM,2021.2.3,Win32,57.94414185,61b8f3437b89212fae0dfade
1,2.5918,space,0.9202,0,267,267,232,1,,,5d53fd59f6d6da00011209c0,6437730b15358bdc37fc85a8,2023-04-13_12h44.18.369,PRaM,2021.2.3,Win32,57.94414185,61b8f3437b89212fae0dfade
8,9.0571,space,7.7315,0,268,268,20,1,,,5d53fd59f6d6da00011209c0,6437730b15358bdc37fc85a8,2023-04-13_12h44.18.369,PRaM,2021.2.3,Win32,57.94414185,61b8f3437b89212fae0dfade
6,3.8776,space,2.2816,0,269,269,180,1,,,5d53fd59f6d6da00011209c0,6437730b15358bdc37fc85a8,2023-04-13_12h44.18.369,PRaM,2021.2.3,Win32,57.94414185,61b8f3437b89212fae0dfade
5,3.1645,space,1.6502,0,270,270,327,1,,,5d53fd59f6d6da00011209c0,6437730b15358bdc37fc85a8,2023-04-13_12h44.18.369,PRaM,2021.2.3,Win32,57.94414185,61b8f3437b89212fae0dfade
3,2.96,space,1.4331,0,271,271,349,1,,,5d53fd59f6d6da00011209c0,6437730b15358bdc37fc85a8,2023-04-13_12h44.18.369,PRaM,2021.2.3,Win32,57.94414185,61b8f3437b89212fae0dfade
7,12.3828,space,10.819,0,272,272,83,1,,,5d53fd59f6d6da00011209c0,6437730b15358bdc37fc85a8,2023-04-13_12h44.18.369,PRaM,2021.2.3,Win32,57.94414185,61b8f3437b89212fae0dfade
8,4.8972,space,3.2683,0,273,273,38,1,,,5d53fd59f6d6da00011209c0,6437730b15358bdc37fc85a8,2023-04-13_12h44.18.369,PRaM,2021.2.3,Win32,57.94414185,61b8f3437b89212fae0dfade
2,5.5757,space,4.0393,0,274,274,212,1,,,5d53fd59f6d6da00011209c0,6437730b15358bdc37fc85a8,2023-04-13_12h44.18.369,PRaM,2021.2.3,Win32,57.94414185,61b8f3437b89212fae0dfade
3,6.3223,space,4.64,0,275,275,145,1,,,5d53fd59f6d6da00011209c0,6437730b15358bdc37fc85a8,2023-04-13_12h44.18.369,PRaM,2021.2.3,Win32,57.94414185,61b8f3437b89212fae0dfade
9,5.2649,space,4.0314,0,276,276,197,1,,,5d53fd59f6d6da00011209c0,6437730b15358bdc37fc85a8,2023-04-13_12h44.18.369,PRaM,2021.2.3,Win32,57.94414185,61b8f3437b89212fae0dfade
1,3.3176,space,1.8896,0,277,277,41,1,,,5d53fd59f6d6da00011209c0,6437730b15358bdc37fc85a8,2023-04-13_12h44.18.369,PRaM,2021.2.3,Win32,57.94414185,61b8f3437b89212fae0dfade
6,3.7576,space,2.4064,0,278,278,306,1,,,5d53fd59f6d6da00011209c0,6437730b15358bdc37fc85a8,2023-04-13_12h44.18.369,PRaM,2021.2.3,Win32,57.94414185,61b8f3437b89212fae0dfade
6,2.1511,space,0.6187,0,279,279,365,1,,,5d53fd59f6d6da00011209c0,6437730b15358bdc37fc85a8,2023-04-13_12h44.18.369,PRaM,2021.2.3,Win32,57.94414185,61b8f3437b89212fae0dfade
9,10.2568,space,9.1863,0,280,280,17,1,,,5d53fd59f6d6da00011209c0,6437730b15358bdc37fc85a8,2023-04-13_12h44.18.369,PRaM,2021.2.3,Win32,57.94414185,61b8f3437b89212fae0dfade
6,4.4394,space,2.9345,0,281,281,162,1,,,5d53fd59f6d6da00011209c0,6437730b15358bdc37fc85a8,2023-04-13_12h44.18.369,PRaM,2021.2.3,Win32,57.94414185,61b8f3437b89212fae0dfade
5,3.8073,space,2.2835,0,282,282,345,1,,,5d53fd59f6d6da00011209c0,6437730b15358bdc37fc85a8,2023-04-13_12h44.18.369,PRaM,2021.2.3,Win32,57.94414185,61b8f3437b89212fae0dfade
6,8.5131,space,7.1789,0,283,283,165,1,,,5d53fd59f6d6da00011209c0,6437730b15358bdc37fc85a8,2023-04-13_12h44.18.369,PRaM,2021.2.3,Win32,57.94414185,61b8f3437b89212fae0dfade
4,6.4174,space,5.0157,0,284,284,240,1,,,5d53fd59f6d6da00011209c0,6437730b15358bdc37fc85a8,2023-04-13_12h44.18.369,PRaM,2021.2.3,Win32,57.94414185,61b8f3437b89212fae0dfade
4,4.0491,space,2.3892,0,285,285,259,1,,,5d53fd59f6d6da00011209c0,6437730b15358bdc37fc85a8,2023-04-13_12h44.18.369,PRaM,2021.2.3,Win32,57.94414185,61b8f3437b89212fae0dfade
5,3.9736,space,2.824,0,286,286,317,1,,,5d53fd59f6d6da00011209c0,6437730b15358bdc37fc85a8,2023-04-13_12h44.18.369,PRaM,2021.2.3,Win32,57.94414185,61b8f3437b89212fae0dfade
6,6.9375,space,7.1582,0,287,287,134,1,,,5d53fd59f6d6da00011209c0,6437730b15358bdc37fc85a8,2023-04-13_12h44.18.369,PRaM,2021.2.3,Win32,57.94414185,61b8f3437b89212fae0dfade
6,2.6118,space,1.2153,0,288,288,46,1,,,5d53fd59f6d6da00011209c0,6437730b15358bdc37fc85a8,2023-04-13_12h44.18.369,PRaM,2021.2.3,Win32,57.94414185,61b8f3437b89212fae0dfade
2,3.2965,space,1.7706,0,289,289,263,1,,,5d53fd59f6d6da00011209c0,6437730b15358bdc37fc85a8,2023-04-13_12h44.18.369,PRaM,2021.2.3,Win32,57.94414185,61b8f3437b89212fae0dfade
4,4.4307,space,2.8877,0,290,290,367,1,,,5d53fd59f6d6da00011209c0,6437730b15358bdc37fc85a8,2023-04-13_12h44.18.369,PRaM,2021.2.3,Win32,57.94414185,61b8f3437b89212fae0dfade
7,3.0103,space,1.5963,0,291,291,350,1,,,5d53fd59f6d6da00011209c0,6437730b15358bdc37fc85a8,2023-04-13_12h44.18.369,PRaM,2021.2.3,Win32,57.94414185,61b8f3437b89212fae0dfade
1,2.4704,space,0.8779,0,292,292,229,1,,,5d53fd59f6d6da00011209c0,6437730b15358bdc37fc85a8,2023-04-13_12h44.18.369,PRaM,2021.2.3,Win32,57.94414185,61b8f3437b89212fae0dfade
6,2.4035,space,0.8976,0,293,293,337,1,,,5d53fd59f6d6da00011209c0,6437730b15358bdc37fc85a8,2023-04-13_12h44.18.369,PRaM,2021.2.3,Win32,57.94414185,61b8f3437b89212fae0dfade
6,3.216,space,1.6653,0,294,294,53,1,,,5d53fd59f6d6da00011209c0,6437730b15358bdc37fc85a8,2023-04-13_12h44.18.369,PRaM,2021.2.3,Win32,57.94414185,61b8f3437b89212fae0dfade
1,5.1559,space,3.6714,0,295,295,94,1,,,5d53fd59f6d6da00011209c0,6437730b15358bdc37fc85a8,2023-04-13_12h44.18.369,PRaM,2021.2.3,Win32,57.94414185,61b8f3437b89212fae0dfade
6,5.7621,space,4.1545,0,296,296,173,1,,,5d53fd59f6d6da00011209c0,6437730b15358bdc37fc85a8,2023-04-13_12h44.18.369,PRaM,2021.2.3,Win32,57.94414185,61b8f3437b89212fae0dfade
3,6.5384,space,4.9489,0,297,297,286,1,,,5d53fd59f6d6da00011209c0,6437730b15358bdc37fc85a8,2023-04-13_12h44.18.369,PRaM,2021.2.3,Win32,57.94414185,61b8f3437b89212fae0dfade
6,6.2149,space,6.702,0,298,298,219,1,,,5d53fd59f6d6da00011209c0,6437730b15358bdc37fc85a8,2023-04-13_12h44.18.369,PRaM,2021.2.3,Win32,57.94414185,61b8f3437b89212fae0dfade
7,2.674,space,1.2011,0,299,299,335,1,,,5d53fd59f6d6da00011209c0,6437730b15358bdc37fc85a8,2023-04-13_12h44.18.369,PRaM,2021.2.3,Win32,57.94414185,61b8f3437b89212fae0dfade
5,20.9875,space,19.3866,0,300,300,310,1,,,5d53fd59f6d6da00011209c0,6437730b15358bdc37fc85a8,2023-04-13_12h44.18.369,PRaM,2021.2.3,Win32,57.94414185,61b8f3437b89212fae0dfade
7,10.0733,space,8.7074,0,301,301,84,1,,,5d53fd59f6d6da00011209c0,6437730b15358bdc37fc85a8,2023-04-13_12h44.18.369,PRaM,2021.2.3,Win32,57.94414185,61b8f3437b89212fae0dfade
2,2.8848,space,1.3357,0,302,302,265,1,,,5d53fd59f6d6da00011209c0,6437730b15358bdc37fc85a8,2023-04-13_12h44.18.369,PRaM,2021.2.3,Win32,57.94414185,61b8f3437b89212fae0dfade
2,2.4826,space,0.9099,0,303,303,333,1,,,5d53fd59f6d6da00011209c0,6437730b15358bdc37fc85a8,2023-04-13_12h44.18.369,PRaM,2021.2.3,Win32,57.94414185,61b8f3437b89212fae0dfade
1,3.4151,space,1.8491,0,304,304,188,1,,,5d53fd59f6d6da00011209c0,6437730b15358bdc37fc85a8,2023-04-13_12h44.18.369,PRaM,2021.2.3,Win32,57.94414185,61b8f3437b89212fae0dfade
3,7.149,space,6.0216,0,305,305,346,1,,,5d53fd59f6d6da00011209c0,6437730b15358bdc37fc85a8,2023-04-13_12h44.18.369,PRaM,2021.2.3,Win32,57.94414185,61b8f3437b89212fae0dfade
5,10.5145,space,8.9628,0,306,306,271,1,,,5d53fd59f6d6da00011209c0,6437730b15358bdc37fc85a8,2023-04-13_12h44.18.369,PRaM,2021.2.3,Win32,57.94414185,61b8f3437b89212fae0dfade
2,13.9727,space,12.286,0,307,307,143,1,,,5d53fd59f6d6da00011209c0,6437730b15358bdc37fc85a8,2023-04-13_12h44.18.369,PRaM,2021.2.3,Win32,57.94414185,61b8f3437b89212fae0dfade
7,3.0078,space,3.0249,0,308,308,61,1,,,5d53fd59f6d6da00011209c0,6437730b15358bdc37fc85a8,2023-04-13_12h44.18.369,PRaM,2021.2.3,Win32,57.94414185,61b8f3437b89212fae0dfade
1,2.9079,space,1.3232,0,309,309,245,1,,,5d53fd59f6d6da00011209c0,6437730b15358bdc37fc85a8,2023-04-13_12h44.18.369,PRaM,2021.2.3,Win32,57.94414185,61b8f3437b89212fae0dfade
6,6.7838,space,5.3447,0,310,310,137,1,,,5d53fd59f6d6da00011209c0,6437730b15358bdc37fc85a8,2023-04-13_12h44.18.369,PRaM,2021.2.3,Win32,57.94414185,61b8f3437b89212fae0dfade
2,2.944,space,1.3904,0,311,311,272,1,,,5d53fd59f6d6da00011209c0,6437730b15358bdc37fc85a8,2023-04-13_12h44.18.369,PRaM,2021.2.3,Win32,57.94414185,61b8f3437b89212fae0dfade
2,2.0557,space,0.8948,0,312,312,209,1,,,5d53fd59f6d6da00011209c0,6437730b15358bdc37fc85a8,2023-04-13_12h44.18.369,PRaM,2021.2.3,Win32,57.94414185,61b8f3437b89212fae0dfade
2,9.1555,space,7.6486,0,313,313,98,1,,,5d53fd59f6d6da00011209c0,6437730b15358bdc37fc85a8,2023-04-13_12h44.18.369,PRaM,2021.2.3,Win32,57.94414185,61b8f3437b89212fae0dfade
4,3.4601,space,2.0222,0,314,314,131,1,,,5d53fd59f6d6da00011209c0,6437730b15358bdc37fc85a8,2023-04-13_12h44.18.369,PRaM,2021.2.3,Win32,57.94414185,61b8f3437b89212fae0dfade
2,4.6374,space,3.1067,0,315,315,58,1,,,5d53fd59f6d6da00011209c0,6437730b15358bdc37fc85a8,2023-04-13_12h44.18.369,PRaM,2021.2.3,Win32,57.94414185,61b8f3437b89212fae0dfade
5,12.3491,space,10.936,0,316,316,178,1,,,5d53fd59f6d6da00011209c0,6437730b15358bdc37fc85a8,2023-04-13_12h44.18.369,PRaM,2021.2.3,Win32,57.94414185,61b8f3437b89212fae0dfade
1,2.4169,space,0.8918,0,317,317,217,1,,,5d53fd59f6d6da00011209c0,6437730b15358bdc37fc85a8,2023-04-13_12h44.18.369,PRaM,2021.2.3,Win32,57.94414185,61b8f3437b89212fae0dfade
8,5.0639,space,3.5922,0,318,318,208,1,,,5d53fd59f6d6da00011209c0,6437730b15358bdc37fc85a8,2023-04-13_12h44.18.369,PRaM,2021.2.3,Win32,57.94414185,61b8f3437b89212fae0dfade
6,21.563,space,20.2487,0,319,319,261,1,,,5d53fd59f6d6da00011209c0,6437730b15358bdc37fc85a8,2023-04-13_12h44.18.369,PRaM,2021.2.3,Win32,57.94414185,61b8f3437b89212fae0dfade
5,7.5135,space,6.0773,0,320,320,43,1,,,5d53fd59f6d6da00011209c0,6437730b15358bdc37fc85a8,2023-04-13_12h44.18.369,PRaM,2021.2.3,Win32,57.94414185,61b8f3437b89212fae0dfade
6,2.4898,space,6.313,0,321,321,281,1,,,5d53fd59f6d6da00011209c0,6437730b15358bdc37fc85a8,2023-04-13_12h44.18.369,PRaM,2021.2.3,Win32,57.94414185,61b8f3437b89212fae0dfade
6,2.3885,space,0.8155,0,322,322,352,1,,,5d53fd59f6d6da00011209c0,6437730b15358bdc37fc85a8,2023-04-13_12h44.18.369,PRaM,2021.2.3,Win32,57.94414185,61b8f3437b89212fae0dfade
1,3.9803,space,2.3045,0,323,323,113,1,,,5d53fd59f6d6da00011209c0,6437730b15358bdc37fc85a8,2023-04-13_12h44.18.369,PRaM,2021.2.3,Win32,57.94414185,61b8f3437b89212fae0dfade
4,4.6113,space,3.0252,0,324,324,156,1,,,5d53fd59f6d6da00011209c0,6437730b15358bdc37fc85a8,2023-04-13_12h44.18.369,PRaM,2021.2.3,Win32,57.94414185,61b8f3437b89212fae0dfade
1,4.9873,space,3.334,0,325,325,203,1,,,5d53fd59f6d6da00011209c0,6437730b15358bdc37fc85a8,2023-04-13_12h44.18.369,PRaM,2021.2.3,Win32,57.94414185,61b8f3437b89212fae0dfade
1,4.4129,space,2.8857,0,326,326,67,1,,,5d53fd59f6d6da00011209c0,6437730b15358bdc37fc85a8,2023-04-13_12h44.18.369,PRaM,2021.2.3,Win32,57.94414185,61b8f3437b89212fae0dfade
4,3.9752,space,2.7318,0,327,327,119,1,,,5d53fd59f6d6da00011209c0,6437730b15358bdc37fc85a8,2023-04-13_12h44.18.369,PRaM,2021.2.3,Win32,57.94414185,61b8f3437b89212fae0dfade
1,5.2845,space,3.8123,0,328,328,125,1,,,5d53fd59f6d6da00011209c0,6437730b15358bdc37fc85a8,2023-04-13_12h44.18.369,PRaM,2021.2.3,Win32,57.94414185,61b8f3437b89212fae0dfade
1,3.3643,space,2.0918,0,329,329,235,1,,,5d53fd59f6d6da00011209c0,6437730b15358bdc37fc85a8,2023-04-13_12h44.18.369,PRaM,2021.2.3,Win32,57.94414185,61b8f3437b89212fae0dfade
1,4.1989,space,8.4881,0,330,330,202,1,,,5d53fd59f6d6da00011209c0,6437730b15358bdc37fc85a8,2023-04-13_12h44.18.369,PRaM,2021.2.3,Win32,57.94414185,61b8f3437b89212fae0dfade
5,7.1227,space,6.0569,0,331,331,364,1,,,5d53fd59f6d6da00011209c0,6437730b15358bdc37fc85a8,2023-04-13_12h44.18.369,PRaM,2021.2.3,Win32,57.94414185,61b8f3437b89212fae0dfade
1,2.8473,space,1.2799,0,332,332,266,1,,,5d53fd59f6d6da00011209c0,6437730b15358bdc37fc85a8,2023-04-13_12h44.18.369,PRaM,2021.2.3,Win32,57.94414185,61b8f3437b89212fae0dfade
3,12.9945,space,11.3432,0,333,333,370,1,,,5d53fd59f6d6da00011209c0,6437730b15358bdc37fc85a8,2023-04-13_12h44.18.369,PRaM,2021.2.3,Win32,57.94414185,61b8f3437b89212fae0dfade
6,6.2181,space,8.1176,0,334,334,127,1,,,5d53fd59f6d6da00011209c0,6437730b15358bdc37fc85a8,2023-04-13_12h44.18.369,PRaM,2021.2.3,Win32,57.94414185,61b8f3437b89212fae0dfade
4,3.456,space,2.0271,0,335,335,371,1,,,5d53fd59f6d6da00011209c0,6437730b15358bdc37fc85a8,2023-04-13_12h44.18.369,PRaM,2021.2.3,Win32,57.94414185,61b8f3437b89212fae0dfade
3,7.5695,space,5.9854,0,336,336,76,1,,,5d53fd59f6d6da00011209c0,6437730b15358bdc37fc85a8,2023-04-13_12h44.18.369,PRaM,2021.2.3,Win32,57.94414185,61b8f3437b89212fae0dfade
7,3.3402,space,1.6579,0,337,337,59,1,,,5d53fd59f6d6da00011209c0,6437730b15358bdc37fc85a8,2023-04-13_12h44.18.369,PRaM,2021.2.3,Win32,57.94414185,61b8f3437b89212fae0dfade
1,2.7704,space,1.4545,0,338,338,109,1,,,5d53fd59f6d6da00011209c0,6437730b15358bdc37fc85a8,2023-04-13_12h44.18.369,PRaM,2021.2.3,Win32,57.94414185,61b8f3437b89212fae0dfade
2,3.5813,space,1.8796,0,339,339,321,1,,,5d53fd59f6d6da00011209c0,6437730b15358bdc37fc85a8,2023-04-13_12h44.18.369,PRaM,2021.2.3,Win32,57.94414185,61b8f3437b89212fae0dfade
1,3.8703,space,2.516,0,340,340,189,1,,,5d53fd59f6d6da00011209c0,6437730b15358bdc37fc85a8,2023-04-13_12h44.18.369,PRaM,2021.2.3,Win32,57.94414185,61b8f3437b89212fae0dfade
1,13.2665,space,12.1642,0,341,341,70,1,,,5d53fd59f6d6da00011209c0,6437730b15358bdc37fc85a8,2023-04-13_12h44.18.369,PRaM,2021.2.3,Win32,57.94414185,61b8f3437b89212fae0dfade
5,4.3033,space,2.7477,0,342,342,45,1,,,5d53fd59f6d6da00011209c0,6437730b15358bdc37fc85a8,2023-04-13_12h44.18.369,PRaM,2021.2.3,Win32,57.94414185,61b8f3437b89212fae0dfade
6,3.0462,space,1.5528,0,343,343,182,1,,,5d53fd59f6d6da00011209c0,6437730b15358bdc37fc85a8,2023-04-13_12h44.18.369,PRaM,2021.2.3,Win32,57.94414185,61b8f3437b89212fae0dfade
6,4.0603,space,3.0926,0,344,344,355,1,,,5d53fd59f6d6da00011209c0,6437730b15358bdc37fc85a8,2023-04-13_12h44.18.369,PRaM,2021.2.3,Win32,57.94414185,61b8f3437b89212fae0dfade
6,3.7997,space,2.3828,0,345,345,0,1,,,5d53fd59f6d6da00011209c0,6437730b15358bdc37fc85a8,2023-04-13_12h44.18.369,PRaM,2021.2.3,Win32,57.94414185,61b8f3437b89212fae0dfade
2,4.8048,space,3.7423,0,346,346,169,1,,,5d53fd59f6d6da00011209c0,6437730b15358bdc37fc85a8,2023-04-13_12h44.18.369,PRaM,2021.2.3,Win32,57.94414185,61b8f3437b89212fae0dfade
1,2.6843,space,1.1829,0,347,347,55,1,,,5d53fd59f6d6da00011209c0,6437730b15358bdc37fc85a8,2023-04-13_12h44.18.369,PRaM,2021.2.3,Win32,57.94414185,61b8f3437b89212fae0dfade
6,3.2987,space,2.447,0,348,348,264,1,,,5d53fd59f6d6da00011209c0,6437730b15358bdc37fc85a8,2023-04-13_12h44.18.369,PRaM,2021.2.3,Win32,57.94414185,61b8f3437b89212fae0dfade
1,4.2518,space,2.7747,0,349,349,39,1,,,5d53fd59f6d6da00011209c0,6437730b15358bdc37fc85a8,2023-04-13_12h44.18.369,PRaM,2021.2.3,Win32,57.94414185,61b8f3437b89212fae0dfade
5,4.6905,space,3.1186,0,350,350,216,1,,,5d53fd59f6d6da00011209c0,6437730b15358bdc37fc85a8,2023-04-13_12h44.18.369,PRaM,2021.2.3,Win32,57.94414185,61b8f3437b89212fae0dfade
7,2.7204,space,1.1045,0,351,351,112,1,,,5d53fd59f6d6da00011209c0,6437730b15358bdc37fc85a8,2023-04-13_12h44.18.369,PRaM,2021.2.3,Win32,57.94414185,61b8f3437b89212fae0dfade
3,4.1981,space,2.7395,0,352,352,206,1,,,5d53fd59f6d6da00011209c0,6437730b15358bdc37fc85a8,2023-04-13_12h44.18.369,PRaM,2021.2.3,Win32,57.94414185,61b8f3437b89212fae0dfade
2,16.2758,space,16.0301,0,353,353,2,1,,,5d53fd59f6d6da00011209c0,6437730b15358bdc37fc85a8,2023-04-13_12h44.18.369,PRaM,2021.2.3,Win32,57.94414185,61b8f3437b89212fae0dfade
1,21.0967,space,20.0069,0,354,354,11,1,,,5d53fd59f6d6da00011209c0,6437730b15358bdc37fc85a8,2023-04-13_12h44.18.369,PRaM,2021.2.3,Win32,57.94414185,61b8f3437b89212fae0dfade
3,3.5248,space,1.9891,0,355,355,72,1,,,5d53fd59f6d6da00011209c0,6437730b15358bdc37fc85a8,2023-04-13_12h44.18.369,PRaM,2021.2.3,Win32,57.94414185,61b8f3437b89212fae0dfade
1,2.8636,space,1.2624,0,356,356,360,1,,,5d53fd59f6d6da00011209c0,6437730b15358bdc37fc85a8,2023-04-13_12h44.18.369,PRaM,2021.2.3,Win32,57.94414185,61b8f3437b89212fae0dfade
6,2.9957,space,1.5567,0,357,357,297,1,,,5d53fd59f6d6da00011209c0,6437730b15358bdc37fc85a8,2023-04-13_12h44.18.369,PRaM,2021.2.3,Win32,57.94414185,61b8f3437b89212fae0dfade
2,2.9175,space,2.3393,0,358,358,92,1,,,5d53fd59f6d6da00011209c0,6437730b15358bdc37fc85a8,2023-04-13_12h44.18.369,PRaM,2021.2.3,Win32,57.94414185,61b8f3437b89212fae0dfade
6,2.9448,space,4.7655,0,359,359,12,1,,,5d53fd59f6d6da00011209c0,6437730b15358bdc37fc85a8,2023-04-13_12h44.18.369,PRaM,2021.2.3,Win32,57.94414185,61b8f3437b89212fae0dfade
6,2.3702,space,0.725,0,360,360,351,1,,,5d53fd59f6d6da00011209c0,6437730b15358bdc37fc85a8,2023-04-13_12h44.18.369,PRaM,2021.2.3,Win32,57.94414185,61b8f3437b89212fae0dfade
6,4.5839,space,4.1182,0,361,361,205,1,,,5d53fd59f6d6da00011209c0,6437730b15358bdc37fc85a8,2023-04-13_12h44.18.369,PRaM,2021.2.3,Win32,57.94414185,61b8f3437b89212fae0dfade
1,3.9242,space,2.2741,0,362,362,97,1,,,5d53fd59f6d6da00011209c0,6437730b15358bdc37fc85a8,2023-04-13_12h44.18.369,PRaM,2021.2.3,Win32,57.94414185,61b8f3437b89212fae0dfade
6,3.3093,space,2.8909,0,363,363,114,1,,,5d53fd59f6d6da00011209c0,6437730b15358bdc37fc85a8,2023-04-13_12h44.18.369,PRaM,2021.2.3,Win32,57.94414185,61b8f3437b89212fae0dfade
2,2.683,space,1.0331,0,364,364,282,1,,,5d53fd59f6d6da00011209c0,6437730b15358bdc37fc85a8,2023-04-13_12h44.18.369,PRaM,2021.2.3,Win32,57.94414185,61b8f3437b89212fae0dfade
5,2.6649,space,1.0443,0,365,365,179,1,,,5d53fd59f6d6da00011209c0,6437730b15358bdc37fc85a8,2023-04-13_12h44.18.369,PRaM,2021.2.3,Win32,57.94414185,61b8f3437b89212fae0dfade
2,4.0234,space,10.7629,0,366,366,132,1,,,5d53fd59f6d6da00011209c0,6437730b15358bdc37fc85a8,2023-04-13_12h44.18.369,PRaM,2021.2.3,Win32,57.94414185,61b8f3437b89212fae0dfade
9,3.3139,space,1.8232,0,367,367,225,1,,,5d53fd59f6d6da00011209c0,6437730b15358bdc37fc85a8,2023-04-13_12h44.18.369,PRaM,2021.2.3,Win32,57.94414185,61b8f3437b89212fae0dfade
6,3.871,space,2.2366,0,368,368,196,1,,,5d53fd59f6d6da00011209c0,6437730b15358bdc37fc85a8,2023-04-13_12h44.18.369,PRaM,2021.2.3,Win32,57.94414185,61b8f3437b89212fae0dfade
5,4.5948,space,2.9445,0,369,369,110,1,,,5d53fd59f6d6da00011209c0,6437730b15358bdc37fc85a8,2023-04-13_12h44.18.369,PRaM,2021.2.3,Win32,57.94414185,61b8f3437b89212fae0dfade
9,3.505,space,2.0931,0,370,370,226,1,,,5d53fd59f6d6da00011209c0,6437730b15358bdc37fc85a8,2023-04-13_12h44.18.369,PRaM,2021.2.3,Win32,57.94414185,61b8f3437b89212fae0dfade
3,9.0549,space,7.4463,0,371,371,121,1,,,5d53fd59f6d6da00011209c0,6437730b15358bdc37fc85a8,2023-04-13_12h44.18.369,PRaM,2021.2.3,Win32,57.94414185,61b8f3437b89212fae0dfade
4,5.1457,space,3.6841,0,372,372,236,1,,,5d53fd59f6d6da00011209c0,6437730b15358bdc37fc85a8,2023-04-13_12h44.18.369,PRaM,2021.2.3,Win32,57.94414185,61b8f3437b89212fae0dfade
6,23.3561,space,21.9875,0,373,373,6,1,,,5d53fd59f6d6da00011209c0,6437730b15358bdc37fc85a8,2023-04-13_12h44.18.369,PRaM,2021.2.3,Win32,57.94414185,61b8f3437b89212fae0dfade
3,2.8159,space,1.2796,0,374,374,241,1,,,5d53fd59f6d6da00011209c0,6437730b15358bdc37fc85a8,2023-04-13_12h44.18.369,PRaM,2021.2.3,Win32,57.94414185,61b8f3437b89212fae0dfade
9,4.9741,space,3.6046,0,375,375,291,1,,,5d53fd59f6d6da00011209c0,6437730b15358bdc37fc85a8,2023-04-13_12h44.18.369,PRaM,2021.2.3,Win32,57.94414185,61b8f3437b89212fae0dfade
2,7.7664,space,6.2734,0,376,376,148,1,,,5d53fd59f6d6da00011209c0,6437730b15358bdc37fc85a8,2023-04-13_12h44.18.369,PRaM,2021.2.3,Win32,57.94414185,61b8f3437b89212fae0dfade
1,9.9595,space,8.5751,0,377,377,164,1,,,5d53fd59f6d6da00011209c0,6437730b15358bdc37fc85a8,2023-04-13_12h44.18.369,PRaM,2021.2.3,Win32,57.94414185,61b8f3437b89212fae0dfade
