Rating.response,Rating.rt,EndTrial.keys,EndTrial.rt,trials.thisRepN,trials.thisTrialN,trials.thisN,trials.thisIndex,trials.ran,Pos1,Pos2,participant,session,date,expName,psychopyVersion,OS,frameRate,study_id
2,2.3626,space,0.7189,0,0,0,180,1,,,5dd370b6e4bf2035a6b93643,6437835b348969c27758b244,2023-04-12_21h44.31.688,PRaM,2021.2.3,Win32,59.70149254,61b8f3437b89212fae0dfade
6,2.3259,space,0.6177,0,1,1,302,1,,,5dd370b6e4bf2035a6b93643,6437835b348969c27758b244,2023-04-12_21h44.31.688,PRaM,2021.2.3,Win32,59.70149254,61b8f3437b89212fae0dfade
2,1.4387,space,0.2007,0,2,2,333,1,,,5dd370b6e4bf2035a6b93643,6437835b348969c27758b244,2023-04-12_21h44.31.688,PRaM,2021.2.3,Win32,59.70149254,61b8f3437b89212fae0dfade
2,1.4328,space,0.1511,0,3,3,87,1,,,5dd370b6e4bf2035a6b93643,6437835b348969c27758b244,2023-04-12_21h44.31.688,PRaM,2021.2.3,Win32,59.70149254,61b8f3437b89212fae0dfade
5,1.3286,space,0.0565,0,4,4,126,1,,,5dd370b6e4bf2035a6b93643,6437835b348969c27758b244,2023-04-12_21h44.31.688,PRaM,2021.2.3,Win32,59.70149254,61b8f3437b89212fae0dfade
6,1.775,space,0.0677,0,5,5,20,1,,,5dd370b6e4bf2035a6b93643,6437835b348969c27758b244,2023-04-12_21h44.31.688,PRaM,2021.2.3,Win32,59.70149254,61b8f3437b89212fae0dfade
2,2.06,space,0.3679,0,6,6,204,1,,,5dd370b6e4bf2035a6b93643,6437835b348969c27758b244,2023-04-12_21h44.31.688,PRaM,2021.2.3,Win32,59.70149254,61b8f3437b89212fae0dfade
3,1.4266,space,0.0011,0,7,7,306,1,,,5dd370b6e4bf2035a6b93643,6437835b348969c27758b244,2023-04-12_21h44.31.688,PRaM,2021.2.3,Win32,59.70149254,61b8f3437b89212fae0dfade
2,3.2103,space,1.8023,0,8,8,199,1,,,5dd370b6e4bf2035a6b93643,6437835b348969c27758b244,2023-04-12_21h44.31.688,PRaM,2021.2.3,Win32,59.70149254,61b8f3437b89212fae0dfade
3,1.2144,space,0.2341,0,9,9,374,1,,,5dd370b6e4bf2035a6b93643,6437835b348969c27758b244,2023-04-12_21h44.31.688,PRaM,2021.2.3,Win32,59.70149254,61b8f3437b89212fae0dfade
2,2.5006,space,0.6813,0,10,10,373,1,,,5dd370b6e4bf2035a6b93643,6437835b348969c27758b244,2023-04-12_21h44.31.688,PRaM,2021.2.3,Win32,59.70149254,61b8f3437b89212fae0dfade
3,2.699,space,0.8008,0,11,11,1,1,,,5dd370b6e4bf2035a6b93643,6437835b348969c27758b244,2023-04-12_21h44.31.688,PRaM,2021.2.3,Win32,59.70149254,61b8f3437b89212fae0dfade
2,1.4456,space,0.001,0,12,12,28,1,,,5dd370b6e4bf2035a6b93643,6437835b348969c27758b244,2023-04-12_21h44.31.688,PRaM,2021.2.3,Win32,59.70149254,61b8f3437b89212fae0dfade
1,2.3606,space,0.6932,0,13,13,330,1,,,5dd370b6e4bf2035a6b93643,6437835b348969c27758b244,2023-04-12_21h44.31.688,PRaM,2021.2.3,Win32,59.70149254,61b8f3437b89212fae0dfade
1,0.879,space,0.1176,0,14,14,279,1,,,5dd370b6e4bf2035a6b93643,6437835b348969c27758b244,2023-04-12_21h44.31.688,PRaM,2021.2.3,Win32,59.70149254,61b8f3437b89212fae0dfade
1,0.7101,space,0.2334,0,15,15,191,1,,,5dd370b6e4bf2035a6b93643,6437835b348969c27758b244,2023-04-12_21h44.31.688,PRaM,2021.2.3,Win32,59.70149254,61b8f3437b89212fae0dfade
2,2.1613,space,0.5176,0,16,16,219,1,,,5dd370b6e4bf2035a6b93643,6437835b348969c27758b244,2023-04-12_21h44.31.688,PRaM,2021.2.3,Win32,59.70149254,61b8f3437b89212fae0dfade
7,3.5643,space,1.8014,0,17,17,238,1,,,5dd370b6e4bf2035a6b93643,6437835b348969c27758b244,2023-04-12_21h44.31.688,PRaM,2021.2.3,Win32,59.70149254,61b8f3437b89212fae0dfade
2,1.2612,space,0.3676,0,18,18,41,1,,,5dd370b6e4bf2035a6b93643,6437835b348969c27758b244,2023-04-12_21h44.31.688,PRaM,2021.2.3,Win32,59.70149254,61b8f3437b89212fae0dfade
1,1.9284,space,0.2221,0,19,19,68,1,,,5dd370b6e4bf2035a6b93643,6437835b348969c27758b244,2023-04-12_21h44.31.688,PRaM,2021.2.3,Win32,59.70149254,61b8f3437b89212fae0dfade
1,1.5937,space,0.2176,0,20,20,157,1,,,5dd370b6e4bf2035a6b93643,6437835b348969c27758b244,2023-04-12_21h44.31.688,PRaM,2021.2.3,Win32,59.70149254,61b8f3437b89212fae0dfade
4,1.695,space,0.2755,0,21,21,274,1,,,5dd370b6e4bf2035a6b93643,6437835b348969c27758b244,2023-04-12_21h44.31.688,PRaM,2021.2.3,Win32,59.70149254,61b8f3437b89212fae0dfade
2,1.5489,space,0.1339,0,22,22,322,1,,,5dd370b6e4bf2035a6b93643,6437835b348969c27758b244,2023-04-12_21h44.31.688,PRaM,2021.2.3,Win32,59.70149254,61b8f3437b89212fae0dfade
2,1.1282,space,0.0532,0,23,23,224,1,,,5dd370b6e4bf2035a6b93643,6437835b348969c27758b244,2023-04-12_21h44.31.688,PRaM,2021.2.3,Win32,59.70149254,61b8f3437b89212fae0dfade
9,1.5627,space,0.1668,0,24,24,222,1,,,5dd370b6e4bf2035a6b93643,6437835b348969c27758b244,2023-04-12_21h44.31.688,PRaM,2021.2.3,Win32,59.70149254,61b8f3437b89212fae0dfade
2,1.2801,space,0.1013,0,25,25,163,1,,,5dd370b6e4bf2035a6b93643,6437835b348969c27758b244,2023-04-12_21h44.31.688,PRaM,2021.2.3,Win32,59.70149254,61b8f3437b89212fae0dfade
1,1.495,space,0.0856,0,26,26,35,1,,,5dd370b6e4bf2035a6b93643,6437835b348969c27758b244,2023-04-12_21h44.31.688,PRaM,2021.2.3,Win32,59.70149254,61b8f3437b89212fae0dfade
1,1.0451,space,0.1513,0,27,27,188,1,,,5dd370b6e4bf2035a6b93643,6437835b348969c27758b244,2023-04-12_21h44.31.688,PRaM,2021.2.3,Win32,59.70149254,61b8f3437b89212fae0dfade
1,0.8115,space,0.0673,0,28,28,63,1,,,5dd370b6e4bf2035a6b93643,6437835b348969c27758b244,2023-04-12_21h44.31.688,PRaM,2021.2.3,Win32,59.70149254,61b8f3437b89212fae0dfade
2,2.0299,space,0.2845,0,29,29,165,1,,,5dd370b6e4bf2035a6b93643,6437835b348969c27758b244,2023-04-12_21h44.31.688,PRaM,2021.2.3,Win32,59.70149254,61b8f3437b89212fae0dfade
1,0.9187,space,0.3172,0,30,30,266,1,,,5dd370b6e4bf2035a6b93643,6437835b348969c27758b244,2023-04-12_21h44.31.688,PRaM,2021.2.3,Win32,59.70149254,61b8f3437b89212fae0dfade
2,0.8637,space,0.7848,0,31,31,182,1,,,5dd370b6e4bf2035a6b93643,6437835b348969c27758b244,2023-04-12_21h44.31.688,PRaM,2021.2.3,Win32,59.70149254,61b8f3437b89212fae0dfade
1,2.1289,space,0.4538,0,32,32,354,1,,,5dd370b6e4bf2035a6b93643,6437835b348969c27758b244,2023-04-12_21h44.31.688,PRaM,2021.2.3,Win32,59.70149254,61b8f3437b89212fae0dfade
5,1.6618,space,0.2842,0,33,33,196,1,,,5dd370b6e4bf2035a6b93643,6437835b348969c27758b244,2023-04-12_21h44.31.688,PRaM,2021.2.3,Win32,59.70149254,61b8f3437b89212fae0dfade
4,1.7455,space,0.1181,0,34,34,205,1,,,5dd370b6e4bf2035a6b93643,6437835b348969c27758b244,2023-04-12_21h44.31.688,PRaM,2021.2.3,Win32,59.70149254,61b8f3437b89212fae0dfade
2,1.4275,space,0.3687,0,35,35,11,1,,,5dd370b6e4bf2035a6b93643,6437835b348969c27758b244,2023-04-12_21h44.31.688,PRaM,2021.2.3,Win32,59.70149254,61b8f3437b89212fae0dfade
2,0.9285,space,0.0018,0,36,36,104,1,,,5dd370b6e4bf2035a6b93643,6437835b348969c27758b244,2023-04-12_21h44.31.688,PRaM,2021.2.3,Win32,59.70149254,61b8f3437b89212fae0dfade
7,1.7952,space,0.1176,0,37,37,102,1,,,5dd370b6e4bf2035a6b93643,6437835b348969c27758b244,2023-04-12_21h44.31.688,PRaM,2021.2.3,Win32,59.70149254,61b8f3437b89212fae0dfade
4,2.1459,space,0.4205,0,38,38,88,1,,,5dd370b6e4bf2035a6b93643,6437835b348969c27758b244,2023-04-12_21h44.31.688,PRaM,2021.2.3,Win32,59.70149254,61b8f3437b89212fae0dfade
1,7.7054,space,5.9853,0,39,39,370,1,,,5dd370b6e4bf2035a6b93643,6437835b348969c27758b244,2023-04-12_21h44.31.688,PRaM,2021.2.3,Win32,59.70149254,61b8f3437b89212fae0dfade
7,1.5107,space,0.1009,0,40,40,115,1,,,5dd370b6e4bf2035a6b93643,6437835b348969c27758b244,2023-04-12_21h44.31.688,PRaM,2021.2.3,Win32,59.70149254,61b8f3437b89212fae0dfade
7,2.6435,space,0.9011,0,41,41,98,1,,,5dd370b6e4bf2035a6b93643,6437835b348969c27758b244,2023-04-12_21h44.31.688,PRaM,2021.2.3,Win32,59.70149254,61b8f3437b89212fae0dfade
1,1.8928,space,0.0864,0,42,42,295,1,,,5dd370b6e4bf2035a6b93643,6437835b348969c27758b244,2023-04-12_21h44.31.688,PRaM,2021.2.3,Win32,59.70149254,61b8f3437b89212fae0dfade
4,2.0768,space,0.5428,0,43,43,84,1,,,5dd370b6e4bf2035a6b93643,6437835b348969c27758b244,2023-04-12_21h44.31.688,PRaM,2021.2.3,Win32,59.70149254,61b8f3437b89212fae0dfade
1,3.1773,space,1.438,0,44,44,198,1,,,5dd370b6e4bf2035a6b93643,6437835b348969c27758b244,2023-04-12_21h44.31.688,PRaM,2021.2.3,Win32,59.70149254,61b8f3437b89212fae0dfade
1,1.1103,space,0.0179,0,45,45,108,1,,,5dd370b6e4bf2035a6b93643,6437835b348969c27758b244,2023-04-12_21h44.31.688,PRaM,2021.2.3,Win32,59.70149254,61b8f3437b89212fae0dfade
1,1.1267,space,0.0843,0,46,46,130,1,,,5dd370b6e4bf2035a6b93643,6437835b348969c27758b244,2023-04-12_21h44.31.688,PRaM,2021.2.3,Win32,59.70149254,61b8f3437b89212fae0dfade
1,0.9301,space,0.2041,0,47,47,263,1,,,5dd370b6e4bf2035a6b93643,6437835b348969c27758b244,2023-04-12_21h44.31.688,PRaM,2021.2.3,Win32,59.70149254,61b8f3437b89212fae0dfade
2,1.526,space,0.3847,0,48,48,297,1,,,5dd370b6e4bf2035a6b93643,6437835b348969c27758b244,2023-04-12_21h44.31.688,PRaM,2021.2.3,Win32,59.70149254,61b8f3437b89212fae0dfade
9,4.1436,space,2.5227,0,49,49,51,1,,,5dd370b6e4bf2035a6b93643,6437835b348969c27758b244,2023-04-12_21h44.31.688,PRaM,2021.2.3,Win32,59.70149254,61b8f3437b89212fae0dfade
4,6.3265,space,4.6841,0,50,50,259,1,,,5dd370b6e4bf2035a6b93643,6437835b348969c27758b244,2023-04-12_21h44.31.688,PRaM,2021.2.3,Win32,59.70149254,61b8f3437b89212fae0dfade
3,11.9622,space,10.2868,0,51,51,314,1,,,5dd370b6e4bf2035a6b93643,6437835b348969c27758b244,2023-04-12_21h44.31.688,PRaM,2021.2.3,Win32,59.70149254,61b8f3437b89212fae0dfade
2,1.7271,space,0.2177,0,52,52,34,1,,,5dd370b6e4bf2035a6b93643,6437835b348969c27758b244,2023-04-12_21h44.31.688,PRaM,2021.2.3,Win32,59.70149254,61b8f3437b89212fae0dfade
2,1.2432,space,0.4178,0,53,53,32,1,,,5dd370b6e4bf2035a6b93643,6437835b348969c27758b244,2023-04-12_21h44.31.688,PRaM,2021.2.3,Win32,59.70149254,61b8f3437b89212fae0dfade
1,0.9772,space,0.1171,0,54,54,179,1,,,5dd370b6e4bf2035a6b93643,6437835b348969c27758b244,2023-04-12_21h44.31.688,PRaM,2021.2.3,Win32,59.70149254,61b8f3437b89212fae0dfade
2,117.4175,space,117.3114,0,55,55,85,1,,,5dd370b6e4bf2035a6b93643,6437835b348969c27758b244,2023-04-12_21h44.31.688,PRaM,2021.2.3,Win32,59.70149254,61b8f3437b89212fae0dfade
3,2.1104,space,0.419,0,56,56,148,1,,,5dd370b6e4bf2035a6b93643,6437835b348969c27758b244,2023-04-12_21h44.31.688,PRaM,2021.2.3,Win32,59.70149254,61b8f3437b89212fae0dfade
2,1.494,space,0.2513,0,57,57,69,1,,,5dd370b6e4bf2035a6b93643,6437835b348969c27758b244,2023-04-12_21h44.31.688,PRaM,2021.2.3,Win32,59.70149254,61b8f3437b89212fae0dfade
3,0.6927,space,0.1184,0,58,58,76,1,,,5dd370b6e4bf2035a6b93643,6437835b348969c27758b244,2023-04-12_21h44.31.688,PRaM,2021.2.3,Win32,59.70149254,61b8f3437b89212fae0dfade
2,1.3106,space,0.2867,0,59,59,336,1,,,5dd370b6e4bf2035a6b93643,6437835b348969c27758b244,2023-04-12_21h44.31.688,PRaM,2021.2.3,Win32,59.70149254,61b8f3437b89212fae0dfade
5,2.087,space,0.3178,0,60,60,100,1,,,5dd370b6e4bf2035a6b93643,6437835b348969c27758b244,2023-04-12_21h44.31.688,PRaM,2021.2.3,Win32,59.70149254,61b8f3437b89212fae0dfade
2,1.8103,space,0.1348,0,61,61,260,1,,,5dd370b6e4bf2035a6b93643,6437835b348969c27758b244,2023-04-12_21h44.31.688,PRaM,2021.2.3,Win32,59.70149254,61b8f3437b89212fae0dfade
2,1.2929,space,0.3179,0,62,62,143,1,,,5dd370b6e4bf2035a6b93643,6437835b348969c27758b244,2023-04-12_21h44.31.688,PRaM,2021.2.3,Win32,59.70149254,61b8f3437b89212fae0dfade
8,1.8415,space,0.2013,0,63,63,372,1,,,5dd370b6e4bf2035a6b93643,6437835b348969c27758b244,2023-04-12_21h44.31.688,PRaM,2021.2.3,Win32,59.70149254,61b8f3437b89212fae0dfade
3,1.627,space,0.1343,0,64,64,340,1,,,5dd370b6e4bf2035a6b93643,6437835b348969c27758b244,2023-04-12_21h44.31.688,PRaM,2021.2.3,Win32,59.70149254,61b8f3437b89212fae0dfade
2,1.3094,space,0.0514,0,65,65,2,1,,,5dd370b6e4bf2035a6b93643,6437835b348969c27758b244,2023-04-12_21h44.31.688,PRaM,2021.2.3,Win32,59.70149254,61b8f3437b89212fae0dfade
2,1.2086,space,0.0009,0,66,66,146,1,,,5dd370b6e4bf2035a6b93643,6437835b348969c27758b244,2023-04-12_21h44.31.688,PRaM,2021.2.3,Win32,59.70149254,61b8f3437b89212fae0dfade
2,0.841,space,0.3214,0,67,67,377,1,,,5dd370b6e4bf2035a6b93643,6437835b348969c27758b244,2023-04-12_21h44.31.688,PRaM,2021.2.3,Win32,59.70149254,61b8f3437b89212fae0dfade
2,0.7637,space,0.1508,0,68,68,62,1,,,5dd370b6e4bf2035a6b93643,6437835b348969c27758b244,2023-04-12_21h44.31.688,PRaM,2021.2.3,Win32,59.70149254,61b8f3437b89212fae0dfade
2,0.7266,space,0.3178,0,69,69,128,1,,,5dd370b6e4bf2035a6b93643,6437835b348969c27758b244,2023-04-12_21h44.31.688,PRaM,2021.2.3,Win32,59.70149254,61b8f3437b89212fae0dfade
3,0.7955,space,0.0864,0,70,70,299,1,,,5dd370b6e4bf2035a6b93643,6437835b348969c27758b244,2023-04-12_21h44.31.688,PRaM,2021.2.3,Win32,59.70149254,61b8f3437b89212fae0dfade
5,1.7936,space,0.1373,0,71,71,246,1,,,5dd370b6e4bf2035a6b93643,6437835b348969c27758b244,2023-04-12_21h44.31.688,PRaM,2021.2.3,Win32,59.70149254,61b8f3437b89212fae0dfade
3,0.7812,space,0.2836,0,72,72,292,1,,,5dd370b6e4bf2035a6b93643,6437835b348969c27758b244,2023-04-12_21h44.31.688,PRaM,2021.2.3,Win32,59.70149254,61b8f3437b89212fae0dfade
2,1.0128,space,0.1145,0,73,73,144,1,,,5dd370b6e4bf2035a6b93643,6437835b348969c27758b244,2023-04-12_21h44.31.688,PRaM,2021.2.3,Win32,59.70149254,61b8f3437b89212fae0dfade
3,2.4347,space,0.6708,0,74,74,284,1,,,5dd370b6e4bf2035a6b93643,6437835b348969c27758b244,2023-04-12_21h44.31.688,PRaM,2021.2.3,Win32,59.70149254,61b8f3437b89212fae0dfade
2,1.0132,space,0.1178,0,75,75,296,1,,,5dd370b6e4bf2035a6b93643,6437835b348969c27758b244,2023-04-12_21h44.31.688,PRaM,2021.2.3,Win32,59.70149254,61b8f3437b89212fae0dfade
3,0.8126,space,0.1551,0,76,76,164,1,,,5dd370b6e4bf2035a6b93643,6437835b348969c27758b244,2023-04-12_21h44.31.688,PRaM,2021.2.3,Win32,59.70149254,61b8f3437b89212fae0dfade
2,1.2986,space,0.0678,0,77,77,375,1,,,5dd370b6e4bf2035a6b93643,6437835b348969c27758b244,2023-04-12_21h44.31.688,PRaM,2021.2.3,Win32,59.70149254,61b8f3437b89212fae0dfade
6,1.6939,space,0.2106,0,78,78,323,1,,,5dd370b6e4bf2035a6b93643,6437835b348969c27758b244,2023-04-12_21h44.31.688,PRaM,2021.2.3,Win32,59.70149254,61b8f3437b89212fae0dfade
6,1.1385,space,0.2913,0,79,79,326,1,,,5dd370b6e4bf2035a6b93643,6437835b348969c27758b244,2023-04-12_21h44.31.688,PRaM,2021.2.3,Win32,59.70149254,61b8f3437b89212fae0dfade
4,0.824,space,0.0248,0,80,80,19,1,,,5dd370b6e4bf2035a6b93643,6437835b348969c27758b244,2023-04-12_21h44.31.688,PRaM,2021.2.3,Win32,59.70149254,61b8f3437b89212fae0dfade
3,1.0807,space,0.2605,0,81,81,93,1,,,5dd370b6e4bf2035a6b93643,6437835b348969c27758b244,2023-04-12_21h44.31.688,PRaM,2021.2.3,Win32,59.70149254,61b8f3437b89212fae0dfade
2,0.672,space,0.1226,0,82,82,145,1,,,5dd370b6e4bf2035a6b93643,6437835b348969c27758b244,2023-04-12_21h44.31.688,PRaM,2021.2.3,Win32,59.70149254,61b8f3437b89212fae0dfade
2,2.1272,space,0.4087,0,83,83,131,1,,,5dd370b6e4bf2035a6b93643,6437835b348969c27758b244,2023-04-12_21h44.31.688,PRaM,2021.2.3,Win32,59.70149254,61b8f3437b89212fae0dfade
2,1.8932,space,0.2345,0,84,84,43,1,,,5dd370b6e4bf2035a6b93643,6437835b348969c27758b244,2023-04-12_21h44.31.688,PRaM,2021.2.3,Win32,59.70149254,61b8f3437b89212fae0dfade
2,2.5605,space,0.7843,0,85,85,291,1,,,5dd370b6e4bf2035a6b93643,6437835b348969c27758b244,2023-04-12_21h44.31.688,PRaM,2021.2.3,Win32,59.70149254,61b8f3437b89212fae0dfade
2,1.2603,space,0.3349,0,86,86,250,1,,,5dd370b6e4bf2035a6b93643,6437835b348969c27758b244,2023-04-12_21h44.31.688,PRaM,2021.2.3,Win32,59.70149254,61b8f3437b89212fae0dfade
1,2.4811,space,0.783,0,87,87,117,1,,,5dd370b6e4bf2035a6b93643,6437835b348969c27758b244,2023-04-12_21h44.31.688,PRaM,2021.2.3,Win32,59.70149254,61b8f3437b89212fae0dfade
2,1.6269,space,0.254,0,88,88,86,1,,,5dd370b6e4bf2035a6b93643,6437835b348969c27758b244,2023-04-12_21h44.31.688,PRaM,2021.2.3,Win32,59.70149254,61b8f3437b89212fae0dfade
1,1.4302,space,0.0668,0,89,89,183,1,,,5dd370b6e4bf2035a6b93643,6437835b348969c27758b244,2023-04-12_21h44.31.688,PRaM,2021.2.3,Win32,59.70149254,61b8f3437b89212fae0dfade
2,2.0159,space,0.3506,0,90,90,0,1,,,5dd370b6e4bf2035a6b93643,6437835b348969c27758b244,2023-04-12_21h44.31.688,PRaM,2021.2.3,Win32,59.70149254,61b8f3437b89212fae0dfade
2,0.9949,space,0.4723,0,91,91,268,1,,,5dd370b6e4bf2035a6b93643,6437835b348969c27758b244,2023-04-12_21h44.31.688,PRaM,2021.2.3,Win32,59.70149254,61b8f3437b89212fae0dfade
9,3.5753,space,1.8338,0,92,92,137,1,,,5dd370b6e4bf2035a6b93643,6437835b348969c27758b244,2023-04-12_21h44.31.688,PRaM,2021.2.3,Win32,59.70149254,61b8f3437b89212fae0dfade
3,1.211,space,0.0204,0,93,93,315,1,,,5dd370b6e4bf2035a6b93643,6437835b348969c27758b244,2023-04-12_21h44.31.688,PRaM,2021.2.3,Win32,59.70149254,61b8f3437b89212fae0dfade
5,1.611,space,0.0333,0,94,94,211,1,,,5dd370b6e4bf2035a6b93643,6437835b348969c27758b244,2023-04-12_21h44.31.688,PRaM,2021.2.3,Win32,59.70149254,61b8f3437b89212fae0dfade
4,2.1125,space,0.4345,0,95,95,66,1,,,5dd370b6e4bf2035a6b93643,6437835b348969c27758b244,2023-04-12_21h44.31.688,PRaM,2021.2.3,Win32,59.70149254,61b8f3437b89212fae0dfade
2,1.5272,space,0.2362,0,96,96,344,1,,,5dd370b6e4bf2035a6b93643,6437835b348969c27758b244,2023-04-12_21h44.31.688,PRaM,2021.2.3,Win32,59.70149254,61b8f3437b89212fae0dfade
3,1.6773,space,0.2441,0,97,97,341,1,,,5dd370b6e4bf2035a6b93643,6437835b348969c27758b244,2023-04-12_21h44.31.688,PRaM,2021.2.3,Win32,59.70149254,61b8f3437b89212fae0dfade
2,1.0119,space,2.2338,0,98,98,346,1,,,5dd370b6e4bf2035a6b93643,6437835b348969c27758b244,2023-04-12_21h44.31.688,PRaM,2021.2.3,Win32,59.70149254,61b8f3437b89212fae0dfade
3,1.7338,space,0.3038,0,99,99,154,1,,,5dd370b6e4bf2035a6b93643,6437835b348969c27758b244,2023-04-12_21h44.31.688,PRaM,2021.2.3,Win32,59.70149254,61b8f3437b89212fae0dfade
1,2.3328,space,0.594,0,100,100,212,1,,,5dd370b6e4bf2035a6b93643,6437835b348969c27758b244,2023-04-12_21h44.31.688,PRaM,2021.2.3,Win32,59.70149254,61b8f3437b89212fae0dfade
5,1.6105,space,0.3015,0,101,101,105,1,,,5dd370b6e4bf2035a6b93643,6437835b348969c27758b244,2023-04-12_21h44.31.688,PRaM,2021.2.3,Win32,59.70149254,61b8f3437b89212fae0dfade
3,0.9438,space,0.284,0,102,102,230,1,,,5dd370b6e4bf2035a6b93643,6437835b348969c27758b244,2023-04-12_21h44.31.688,PRaM,2021.2.3,Win32,59.70149254,61b8f3437b89212fae0dfade
6,1.6609,space,0.0508,0,103,103,352,1,,,5dd370b6e4bf2035a6b93643,6437835b348969c27758b244,2023-04-12_21h44.31.688,PRaM,2021.2.3,Win32,59.70149254,61b8f3437b89212fae0dfade
5,1.1841,space,0.2357,0,104,104,120,1,,,5dd370b6e4bf2035a6b93643,6437835b348969c27758b244,2023-04-12_21h44.31.688,PRaM,2021.2.3,Win32,59.70149254,61b8f3437b89212fae0dfade
1,1.4276,space,0.1013,0,105,105,107,1,,,5dd370b6e4bf2035a6b93643,6437835b348969c27758b244,2023-04-12_21h44.31.688,PRaM,2021.2.3,Win32,59.70149254,61b8f3437b89212fae0dfade
2,1.0109,space,0.2843,0,106,106,81,1,,,5dd370b6e4bf2035a6b93643,6437835b348969c27758b244,2023-04-12_21h44.31.688,PRaM,2021.2.3,Win32,59.70149254,61b8f3437b89212fae0dfade
2,1.9106,space,0.1326,0,107,107,223,1,,,5dd370b6e4bf2035a6b93643,6437835b348969c27758b244,2023-04-12_21h44.31.688,PRaM,2021.2.3,Win32,59.70149254,61b8f3437b89212fae0dfade
2,0.7433,space,0.1337,0,108,108,168,1,,,5dd370b6e4bf2035a6b93643,6437835b348969c27758b244,2023-04-12_21h44.31.688,PRaM,2021.2.3,Win32,59.70149254,61b8f3437b89212fae0dfade
8,1.7117,space,0.0453,0,109,109,114,1,,,5dd370b6e4bf2035a6b93643,6437835b348969c27758b244,2023-04-12_21h44.31.688,PRaM,2021.2.3,Win32,59.70149254,61b8f3437b89212fae0dfade
9,1.8901,space,0.108,0,110,110,285,1,,,5dd370b6e4bf2035a6b93643,6437835b348969c27758b244,2023-04-12_21h44.31.688,PRaM,2021.2.3,Win32,59.70149254,61b8f3437b89212fae0dfade
2,1.3448,space,0.0234,0,111,111,365,1,,,5dd370b6e4bf2035a6b93643,6437835b348969c27758b244,2023-04-12_21h44.31.688,PRaM,2021.2.3,Win32,59.70149254,61b8f3437b89212fae0dfade
4,2.092,space,0.2693,0,112,112,166,1,,,5dd370b6e4bf2035a6b93643,6437835b348969c27758b244,2023-04-12_21h44.31.688,PRaM,2021.2.3,Win32,59.70149254,61b8f3437b89212fae0dfade
4,2.646,space,0.9842,0,113,113,52,1,,,5dd370b6e4bf2035a6b93643,6437835b348969c27758b244,2023-04-12_21h44.31.688,PRaM,2021.2.3,Win32,59.70149254,61b8f3437b89212fae0dfade
3,1.7607,space,0.2667,0,114,114,151,1,,,5dd370b6e4bf2035a6b93643,6437835b348969c27758b244,2023-04-12_21h44.31.688,PRaM,2021.2.3,Win32,59.70149254,61b8f3437b89212fae0dfade
4,2.3837,space,0.5539,0,115,115,140,1,,,5dd370b6e4bf2035a6b93643,6437835b348969c27758b244,2023-04-12_21h44.31.688,PRaM,2021.2.3,Win32,59.70149254,61b8f3437b89212fae0dfade
3,2.1275,space,0.2349,0,116,116,216,1,,,5dd370b6e4bf2035a6b93643,6437835b348969c27758b244,2023-04-12_21h44.31.688,PRaM,2021.2.3,Win32,59.70149254,61b8f3437b89212fae0dfade
3,0.8261,space,0.304,0,117,117,265,1,,,5dd370b6e4bf2035a6b93643,6437835b348969c27758b244,2023-04-12_21h44.31.688,PRaM,2021.2.3,Win32,59.70149254,61b8f3437b89212fae0dfade
3,4.5051,space,2.8007,0,118,118,187,1,,,5dd370b6e4bf2035a6b93643,6437835b348969c27758b244,2023-04-12_21h44.31.688,PRaM,2021.2.3,Win32,59.70149254,61b8f3437b89212fae0dfade
3,0.8306,space,0.0692,0,119,119,242,1,,,5dd370b6e4bf2035a6b93643,6437835b348969c27758b244,2023-04-12_21h44.31.688,PRaM,2021.2.3,Win32,59.70149254,61b8f3437b89212fae0dfade
3,0.9435,space,0.1681,0,120,120,57,1,,,5dd370b6e4bf2035a6b93643,6437835b348969c27758b244,2023-04-12_21h44.31.688,PRaM,2021.2.3,Win32,59.70149254,61b8f3437b89212fae0dfade
3,1.1264,space,0.1718,0,121,121,217,1,,,5dd370b6e4bf2035a6b93643,6437835b348969c27758b244,2023-04-12_21h44.31.688,PRaM,2021.2.3,Win32,59.70149254,61b8f3437b89212fae0dfade
2,1.3445,space,0.3687,0,122,122,23,1,,,5dd370b6e4bf2035a6b93643,6437835b348969c27758b244,2023-04-12_21h44.31.688,PRaM,2021.2.3,Win32,59.70149254,61b8f3437b89212fae0dfade
2,0.8931,space,0.0341,0,123,123,167,1,,,5dd370b6e4bf2035a6b93643,6437835b348969c27758b244,2023-04-12_21h44.31.688,PRaM,2021.2.3,Win32,59.70149254,61b8f3437b89212fae0dfade
3,0.7096,space,0.318,0,124,124,234,1,,,5dd370b6e4bf2035a6b93643,6437835b348969c27758b244,2023-04-12_21h44.31.688,PRaM,2021.2.3,Win32,59.70149254,61b8f3437b89212fae0dfade
6,1.679,space,0.0009,0,125,125,261,1,,,5dd370b6e4bf2035a6b93643,6437835b348969c27758b244,2023-04-12_21h44.31.688,PRaM,2021.2.3,Win32,59.70149254,61b8f3437b89212fae0dfade
6,1.5454,space,0.2196,0,126,126,194,1,,,5dd370b6e4bf2035a6b93643,6437835b348969c27758b244,2023-04-12_21h44.31.688,PRaM,2021.2.3,Win32,59.70149254,61b8f3437b89212fae0dfade
2,1.8149,space,0.0174,0,127,127,160,1,,,5dd370b6e4bf2035a6b93643,6437835b348969c27758b244,2023-04-12_21h44.31.688,PRaM,2021.2.3,Win32,59.70149254,61b8f3437b89212fae0dfade
8,1.4611,space,0.1019,0,128,128,136,1,,,5dd370b6e4bf2035a6b93643,6437835b348969c27758b244,2023-04-12_21h44.31.688,PRaM,2021.2.3,Win32,59.70149254,61b8f3437b89212fae0dfade
2,1.2302,space,0.1014,0,129,129,65,1,,,5dd370b6e4bf2035a6b93643,6437835b348969c27758b244,2023-04-12_21h44.31.688,PRaM,2021.2.3,Win32,59.70149254,61b8f3437b89212fae0dfade
1,1.4457,space,0.2849,0,130,130,338,1,,,5dd370b6e4bf2035a6b93643,6437835b348969c27758b244,2023-04-12_21h44.31.688,PRaM,2021.2.3,Win32,59.70149254,61b8f3437b89212fae0dfade
2,2.0265,space,0.2195,0,131,131,236,1,,,5dd370b6e4bf2035a6b93643,6437835b348969c27758b244,2023-04-12_21h44.31.688,PRaM,2021.2.3,Win32,59.70149254,61b8f3437b89212fae0dfade
2,1.1452,space,7.8842,0,132,132,55,1,,,5dd370b6e4bf2035a6b93643,6437835b348969c27758b244,2023-04-12_21h44.31.688,PRaM,2021.2.3,Win32,59.70149254,61b8f3437b89212fae0dfade
2,1.0674,space,0.0339,0,133,133,215,1,,,5dd370b6e4bf2035a6b93643,6437835b348969c27758b244,2023-04-12_21h44.31.688,PRaM,2021.2.3,Win32,59.70149254,61b8f3437b89212fae0dfade
2,2.0114,space,1.5201,0,134,134,369,1,,,5dd370b6e4bf2035a6b93643,6437835b348969c27758b244,2023-04-12_21h44.31.688,PRaM,2021.2.3,Win32,59.70149254,61b8f3437b89212fae0dfade
2,4.9376,space,3.2852,0,135,135,249,1,,,5dd370b6e4bf2035a6b93643,6437835b348969c27758b244,2023-04-12_21h44.31.688,PRaM,2021.2.3,Win32,59.70149254,61b8f3437b89212fae0dfade
2,1.7122,space,0.3348,0,136,136,133,1,,,5dd370b6e4bf2035a6b93643,6437835b348969c27758b244,2023-04-12_21h44.31.688,PRaM,2021.2.3,Win32,59.70149254,61b8f3437b89212fae0dfade
2,1.9102,space,0.0841,0,137,137,240,1,,,5dd370b6e4bf2035a6b93643,6437835b348969c27758b244,2023-04-12_21h44.31.688,PRaM,2021.2.3,Win32,59.70149254,61b8f3437b89212fae0dfade
2,1.0116,space,0.0169,0,138,138,9,1,,,5dd370b6e4bf2035a6b93643,6437835b348969c27758b244,2023-04-12_21h44.31.688,PRaM,2021.2.3,Win32,59.70149254,61b8f3437b89212fae0dfade
2,1.2006,space,0.2521,0,139,139,327,1,,,5dd370b6e4bf2035a6b93643,6437835b348969c27758b244,2023-04-12_21h44.31.688,PRaM,2021.2.3,Win32,59.70149254,61b8f3437b89212fae0dfade
2,1.048,space,0.2359,0,140,140,116,1,,,5dd370b6e4bf2035a6b93643,6437835b348969c27758b244,2023-04-12_21h44.31.688,PRaM,2021.2.3,Win32,59.70149254,61b8f3437b89212fae0dfade
6,1.8777,space,0.1346,0,141,141,304,1,,,5dd370b6e4bf2035a6b93643,6437835b348969c27758b244,2023-04-12_21h44.31.688,PRaM,2021.2.3,Win32,59.70149254,61b8f3437b89212fae0dfade
4,1.4464,space,0.0242,0,142,142,349,1,,,5dd370b6e4bf2035a6b93643,6437835b348969c27758b244,2023-04-12_21h44.31.688,PRaM,2021.2.3,Win32,59.70149254,61b8f3437b89212fae0dfade
3,2.1646,space,0.417,0,143,143,178,1,,,5dd370b6e4bf2035a6b93643,6437835b348969c27758b244,2023-04-12_21h44.31.688,PRaM,2021.2.3,Win32,59.70149254,61b8f3437b89212fae0dfade
3,0.911,space,0.1047,0,144,144,33,1,,,5dd370b6e4bf2035a6b93643,6437835b348969c27758b244,2023-04-12_21h44.31.688,PRaM,2021.2.3,Win32,59.70149254,61b8f3437b89212fae0dfade
2,0.7931,space,0.2384,0,145,145,203,1,,,5dd370b6e4bf2035a6b93643,6437835b348969c27758b244,2023-04-12_21h44.31.688,PRaM,2021.2.3,Win32,59.70149254,61b8f3437b89212fae0dfade
2,0.6618,space,0.0526,0,146,146,121,1,,,5dd370b6e4bf2035a6b93643,6437835b348969c27758b244,2023-04-12_21h44.31.688,PRaM,2021.2.3,Win32,59.70149254,61b8f3437b89212fae0dfade
8,1.7285,space,0.0344,0,147,147,301,1,,,5dd370b6e4bf2035a6b93643,6437835b348969c27758b244,2023-04-12_21h44.31.688,PRaM,2021.2.3,Win32,59.70149254,61b8f3437b89212fae0dfade
2,1.1777,space,0.1719,0,148,148,213,1,,,5dd370b6e4bf2035a6b93643,6437835b348969c27758b244,2023-04-12_21h44.31.688,PRaM,2021.2.3,Win32,59.70149254,61b8f3437b89212fae0dfade
6,3.0684,space,1.251,0,149,149,307,1,,,5dd370b6e4bf2035a6b93643,6437835b348969c27758b244,2023-04-12_21h44.31.688,PRaM,2021.2.3,Win32,59.70149254,61b8f3437b89212fae0dfade
5,1.2099,space,0.1555,0,150,150,254,1,,,5dd370b6e4bf2035a6b93643,6437835b348969c27758b244,2023-04-12_21h44.31.688,PRaM,2021.2.3,Win32,59.70149254,61b8f3437b89212fae0dfade
3,1.7432,space,0.3389,0,151,151,170,1,,,5dd370b6e4bf2035a6b93643,6437835b348969c27758b244,2023-04-12_21h44.31.688,PRaM,2021.2.3,Win32,59.70149254,61b8f3437b89212fae0dfade
2,1.56,space,0.3176,0,152,152,8,1,,,5dd370b6e4bf2035a6b93643,6437835b348969c27758b244,2023-04-12_21h44.31.688,PRaM,2021.2.3,Win32,59.70149254,61b8f3437b89212fae0dfade
2,1.1104,space,0.1847,0,153,153,162,1,,,5dd370b6e4bf2035a6b93643,6437835b348969c27758b244,2023-04-12_21h44.31.688,PRaM,2021.2.3,Win32,59.70149254,61b8f3437b89212fae0dfade
2,0.7191,space,0.3337,0,154,154,252,1,,,5dd370b6e4bf2035a6b93643,6437835b348969c27758b244,2023-04-12_21h44.31.688,PRaM,2021.2.3,Win32,59.70149254,61b8f3437b89212fae0dfade
2,0.7589,space,0.2218,0,155,155,283,1,,,5dd370b6e4bf2035a6b93643,6437835b348969c27758b244,2023-04-12_21h44.31.688,PRaM,2021.2.3,Win32,59.70149254,61b8f3437b89212fae0dfade
2,0.8107,space,0.1012,0,156,156,119,1,,,5dd370b6e4bf2035a6b93643,6437835b348969c27758b244,2023-04-12_21h44.31.688,PRaM,2021.2.3,Win32,59.70149254,61b8f3437b89212fae0dfade
2,0.6767,space,1.2847,0,157,157,123,1,,,5dd370b6e4bf2035a6b93643,6437835b348969c27758b244,2023-04-12_21h44.31.688,PRaM,2021.2.3,Win32,59.70149254,61b8f3437b89212fae0dfade
2,0.9097,space,0.1166,0,158,158,324,1,,,5dd370b6e4bf2035a6b93643,6437835b348969c27758b244,2023-04-12_21h44.31.688,PRaM,2021.2.3,Win32,59.70149254,61b8f3437b89212fae0dfade
2,0.7807,space,0.4866,0,159,159,258,1,,,5dd370b6e4bf2035a6b93643,6437835b348969c27758b244,2023-04-12_21h44.31.688,PRaM,2021.2.3,Win32,59.70149254,61b8f3437b89212fae0dfade
3,3.1483,space,1.3692,0,160,160,305,1,,,5dd370b6e4bf2035a6b93643,6437835b348969c27758b244,2023-04-12_21h44.31.688,PRaM,2021.2.3,Win32,59.70149254,61b8f3437b89212fae0dfade
2,1.1635,space,0.3339,0,161,161,298,1,,,5dd370b6e4bf2035a6b93643,6437835b348969c27758b244,2023-04-12_21h44.31.688,PRaM,2021.2.3,Win32,59.70149254,61b8f3437b89212fae0dfade
2,0.9276,space,0.618,0,162,162,36,1,,,5dd370b6e4bf2035a6b93643,6437835b348969c27758b244,2023-04-12_21h44.31.688,PRaM,2021.2.3,Win32,59.70149254,61b8f3437b89212fae0dfade
1,1.0348,space,0.454,0,163,163,125,1,,,5dd370b6e4bf2035a6b93643,6437835b348969c27758b244,2023-04-12_21h44.31.688,PRaM,2021.2.3,Win32,59.70149254,61b8f3437b89212fae0dfade
1,0.798,space,0.6698,0,164,164,27,1,,,5dd370b6e4bf2035a6b93643,6437835b348969c27758b244,2023-04-12_21h44.31.688,PRaM,2021.2.3,Win32,59.70149254,61b8f3437b89212fae0dfade
4,1.8234,space,0.1167,0,165,165,150,1,,,5dd370b6e4bf2035a6b93643,6437835b348969c27758b244,2023-04-12_21h44.31.688,PRaM,2021.2.3,Win32,59.70149254,61b8f3437b89212fae0dfade
5,1.7189,space,0.3176,0,166,166,3,1,,,5dd370b6e4bf2035a6b93643,6437835b348969c27758b244,2023-04-12_21h44.31.688,PRaM,2021.2.3,Win32,59.70149254,61b8f3437b89212fae0dfade
3,1.4439,space,0.1513,0,167,167,39,1,,,5dd370b6e4bf2035a6b93643,6437835b348969c27758b244,2023-04-12_21h44.31.688,PRaM,2021.2.3,Win32,59.70149254,61b8f3437b89212fae0dfade
3,1.3766,space,0.4518,0,168,168,362,1,,,5dd370b6e4bf2035a6b93643,6437835b348969c27758b244,2023-04-12_21h44.31.688,PRaM,2021.2.3,Win32,59.70149254,61b8f3437b89212fae0dfade
2,1.0979,space,0.3679,0,169,169,300,1,,,5dd370b6e4bf2035a6b93643,6437835b348969c27758b244,2023-04-12_21h44.31.688,PRaM,2021.2.3,Win32,59.70149254,61b8f3437b89212fae0dfade
5,1.9264,space,0.1697,0,170,170,25,1,,,5dd370b6e4bf2035a6b93643,6437835b348969c27758b244,2023-04-12_21h44.31.688,PRaM,2021.2.3,Win32,59.70149254,61b8f3437b89212fae0dfade
4,2.506,space,0.7682,0,171,171,94,1,,,5dd370b6e4bf2035a6b93643,6437835b348969c27758b244,2023-04-12_21h44.31.688,PRaM,2021.2.3,Win32,59.70149254,61b8f3437b89212fae0dfade
3,1.1945,space,0.4846,0,172,172,272,1,,,5dd370b6e4bf2035a6b93643,6437835b348969c27758b244,2023-04-12_21h44.31.688,PRaM,2021.2.3,Win32,59.70149254,61b8f3437b89212fae0dfade
2,1.6461,space,0.3546,0,173,173,313,1,,,5dd370b6e4bf2035a6b93643,6437835b348969c27758b244,2023-04-12_21h44.31.688,PRaM,2021.2.3,Win32,59.70149254,61b8f3437b89212fae0dfade
2,10.1948,space,8.6629,0,174,174,141,1,,,5dd370b6e4bf2035a6b93643,6437835b348969c27758b244,2023-04-12_21h44.31.688,PRaM,2021.2.3,Win32,59.70149254,61b8f3437b89212fae0dfade
3,1.1943,space,0.6512,0,175,175,286,1,,,5dd370b6e4bf2035a6b93643,6437835b348969c27758b244,2023-04-12_21h44.31.688,PRaM,2021.2.3,Win32,59.70149254,61b8f3437b89212fae0dfade
2,1.2106,space,0.3712,0,176,176,77,1,,,5dd370b6e4bf2035a6b93643,6437835b348969c27758b244,2023-04-12_21h44.31.688,PRaM,2021.2.3,Win32,59.70149254,61b8f3437b89212fae0dfade
2,0.9097,space,0.7344,0,177,177,175,1,,,5dd370b6e4bf2035a6b93643,6437835b348969c27758b244,2023-04-12_21h44.31.688,PRaM,2021.2.3,Win32,59.70149254,61b8f3437b89212fae0dfade
2,2.363,space,0.5513,0,178,178,218,1,,,5dd370b6e4bf2035a6b93643,6437835b348969c27758b244,2023-04-12_21h44.31.688,PRaM,2021.2.3,Win32,59.70149254,61b8f3437b89212fae0dfade
4,3.7311,space,2.034,0,179,179,197,1,,,5dd370b6e4bf2035a6b93643,6437835b348969c27758b244,2023-04-12_21h44.31.688,PRaM,2021.2.3,Win32,59.70149254,61b8f3437b89212fae0dfade
1,2.0603,space,0.2846,0,180,180,91,1,,,5dd370b6e4bf2035a6b93643,6437835b348969c27758b244,2023-04-12_21h44.31.688,PRaM,2021.2.3,Win32,59.70149254,61b8f3437b89212fae0dfade
3,2.3917,space,0.7177,0,181,181,74,1,,,5dd370b6e4bf2035a6b93643,6437835b348969c27758b244,2023-04-12_21h44.31.688,PRaM,2021.2.3,Win32,59.70149254,61b8f3437b89212fae0dfade
1,2.1646,space,0.5094,0,182,182,262,1,,,5dd370b6e4bf2035a6b93643,6437835b348969c27758b244,2023-04-12_21h44.31.688,PRaM,2021.2.3,Win32,59.70149254,61b8f3437b89212fae0dfade
1,1.177,space,0.3345,0,183,183,73,1,,,5dd370b6e4bf2035a6b93643,6437835b348969c27758b244,2023-04-12_21h44.31.688,PRaM,2021.2.3,Win32,59.70149254,61b8f3437b89212fae0dfade
1,3.1554,space,2.0679,0,184,184,90,1,,,5dd370b6e4bf2035a6b93643,6437835b348969c27758b244,2023-04-12_21h44.31.688,PRaM,2021.2.3,Win32,59.70149254,61b8f3437b89212fae0dfade
2,2.6811,space,0.9544,0,185,185,321,1,,,5dd370b6e4bf2035a6b93643,6437835b348969c27758b244,2023-04-12_21h44.31.688,PRaM,2021.2.3,Win32,59.70149254,61b8f3437b89212fae0dfade
1,2.1289,space,0.4175,0,186,186,312,1,,,5dd370b6e4bf2035a6b93643,6437835b348969c27758b244,2023-04-12_21h44.31.688,PRaM,2021.2.3,Win32,59.70149254,61b8f3437b89212fae0dfade
2,1.9455,space,0.1188,0,187,187,281,1,,,5dd370b6e4bf2035a6b93643,6437835b348969c27758b244,2023-04-12_21h44.31.688,PRaM,2021.2.3,Win32,59.70149254,61b8f3437b89212fae0dfade
1,1.5119,space,0.2476,0,188,188,348,1,,,5dd370b6e4bf2035a6b93643,6437835b348969c27758b244,2023-04-12_21h44.31.688,PRaM,2021.2.3,Win32,59.70149254,61b8f3437b89212fae0dfade
2,1.6144,space,0.3173,0,189,189,293,1,,,5dd370b6e4bf2035a6b93643,6437835b348969c27758b244,2023-04-12_21h44.31.688,PRaM,2021.2.3,Win32,59.70149254,61b8f3437b89212fae0dfade
1,1.7469,space,0.3361,0,190,190,44,1,,,5dd370b6e4bf2035a6b93643,6437835b348969c27758b244,2023-04-12_21h44.31.688,PRaM,2021.2.3,Win32,59.70149254,61b8f3437b89212fae0dfade
3,1.9977,space,0.3526,0,191,191,186,1,,,5dd370b6e4bf2035a6b93643,6437835b348969c27758b244,2023-04-12_21h44.31.688,PRaM,2021.2.3,Win32,59.70149254,61b8f3437b89212fae0dfade
7,1.8281,space,0.201,0,192,192,42,1,,,5dd370b6e4bf2035a6b93643,6437835b348969c27758b244,2023-04-12_21h44.31.688,PRaM,2021.2.3,Win32,59.70149254,61b8f3437b89212fae0dfade
6,2.1114,space,0.401,0,193,193,225,1,,,5dd370b6e4bf2035a6b93643,6437835b348969c27758b244,2023-04-12_21h44.31.688,PRaM,2021.2.3,Win32,59.70149254,61b8f3437b89212fae0dfade
3,1.5455,space,0.2014,0,194,194,371,1,,,5dd370b6e4bf2035a6b93643,6437835b348969c27758b244,2023-04-12_21h44.31.688,PRaM,2021.2.3,Win32,59.70149254,61b8f3437b89212fae0dfade
3,1.429,space,0.0853,0,195,195,256,1,,,5dd370b6e4bf2035a6b93643,6437835b348969c27758b244,2023-04-12_21h44.31.688,PRaM,2021.2.3,Win32,59.70149254,61b8f3437b89212fae0dfade
2,1.8116,space,0.117,0,196,196,181,1,,,5dd370b6e4bf2035a6b93643,6437835b348969c27758b244,2023-04-12_21h44.31.688,PRaM,2021.2.3,Win32,59.70149254,61b8f3437b89212fae0dfade
2,1.347,space,0.034,0,197,197,82,1,,,5dd370b6e4bf2035a6b93643,6437835b348969c27758b244,2023-04-12_21h44.31.688,PRaM,2021.2.3,Win32,59.70149254,61b8f3437b89212fae0dfade
3,1.3118,space,1.4344,0,198,198,134,1,,,5dd370b6e4bf2035a6b93643,6437835b348969c27758b244,2023-04-12_21h44.31.688,PRaM,2021.2.3,Win32,59.70149254,61b8f3437b89212fae0dfade
2,1.1453,space,0.2345,0,199,199,10,1,,,5dd370b6e4bf2035a6b93643,6437835b348969c27758b244,2023-04-12_21h44.31.688,PRaM,2021.2.3,Win32,59.70149254,61b8f3437b89212fae0dfade
2,2.1108,space,0.2517,0,200,200,347,1,,,5dd370b6e4bf2035a6b93643,6437835b348969c27758b244,2023-04-12_21h44.31.688,PRaM,2021.2.3,Win32,59.70149254,61b8f3437b89212fae0dfade
2,0.9622,space,0.0013,0,201,201,237,1,,,5dd370b6e4bf2035a6b93643,6437835b348969c27758b244,2023-04-12_21h44.31.688,PRaM,2021.2.3,Win32,59.70149254,61b8f3437b89212fae0dfade
2,0.8786,space,0.1681,0,202,202,311,1,,,5dd370b6e4bf2035a6b93643,6437835b348969c27758b244,2023-04-12_21h44.31.688,PRaM,2021.2.3,Win32,59.70149254,61b8f3437b89212fae0dfade
3,2.0616,space,0.2017,0,203,203,61,1,,,5dd370b6e4bf2035a6b93643,6437835b348969c27758b244,2023-04-12_21h44.31.688,PRaM,2021.2.3,Win32,59.70149254,61b8f3437b89212fae0dfade
4,1.9945,space,0.269,0,204,204,273,1,,,5dd370b6e4bf2035a6b93643,6437835b348969c27758b244,2023-04-12_21h44.31.688,PRaM,2021.2.3,Win32,59.70149254,61b8f3437b89212fae0dfade
3,0.9451,space,0.084,0,205,205,350,1,,,5dd370b6e4bf2035a6b93643,6437835b348969c27758b244,2023-04-12_21h44.31.688,PRaM,2021.2.3,Win32,59.70149254,61b8f3437b89212fae0dfade
3,1.5613,space,0.0342,0,206,206,309,1,,,5dd370b6e4bf2035a6b93643,6437835b348969c27758b244,2023-04-12_21h44.31.688,PRaM,2021.2.3,Win32,59.70149254,61b8f3437b89212fae0dfade
2,1.0799,space,0.3862,0,207,207,195,1,,,5dd370b6e4bf2035a6b93643,6437835b348969c27758b244,2023-04-12_21h44.31.688,PRaM,2021.2.3,Win32,59.70149254,61b8f3437b89212fae0dfade
2,0.9122,space,0.2844,0,208,208,129,1,,,5dd370b6e4bf2035a6b93643,6437835b348969c27758b244,2023-04-12_21h44.31.688,PRaM,2021.2.3,Win32,59.70149254,61b8f3437b89212fae0dfade
2,0.7784,space,0.201,0,209,209,15,1,,,5dd370b6e4bf2035a6b93643,6437835b348969c27758b244,2023-04-12_21h44.31.688,PRaM,2021.2.3,Win32,59.70149254,61b8f3437b89212fae0dfade
2,1.0453,space,0.0027,0,210,210,303,1,,,5dd370b6e4bf2035a6b93643,6437835b348969c27758b244,2023-04-12_21h44.31.688,PRaM,2021.2.3,Win32,59.70149254,61b8f3437b89212fae0dfade
2,0.8951,space,0.2012,0,211,211,184,1,,,5dd370b6e4bf2035a6b93643,6437835b348969c27758b244,2023-04-12_21h44.31.688,PRaM,2021.2.3,Win32,59.70149254,61b8f3437b89212fae0dfade
6,2.1109,space,0.4365,0,212,212,159,1,,,5dd370b6e4bf2035a6b93643,6437835b348969c27758b244,2023-04-12_21h44.31.688,PRaM,2021.2.3,Win32,59.70149254,61b8f3437b89212fae0dfade
4,1.545,space,0.3374,0,213,213,351,1,,,5dd370b6e4bf2035a6b93643,6437835b348969c27758b244,2023-04-12_21h44.31.688,PRaM,2021.2.3,Win32,59.70149254,61b8f3437b89212fae0dfade
2,2.2446,space,0.5337,0,214,214,360,1,,,5dd370b6e4bf2035a6b93643,6437835b348969c27758b244,2023-04-12_21h44.31.688,PRaM,2021.2.3,Win32,59.70149254,61b8f3437b89212fae0dfade
2,1.0114,space,0.1555,0,215,215,248,1,,,5dd370b6e4bf2035a6b93643,6437835b348969c27758b244,2023-04-12_21h44.31.688,PRaM,2021.2.3,Win32,59.70149254,61b8f3437b89212fae0dfade
6,1.6802,space,0.0183,0,216,216,64,1,,,5dd370b6e4bf2035a6b93643,6437835b348969c27758b244,2023-04-12_21h44.31.688,PRaM,2021.2.3,Win32,59.70149254,61b8f3437b89212fae0dfade
2,1.2789,space,0.1177,0,217,217,241,1,,,5dd370b6e4bf2035a6b93643,6437835b348969c27758b244,2023-04-12_21h44.31.688,PRaM,2021.2.3,Win32,59.70149254,61b8f3437b89212fae0dfade
2,1.4119,space,0.3049,0,218,218,122,1,,,5dd370b6e4bf2035a6b93643,6437835b348969c27758b244,2023-04-12_21h44.31.688,PRaM,2021.2.3,Win32,59.70149254,61b8f3437b89212fae0dfade
2,1.0109,space,0.3009,0,219,219,202,1,,,5dd370b6e4bf2035a6b93643,6437835b348969c27758b244,2023-04-12_21h44.31.688,PRaM,2021.2.3,Win32,59.70149254,61b8f3437b89212fae0dfade
1,1.2629,space,2.8872,0,220,220,40,1,,,5dd370b6e4bf2035a6b93643,6437835b348969c27758b244,2023-04-12_21h44.31.688,PRaM,2021.2.3,Win32,59.70149254,61b8f3437b89212fae0dfade
2,1.8961,space,2.4524,0,221,221,30,1,,,5dd370b6e4bf2035a6b93643,6437835b348969c27758b244,2023-04-12_21h44.31.688,PRaM,2021.2.3,Win32,59.70149254,61b8f3437b89212fae0dfade
3,1.8908,space,0.1541,0,222,222,99,1,,,5dd370b6e4bf2035a6b93643,6437835b348969c27758b244,2023-04-12_21h44.31.688,PRaM,2021.2.3,Win32,59.70149254,61b8f3437b89212fae0dfade
3,1.1813,space,0.3178,0,223,223,47,1,,,5dd370b6e4bf2035a6b93643,6437835b348969c27758b244,2023-04-12_21h44.31.688,PRaM,2021.2.3,Win32,59.70149254,61b8f3437b89212fae0dfade
2,1.9601,space,0.1673,0,224,224,229,1,,,5dd370b6e4bf2035a6b93643,6437835b348969c27758b244,2023-04-12_21h44.31.688,PRaM,2021.2.3,Win32,59.70149254,61b8f3437b89212fae0dfade
5,1.5315,space,0.1541,0,225,225,22,1,,,5dd370b6e4bf2035a6b93643,6437835b348969c27758b244,2023-04-12_21h44.31.688,PRaM,2021.2.3,Win32,59.70149254,61b8f3437b89212fae0dfade
4,0.9601,space,0.2768,0,226,226,12,1,,,5dd370b6e4bf2035a6b93643,6437835b348969c27758b244,2023-04-12_21h44.31.688,PRaM,2021.2.3,Win32,59.70149254,61b8f3437b89212fae0dfade
3,0.9811,space,0.0841,0,227,227,49,1,,,5dd370b6e4bf2035a6b93643,6437835b348969c27758b244,2023-04-12_21h44.31.688,PRaM,2021.2.3,Win32,59.70149254,61b8f3437b89212fae0dfade
3,0.9316,space,0.2672,0,228,228,171,1,,,5dd370b6e4bf2035a6b93643,6437835b348969c27758b244,2023-04-12_21h44.31.688,PRaM,2021.2.3,Win32,59.70149254,61b8f3437b89212fae0dfade
2,1.7777,space,0.051,0,229,229,89,1,,,5dd370b6e4bf2035a6b93643,6437835b348969c27758b244,2023-04-12_21h44.31.688,PRaM,2021.2.3,Win32,59.70149254,61b8f3437b89212fae0dfade
2,1.1616,space,0.3699,0,230,230,174,1,,,5dd370b6e4bf2035a6b93643,6437835b348969c27758b244,2023-04-12_21h44.31.688,PRaM,2021.2.3,Win32,59.70149254,61b8f3437b89212fae0dfade
5,2.6779,space,0.9675,0,231,231,334,1,,,5dd370b6e4bf2035a6b93643,6437835b348969c27758b244,2023-04-12_21h44.31.688,PRaM,2021.2.3,Win32,59.70149254,61b8f3437b89212fae0dfade
2,1.813,space,0.1177,0,232,232,113,1,,,5dd370b6e4bf2035a6b93643,6437835b348969c27758b244,2023-04-12_21h44.31.688,PRaM,2021.2.3,Win32,59.70149254,61b8f3437b89212fae0dfade
2,1.0801,space,0.2685,0,233,233,270,1,,,5dd370b6e4bf2035a6b93643,6437835b348969c27758b244,2023-04-12_21h44.31.688,PRaM,2021.2.3,Win32,59.70149254,61b8f3437b89212fae0dfade
4,2.9615,space,1.2681,0,234,234,110,1,,,5dd370b6e4bf2035a6b93643,6437835b348969c27758b244,2023-04-12_21h44.31.688,PRaM,2021.2.3,Win32,59.70149254,61b8f3437b89212fae0dfade
3,1.563,space,0.3362,0,235,235,201,1,,,5dd370b6e4bf2035a6b93643,6437835b348969c27758b244,2023-04-12_21h44.31.688,PRaM,2021.2.3,Win32,59.70149254,61b8f3437b89212fae0dfade
5,2.4965,space,0.7341,0,236,236,226,1,,,5dd370b6e4bf2035a6b93643,6437835b348969c27758b244,2023-04-12_21h44.31.688,PRaM,2021.2.3,Win32,59.70149254,61b8f3437b89212fae0dfade
3,1.5783,space,0.321,0,237,237,26,1,,,5dd370b6e4bf2035a6b93643,6437835b348969c27758b244,2023-04-12_21h44.31.688,PRaM,2021.2.3,Win32,59.70149254,61b8f3437b89212fae0dfade
2,1.6777,space,0.284,0,238,238,72,1,,,5dd370b6e4bf2035a6b93643,6437835b348969c27758b244,2023-04-12_21h44.31.688,PRaM,2021.2.3,Win32,59.70149254,61b8f3437b89212fae0dfade
3,2.9252,space,1.2347,0,239,239,124,1,,,5dd370b6e4bf2035a6b93643,6437835b348969c27758b244,2023-04-12_21h44.31.688,PRaM,2021.2.3,Win32,59.70149254,61b8f3437b89212fae0dfade
2,1.379,space,0.0176,0,240,240,158,1,,,5dd370b6e4bf2035a6b93643,6437835b348969c27758b244,2023-04-12_21h44.31.688,PRaM,2021.2.3,Win32,59.70149254,61b8f3437b89212fae0dfade
2,5.1276,space,3.4668,0,241,241,78,1,,,5dd370b6e4bf2035a6b93643,6437835b348969c27758b244,2023-04-12_21h44.31.688,PRaM,2021.2.3,Win32,59.70149254,61b8f3437b89212fae0dfade
3,2.1648,space,0.3038,0,242,242,147,1,,,5dd370b6e4bf2035a6b93643,6437835b348969c27758b244,2023-04-12_21h44.31.688,PRaM,2021.2.3,Win32,59.70149254,61b8f3437b89212fae0dfade
3,2.2781,space,0.4678,0,243,243,177,1,,,5dd370b6e4bf2035a6b93643,6437835b348969c27758b244,2023-04-12_21h44.31.688,PRaM,2021.2.3,Win32,59.70149254,61b8f3437b89212fae0dfade
3,2.0449,space,0.2182,0,244,244,318,1,,,5dd370b6e4bf2035a6b93643,6437835b348969c27758b244,2023-04-12_21h44.31.688,PRaM,2021.2.3,Win32,59.70149254,61b8f3437b89212fae0dfade
3,1.6782,space,0.3348,0,245,245,142,1,,,5dd370b6e4bf2035a6b93643,6437835b348969c27758b244,2023-04-12_21h44.31.688,PRaM,2021.2.3,Win32,59.70149254,61b8f3437b89212fae0dfade
6,1.8617,space,0.205,0,246,246,112,1,,,5dd370b6e4bf2035a6b93643,6437835b348969c27758b244,2023-04-12_21h44.31.688,PRaM,2021.2.3,Win32,59.70149254,61b8f3437b89212fae0dfade
3,1.1278,space,0.4681,0,247,247,290,1,,,5dd370b6e4bf2035a6b93643,6437835b348969c27758b244,2023-04-12_21h44.31.688,PRaM,2021.2.3,Win32,59.70149254,61b8f3437b89212fae0dfade
3,1.2789,space,0.7678,0,248,248,31,1,,,5dd370b6e4bf2035a6b93643,6437835b348969c27758b244,2023-04-12_21h44.31.688,PRaM,2021.2.3,Win32,59.70149254,61b8f3437b89212fae0dfade
2,1.0292,space,0.0682,0,249,249,169,1,,,5dd370b6e4bf2035a6b93643,6437835b348969c27758b244,2023-04-12_21h44.31.688,PRaM,2021.2.3,Win32,59.70149254,61b8f3437b89212fae0dfade
3,1.5617,space,0.3695,0,250,250,206,1,,,5dd370b6e4bf2035a6b93643,6437835b348969c27758b244,2023-04-12_21h44.31.688,PRaM,2021.2.3,Win32,59.70149254,61b8f3437b89212fae0dfade
2,1.23,space,0.2511,0,251,251,253,1,,,5dd370b6e4bf2035a6b93643,6437835b348969c27758b244,2023-04-12_21h44.31.688,PRaM,2021.2.3,Win32,59.70149254,61b8f3437b89212fae0dfade
2,0.7789,space,0.0843,0,252,252,317,1,,,5dd370b6e4bf2035a6b93643,6437835b348969c27758b244,2023-04-12_21h44.31.688,PRaM,2021.2.3,Win32,59.70149254,61b8f3437b89212fae0dfade
6,1.661,space,0.3508,0,253,253,328,1,,,5dd370b6e4bf2035a6b93643,6437835b348969c27758b244,2023-04-12_21h44.31.688,PRaM,2021.2.3,Win32,59.70149254,61b8f3437b89212fae0dfade
3,2.1395,space,0.8526,0,254,254,24,1,,,5dd370b6e4bf2035a6b93643,6437835b348969c27758b244,2023-04-12_21h44.31.688,PRaM,2021.2.3,Win32,59.70149254,61b8f3437b89212fae0dfade
5,2.344,space,0.5377,0,255,255,207,1,,,5dd370b6e4bf2035a6b93643,6437835b348969c27758b244,2023-04-12_21h44.31.688,PRaM,2021.2.3,Win32,59.70149254,61b8f3437b89212fae0dfade
7,1.2977,space,0.0874,0,256,256,325,1,,,5dd370b6e4bf2035a6b93643,6437835b348969c27758b244,2023-04-12_21h44.31.688,PRaM,2021.2.3,Win32,59.70149254,61b8f3437b89212fae0dfade
7,2.1942,space,0.4465,0,257,257,132,1,,,5dd370b6e4bf2035a6b93643,6437835b348969c27758b244,2023-04-12_21h44.31.688,PRaM,2021.2.3,Win32,59.70149254,61b8f3437b89212fae0dfade
3,1.2901,space,0.0343,0,258,258,243,1,,,5dd370b6e4bf2035a6b93643,6437835b348969c27758b244,2023-04-12_21h44.31.688,PRaM,2021.2.3,Win32,59.70149254,61b8f3437b89212fae0dfade
3,20.4892,space,18.8349,0,259,259,244,1,,,5dd370b6e4bf2035a6b93643,6437835b348969c27758b244,2023-04-12_21h44.31.688,PRaM,2021.2.3,Win32,59.70149254,61b8f3437b89212fae0dfade
2,5.3085,space,3.6353,0,260,260,329,1,,,5dd370b6e4bf2035a6b93643,6437835b348969c27758b244,2023-04-12_21h44.31.688,PRaM,2021.2.3,Win32,59.70149254,61b8f3437b89212fae0dfade
2,1.294,space,0.0694,0,261,261,220,1,,,5dd370b6e4bf2035a6b93643,6437835b348969c27758b244,2023-04-12_21h44.31.688,PRaM,2021.2.3,Win32,59.70149254,61b8f3437b89212fae0dfade
2,0.7441,space,0.2512,0,262,262,172,1,,,5dd370b6e4bf2035a6b93643,6437835b348969c27758b244,2023-04-12_21h44.31.688,PRaM,2021.2.3,Win32,59.70149254,61b8f3437b89212fae0dfade
4,1.4251,space,0.0862,0,263,263,149,1,,,5dd370b6e4bf2035a6b93643,6437835b348969c27758b244,2023-04-12_21h44.31.688,PRaM,2021.2.3,Win32,59.70149254,61b8f3437b89212fae0dfade
3,1.5902,space,0.2338,0,264,264,83,1,,,5dd370b6e4bf2035a6b93643,6437835b348969c27758b244,2023-04-12_21h44.31.688,PRaM,2021.2.3,Win32,59.70149254,61b8f3437b89212fae0dfade
6,1.293,space,0.0511,0,265,265,16,1,,,5dd370b6e4bf2035a6b93643,6437835b348969c27758b244,2023-04-12_21h44.31.688,PRaM,2021.2.3,Win32,59.70149254,61b8f3437b89212fae0dfade
7,1.2597,space,0.0512,0,266,266,17,1,,,5dd370b6e4bf2035a6b93643,6437835b348969c27758b244,2023-04-12_21h44.31.688,PRaM,2021.2.3,Win32,59.70149254,61b8f3437b89212fae0dfade
3,0.8652,space,0.3195,0,267,267,96,1,,,5dd370b6e4bf2035a6b93643,6437835b348969c27758b244,2023-04-12_21h44.31.688,PRaM,2021.2.3,Win32,59.70149254,61b8f3437b89212fae0dfade
4,0.51,space,0.406,0,268,268,21,1,,,5dd370b6e4bf2035a6b93643,6437835b348969c27758b244,2023-04-12_21h44.31.688,PRaM,2021.2.3,Win32,59.70149254,61b8f3437b89212fae0dfade
3,0.4913,space,0.5343,0,269,269,153,1,,,5dd370b6e4bf2035a6b93643,6437835b348969c27758b244,2023-04-12_21h44.31.688,PRaM,2021.2.3,Win32,59.70149254,61b8f3437b89212fae0dfade
5,0.5802,space,0.3364,0,270,270,71,1,,,5dd370b6e4bf2035a6b93643,6437835b348969c27758b244,2023-04-12_21h44.31.688,PRaM,2021.2.3,Win32,59.70149254,61b8f3437b89212fae0dfade
3,2.164,space,0.4179,0,271,271,251,1,,,5dd370b6e4bf2035a6b93643,6437835b348969c27758b244,2023-04-12_21h44.31.688,PRaM,2021.2.3,Win32,59.70149254,61b8f3437b89212fae0dfade
3,2.1947,space,0.4005,0,272,272,332,1,,,5dd370b6e4bf2035a6b93643,6437835b348969c27758b244,2023-04-12_21h44.31.688,PRaM,2021.2.3,Win32,59.70149254,61b8f3437b89212fae0dfade
3,1.5634,space,0.3522,0,273,273,192,1,,,5dd370b6e4bf2035a6b93643,6437835b348969c27758b244,2023-04-12_21h44.31.688,PRaM,2021.2.3,Win32,59.70149254,61b8f3437b89212fae0dfade
3,4.8091,space,3.2511,0,274,274,239,1,,,5dd370b6e4bf2035a6b93643,6437835b348969c27758b244,2023-04-12_21h44.31.688,PRaM,2021.2.3,Win32,59.70149254,61b8f3437b89212fae0dfade
3,1.1612,space,0.2515,0,275,275,138,1,,,5dd370b6e4bf2035a6b93643,6437835b348969c27758b244,2023-04-12_21h44.31.688,PRaM,2021.2.3,Win32,59.70149254,61b8f3437b89212fae0dfade
2,2.2295,space,1.3343,0,276,276,106,1,,,5dd370b6e4bf2035a6b93643,6437835b348969c27758b244,2023-04-12_21h44.31.688,PRaM,2021.2.3,Win32,59.70149254,61b8f3437b89212fae0dfade
2,2.2115,space,0.5377,0,277,277,294,1,,,5dd370b6e4bf2035a6b93643,6437835b348969c27758b244,2023-04-12_21h44.31.688,PRaM,2021.2.3,Win32,59.70149254,61b8f3437b89212fae0dfade
2,1.2287,space,0.1894,0,278,278,152,1,,,5dd370b6e4bf2035a6b93643,6437835b348969c27758b244,2023-04-12_21h44.31.688,PRaM,2021.2.3,Win32,59.70149254,61b8f3437b89212fae0dfade
3,1.1635,space,0.0346,0,279,279,214,1,,,5dd370b6e4bf2035a6b93643,6437835b348969c27758b244,2023-04-12_21h44.31.688,PRaM,2021.2.3,Win32,59.70149254,61b8f3437b89212fae0dfade
2,1.0287,space,0.3185,0,280,280,359,1,,,5dd370b6e4bf2035a6b93643,6437835b348969c27758b244,2023-04-12_21h44.31.688,PRaM,2021.2.3,Win32,59.70149254,61b8f3437b89212fae0dfade
5,4.6622,space,3.0026,0,281,281,4,1,,,5dd370b6e4bf2035a6b93643,6437835b348969c27758b244,2023-04-12_21h44.31.688,PRaM,2021.2.3,Win32,59.70149254,61b8f3437b89212fae0dfade
3,1.1626,space,0.531,0,282,282,269,1,,,5dd370b6e4bf2035a6b93643,6437835b348969c27758b244,2023-04-12_21h44.31.688,PRaM,2021.2.3,Win32,59.70149254,61b8f3437b89212fae0dfade
2,1.9985,space,0.3515,0,283,283,54,1,,,5dd370b6e4bf2035a6b93643,6437835b348969c27758b244,2023-04-12_21h44.31.688,PRaM,2021.2.3,Win32,59.70149254,61b8f3437b89212fae0dfade
2,1.1723,space,0.0177,0,284,284,161,1,,,5dd370b6e4bf2035a6b93643,6437835b348969c27758b244,2023-04-12_21h44.31.688,PRaM,2021.2.3,Win32,59.70149254,61b8f3437b89212fae0dfade
4,2.5942,space,0.8382,0,285,285,280,1,,,5dd370b6e4bf2035a6b93643,6437835b348969c27758b244,2023-04-12_21h44.31.688,PRaM,2021.2.3,Win32,59.70149254,61b8f3437b89212fae0dfade
3,1.3635,space,0.0011,0,286,286,101,1,,,5dd370b6e4bf2035a6b93643,6437835b348969c27758b244,2023-04-12_21h44.31.688,PRaM,2021.2.3,Win32,59.70149254,61b8f3437b89212fae0dfade
4,2.266,space,0.4698,0,287,287,156,1,,,5dd370b6e4bf2035a6b93643,6437835b348969c27758b244,2023-04-12_21h44.31.688,PRaM,2021.2.3,Win32,59.70149254,61b8f3437b89212fae0dfade
3,2.3938,space,0.5925,0,288,288,7,1,,,5dd370b6e4bf2035a6b93643,6437835b348969c27758b244,2023-04-12_21h44.31.688,PRaM,2021.2.3,Win32,59.70149254,61b8f3437b89212fae0dfade
2,2.0669,space,0.3468,0,289,289,29,1,,,5dd370b6e4bf2035a6b93643,6437835b348969c27758b244,2023-04-12_21h44.31.688,PRaM,2021.2.3,Win32,59.70149254,61b8f3437b89212fae0dfade
3,1.0257,space,0.1933,0,290,290,155,1,,,5dd370b6e4bf2035a6b93643,6437835b348969c27758b244,2023-04-12_21h44.31.688,PRaM,2021.2.3,Win32,59.70149254,61b8f3437b89212fae0dfade
2,0.5716,space,0.1145,0,291,291,227,1,,,5dd370b6e4bf2035a6b93643,6437835b348969c27758b244,2023-04-12_21h44.31.688,PRaM,2021.2.3,Win32,59.70149254,61b8f3437b89212fae0dfade
3,0.8419,space,0.2738,0,292,292,355,1,,,5dd370b6e4bf2035a6b93643,6437835b348969c27758b244,2023-04-12_21h44.31.688,PRaM,2021.2.3,Win32,59.70149254,61b8f3437b89212fae0dfade
4,1.6718,space,0.3014,0,293,293,235,1,,,5dd370b6e4bf2035a6b93643,6437835b348969c27758b244,2023-04-12_21h44.31.688,PRaM,2021.2.3,Win32,59.70149254,61b8f3437b89212fae0dfade
2,2.0473,space,0.284,0,294,294,92,1,,,5dd370b6e4bf2035a6b93643,6437835b348969c27758b244,2023-04-12_21h44.31.688,PRaM,2021.2.3,Win32,59.70149254,61b8f3437b89212fae0dfade
1,1.5651,space,0.2587,0,295,295,118,1,,,5dd370b6e4bf2035a6b93643,6437835b348969c27758b244,2023-04-12_21h44.31.688,PRaM,2021.2.3,Win32,59.70149254,61b8f3437b89212fae0dfade
2,0.732,space,0.7343,0,296,296,135,1,,,5dd370b6e4bf2035a6b93643,6437835b348969c27758b244,2023-04-12_21h44.31.688,PRaM,2021.2.3,Win32,59.70149254,61b8f3437b89212fae0dfade
2,0.7453,space,0.118,0,297,297,278,1,,,5dd370b6e4bf2035a6b93643,6437835b348969c27758b244,2023-04-12_21h44.31.688,PRaM,2021.2.3,Win32,59.70149254,61b8f3437b89212fae0dfade
2,1.1855,space,0.4471,0,298,298,173,1,,,5dd370b6e4bf2035a6b93643,6437835b348969c27758b244,2023-04-12_21h44.31.688,PRaM,2021.2.3,Win32,59.70149254,61b8f3437b89212fae0dfade
2,0.7334,space,0.221,0,299,299,60,1,,,5dd370b6e4bf2035a6b93643,6437835b348969c27758b244,2023-04-12_21h44.31.688,PRaM,2021.2.3,Win32,59.70149254,61b8f3437b89212fae0dfade
4,1.9782,space,0.2342,0,300,300,361,1,,,5dd370b6e4bf2035a6b93643,6437835b348969c27758b244,2023-04-12_21h44.31.688,PRaM,2021.2.3,Win32,59.70149254,61b8f3437b89212fae0dfade
3,2.6118,space,0.9176,0,301,301,13,1,,,5dd370b6e4bf2035a6b93643,6437835b348969c27758b244,2023-04-12_21h44.31.688,PRaM,2021.2.3,Win32,59.70149254,61b8f3437b89212fae0dfade
3,1.548,space,0.3843,0,302,302,176,1,,,5dd370b6e4bf2035a6b93643,6437835b348969c27758b244,2023-04-12_21h44.31.688,PRaM,2021.2.3,Win32,59.70149254,61b8f3437b89212fae0dfade
2,1.6118,space,0.0009,0,303,303,271,1,,,5dd370b6e4bf2035a6b93643,6437835b348969c27758b244,2023-04-12_21h44.31.688,PRaM,2021.2.3,Win32,59.70149254,61b8f3437b89212fae0dfade
4,1.8444,space,0.2812,0,304,304,358,1,,,5dd370b6e4bf2035a6b93643,6437835b348969c27758b244,2023-04-12_21h44.31.688,PRaM,2021.2.3,Win32,59.70149254,61b8f3437b89212fae0dfade
3,2.1329,space,0.5009,0,305,305,282,1,,,5dd370b6e4bf2035a6b93643,6437835b348969c27758b244,2023-04-12_21h44.31.688,PRaM,2021.2.3,Win32,59.70149254,61b8f3437b89212fae0dfade
2,1.2273,space,0.0645,0,306,306,245,1,,,5dd370b6e4bf2035a6b93643,6437835b348969c27758b244,2023-04-12_21h44.31.688,PRaM,2021.2.3,Win32,59.70149254,61b8f3437b89212fae0dfade
2,0.8624,space,0.3172,0,307,307,189,1,,,5dd370b6e4bf2035a6b93643,6437835b348969c27758b244,2023-04-12_21h44.31.688,PRaM,2021.2.3,Win32,59.70149254,61b8f3437b89212fae0dfade
2,0.6949,space,0.7674,0,308,308,357,1,,,5dd370b6e4bf2035a6b93643,6437835b348969c27758b244,2023-04-12_21h44.31.688,PRaM,2021.2.3,Win32,59.70149254,61b8f3437b89212fae0dfade
2,0.8268,space,0.1173,0,309,309,233,1,,,5dd370b6e4bf2035a6b93643,6437835b348969c27758b244,2023-04-12_21h44.31.688,PRaM,2021.2.3,Win32,59.70149254,61b8f3437b89212fae0dfade
2,0.7149,space,0.4523,0,310,310,97,1,,,5dd370b6e4bf2035a6b93643,6437835b348969c27758b244,2023-04-12_21h44.31.688,PRaM,2021.2.3,Win32,59.70149254,61b8f3437b89212fae0dfade
2,0.7303,space,0.234,0,311,311,356,1,,,5dd370b6e4bf2035a6b93643,6437835b348969c27758b244,2023-04-12_21h44.31.688,PRaM,2021.2.3,Win32,59.70149254,61b8f3437b89212fae0dfade
2,0.7656,space,0.1174,0,312,312,185,1,,,5dd370b6e4bf2035a6b93643,6437835b348969c27758b244,2023-04-12_21h44.31.688,PRaM,2021.2.3,Win32,59.70149254,61b8f3437b89212fae0dfade
2,0.6496,space,0.2355,0,313,313,353,1,,,5dd370b6e4bf2035a6b93643,6437835b348969c27758b244,2023-04-12_21h44.31.688,PRaM,2021.2.3,Win32,59.70149254,61b8f3437b89212fae0dfade
3,0.9612,space,0.3179,0,314,314,48,1,,,5dd370b6e4bf2035a6b93643,6437835b348969c27758b244,2023-04-12_21h44.31.688,PRaM,2021.2.3,Win32,59.70149254,61b8f3437b89212fae0dfade
2,1.2166,space,0.4176,0,315,315,267,1,,,5dd370b6e4bf2035a6b93643,6437835b348969c27758b244,2023-04-12_21h44.31.688,PRaM,2021.2.3,Win32,59.70149254,61b8f3437b89212fae0dfade
3,0.5454,space,0.3171,0,316,316,231,1,,,5dd370b6e4bf2035a6b93643,6437835b348969c27758b244,2023-04-12_21h44.31.688,PRaM,2021.2.3,Win32,59.70149254,61b8f3437b89212fae0dfade
5,1.8609,space,0.2193,0,317,317,255,1,,,5dd370b6e4bf2035a6b93643,6437835b348969c27758b244,2023-04-12_21h44.31.688,PRaM,2021.2.3,Win32,59.70149254,61b8f3437b89212fae0dfade
2,2.0118,space,0.2703,0,318,318,232,1,,,5dd370b6e4bf2035a6b93643,6437835b348969c27758b244,2023-04-12_21h44.31.688,PRaM,2021.2.3,Win32,59.70149254,61b8f3437b89212fae0dfade
6,2.3958,space,0.7486,0,319,319,277,1,,,5dd370b6e4bf2035a6b93643,6437835b348969c27758b244,2023-04-12_21h44.31.688,PRaM,2021.2.3,Win32,59.70149254,61b8f3437b89212fae0dfade
8,1.0129,space,0.2011,0,320,320,276,1,,,5dd370b6e4bf2035a6b93643,6437835b348969c27758b244,2023-04-12_21h44.31.688,PRaM,2021.2.3,Win32,59.70149254,61b8f3437b89212fae0dfade
8,1.895,space,0.3678,0,321,321,38,1,,,5dd370b6e4bf2035a6b93643,6437835b348969c27758b244,2023-04-12_21h44.31.688,PRaM,2021.2.3,Win32,59.70149254,61b8f3437b89212fae0dfade
3,2.0083,space,0.2374,0,322,322,111,1,,,5dd370b6e4bf2035a6b93643,6437835b348969c27758b244,2023-04-12_21h44.31.688,PRaM,2021.2.3,Win32,59.70149254,61b8f3437b89212fae0dfade
2,1.0632,space,0.2682,0,323,323,310,1,,,5dd370b6e4bf2035a6b93643,6437835b348969c27758b244,2023-04-12_21h44.31.688,PRaM,2021.2.3,Win32,59.70149254,61b8f3437b89212fae0dfade
3,0.8094,space,0.0337,0,324,324,59,1,,,5dd370b6e4bf2035a6b93643,6437835b348969c27758b244,2023-04-12_21h44.31.688,PRaM,2021.2.3,Win32,59.70149254,61b8f3437b89212fae0dfade
2,0.729,space,0.4839,0,325,325,95,1,,,5dd370b6e4bf2035a6b93643,6437835b348969c27758b244,2023-04-12_21h44.31.688,PRaM,2021.2.3,Win32,59.70149254,61b8f3437b89212fae0dfade
3,1.9134,space,0.2671,0,326,326,342,1,,,5dd370b6e4bf2035a6b93643,6437835b348969c27758b244,2023-04-12_21h44.31.688,PRaM,2021.2.3,Win32,59.70149254,61b8f3437b89212fae0dfade
2,0.7973,space,0.555,0,327,327,275,1,,,5dd370b6e4bf2035a6b93643,6437835b348969c27758b244,2023-04-12_21h44.31.688,PRaM,2021.2.3,Win32,59.70149254,61b8f3437b89212fae0dfade
5,1.7299,space,0.1348,0,328,328,337,1,,,5dd370b6e4bf2035a6b93643,6437835b348969c27758b244,2023-04-12_21h44.31.688,PRaM,2021.2.3,Win32,59.70149254,61b8f3437b89212fae0dfade
6,2.1117,space,0.4372,0,329,329,264,1,,,5dd370b6e4bf2035a6b93643,6437835b348969c27758b244,2023-04-12_21h44.31.688,PRaM,2021.2.3,Win32,59.70149254,61b8f3437b89212fae0dfade
4,0.7607,space,0.2016,0,330,330,209,1,,,5dd370b6e4bf2035a6b93643,6437835b348969c27758b244,2023-04-12_21h44.31.688,PRaM,2021.2.3,Win32,59.70149254,61b8f3437b89212fae0dfade
8,2.3447,space,0.6683,0,331,331,319,1,,,5dd370b6e4bf2035a6b93643,6437835b348969c27758b244,2023-04-12_21h44.31.688,PRaM,2021.2.3,Win32,59.70149254,61b8f3437b89212fae0dfade
2,1.2143,space,0.2181,0,332,332,228,1,,,5dd370b6e4bf2035a6b93643,6437835b348969c27758b244,2023-04-12_21h44.31.688,PRaM,2021.2.3,Win32,59.70149254,61b8f3437b89212fae0dfade
1,1.4431,space,0.1677,0,333,333,339,1,,,5dd370b6e4bf2035a6b93643,6437835b348969c27758b244,2023-04-12_21h44.31.688,PRaM,2021.2.3,Win32,59.70149254,61b8f3437b89212fae0dfade
2,0.8943,space,0.3014,0,334,334,127,1,,,5dd370b6e4bf2035a6b93643,6437835b348969c27758b244,2023-04-12_21h44.31.688,PRaM,2021.2.3,Win32,59.70149254,61b8f3437b89212fae0dfade
4,0.6446,space,0.0344,0,335,335,343,1,,,5dd370b6e4bf2035a6b93643,6437835b348969c27758b244,2023-04-12_21h44.31.688,PRaM,2021.2.3,Win32,59.70149254,61b8f3437b89212fae0dfade
3,1.0107,space,0.2846,0,336,336,103,1,,,5dd370b6e4bf2035a6b93643,6437835b348969c27758b244,2023-04-12_21h44.31.688,PRaM,2021.2.3,Win32,59.70149254,61b8f3437b89212fae0dfade
4,0.6458,space,0.4174,0,337,337,363,1,,,5dd370b6e4bf2035a6b93643,6437835b348969c27758b244,2023-04-12_21h44.31.688,PRaM,2021.2.3,Win32,59.70149254,61b8f3437b89212fae0dfade
3,0.5293,space,0.2508,0,338,338,56,1,,,5dd370b6e4bf2035a6b93643,6437835b348969c27758b244,2023-04-12_21h44.31.688,PRaM,2021.2.3,Win32,59.70149254,61b8f3437b89212fae0dfade
3,0.8113,space,0.0175,0,339,339,14,1,,,5dd370b6e4bf2035a6b93643,6437835b348969c27758b244,2023-04-12_21h44.31.688,PRaM,2021.2.3,Win32,59.70149254,61b8f3437b89212fae0dfade
3,0.5775,space,0.0345,0,340,340,109,1,,,5dd370b6e4bf2035a6b93643,6437835b348969c27758b244,2023-04-12_21h44.31.688,PRaM,2021.2.3,Win32,59.70149254,61b8f3437b89212fae0dfade
3,0.6302,space,0.2184,0,341,341,210,1,,,5dd370b6e4bf2035a6b93643,6437835b348969c27758b244,2023-04-12_21h44.31.688,PRaM,2021.2.3,Win32,59.70149254,61b8f3437b89212fae0dfade
3,0.6109,space,0.0513,0,342,342,193,1,,,5dd370b6e4bf2035a6b93643,6437835b348969c27758b244,2023-04-12_21h44.31.688,PRaM,2021.2.3,Win32,59.70149254,61b8f3437b89212fae0dfade
3,0.7618,space,0.2838,0,343,343,345,1,,,5dd370b6e4bf2035a6b93643,6437835b348969c27758b244,2023-04-12_21h44.31.688,PRaM,2021.2.3,Win32,59.70149254,61b8f3437b89212fae0dfade
3,0.5451,space,0.1029,0,344,344,58,1,,,5dd370b6e4bf2035a6b93643,6437835b348969c27758b244,2023-04-12_21h44.31.688,PRaM,2021.2.3,Win32,59.70149254,61b8f3437b89212fae0dfade
3,0.4607,space,0.1846,0,345,345,376,1,,,5dd370b6e4bf2035a6b93643,6437835b348969c27758b244,2023-04-12_21h44.31.688,PRaM,2021.2.3,Win32,59.70149254,61b8f3437b89212fae0dfade
3,0.7435,space,0.1016,0,346,346,366,1,,,5dd370b6e4bf2035a6b93643,6437835b348969c27758b244,2023-04-12_21h44.31.688,PRaM,2021.2.3,Win32,59.70149254,61b8f3437b89212fae0dfade
5,1.9966,space,0.2189,0,347,347,331,1,,,5dd370b6e4bf2035a6b93643,6437835b348969c27758b244,2023-04-12_21h44.31.688,PRaM,2021.2.3,Win32,59.70149254,61b8f3437b89212fae0dfade
3,1.2117,space,0.2185,0,348,348,67,1,,,5dd370b6e4bf2035a6b93643,6437835b348969c27758b244,2023-04-12_21h44.31.688,PRaM,2021.2.3,Win32,59.70149254,61b8f3437b89212fae0dfade
4,0.5461,space,0.3178,0,349,349,316,1,,,5dd370b6e4bf2035a6b93643,6437835b348969c27758b244,2023-04-12_21h44.31.688,PRaM,2021.2.3,Win32,59.70149254,61b8f3437b89212fae0dfade
3,0.6786,space,0.0525,0,350,350,287,1,,,5dd370b6e4bf2035a6b93643,6437835b348969c27758b244,2023-04-12_21h44.31.688,PRaM,2021.2.3,Win32,59.70149254,61b8f3437b89212fae0dfade
5,2.4269,space,0.7355,0,351,351,221,1,,,5dd370b6e4bf2035a6b93643,6437835b348969c27758b244,2023-04-12_21h44.31.688,PRaM,2021.2.3,Win32,59.70149254,61b8f3437b89212fae0dfade
3,0.68,space,0.0507,0,352,352,308,1,,,5dd370b6e4bf2035a6b93643,6437835b348969c27758b244,2023-04-12_21h44.31.688,PRaM,2021.2.3,Win32,59.70149254,61b8f3437b89212fae0dfade
3,1.7948,space,0.1555,0,353,353,53,1,,,5dd370b6e4bf2035a6b93643,6437835b348969c27758b244,2023-04-12_21h44.31.688,PRaM,2021.2.3,Win32,59.70149254,61b8f3437b89212fae0dfade
3,2.1761,space,0.3876,0,354,354,257,1,,,5dd370b6e4bf2035a6b93643,6437835b348969c27758b244,2023-04-12_21h44.31.688,PRaM,2021.2.3,Win32,59.70149254,61b8f3437b89212fae0dfade
4,1.9436,space,0.1696,0,355,355,6,1,,,5dd370b6e4bf2035a6b93643,6437835b348969c27758b244,2023-04-12_21h44.31.688,PRaM,2021.2.3,Win32,59.70149254,61b8f3437b89212fae0dfade
3,0.8952,space,0.3843,0,356,356,75,1,,,5dd370b6e4bf2035a6b93643,6437835b348969c27758b244,2023-04-12_21h44.31.688,PRaM,2021.2.3,Win32,59.70149254,61b8f3437b89212fae0dfade
2,0.8919,space,0.3196,0,357,357,70,1,,,5dd370b6e4bf2035a6b93643,6437835b348969c27758b244,2023-04-12_21h44.31.688,PRaM,2021.2.3,Win32,59.70149254,61b8f3437b89212fae0dfade
2,0.6966,space,0.2505,0,358,358,288,1,,,5dd370b6e4bf2035a6b93643,6437835b348969c27758b244,2023-04-12_21h44.31.688,PRaM,2021.2.3,Win32,59.70149254,61b8f3437b89212fae0dfade
3,0.7781,space,0.2844,0,359,359,45,1,,,5dd370b6e4bf2035a6b93643,6437835b348969c27758b244,2023-04-12_21h44.31.688,PRaM,2021.2.3,Win32,59.70149254,61b8f3437b89212fae0dfade
5,0.843,space,0.2171,0,360,360,18,1,,,5dd370b6e4bf2035a6b93643,6437835b348969c27758b244,2023-04-12_21h44.31.688,PRaM,2021.2.3,Win32,59.70149254,61b8f3437b89212fae0dfade
3,0.5653,space,0.184,0,361,361,50,1,,,5dd370b6e4bf2035a6b93643,6437835b348969c27758b244,2023-04-12_21h44.31.688,PRaM,2021.2.3,Win32,59.70149254,61b8f3437b89212fae0dfade
6,0.5939,space,0.117,0,362,362,320,1,,,5dd370b6e4bf2035a6b93643,6437835b348969c27758b244,2023-04-12_21h44.31.688,PRaM,2021.2.3,Win32,59.70149254,61b8f3437b89212fae0dfade
5,8.4282,space,6.8347,0,363,363,208,1,,,5dd370b6e4bf2035a6b93643,6437835b348969c27758b244,2023-04-12_21h44.31.688,PRaM,2021.2.3,Win32,59.70149254,61b8f3437b89212fae0dfade
4,0.7115,space,0.101,0,364,364,368,1,,,5dd370b6e4bf2035a6b93643,6437835b348969c27758b244,2023-04-12_21h44.31.688,PRaM,2021.2.3,Win32,59.70149254,61b8f3437b89212fae0dfade
4,2.1456,space,0.5687,0,365,365,37,1,,,5dd370b6e4bf2035a6b93643,6437835b348969c27758b244,2023-04-12_21h44.31.688,PRaM,2021.2.3,Win32,59.70149254,61b8f3437b89212fae0dfade
3,0.6953,space,0.0846,0,366,366,80,1,,,5dd370b6e4bf2035a6b93643,6437835b348969c27758b244,2023-04-12_21h44.31.688,PRaM,2021.2.3,Win32,59.70149254,61b8f3437b89212fae0dfade
4,1.8628,space,0.1012,0,367,367,139,1,,,5dd370b6e4bf2035a6b93643,6437835b348969c27758b244,2023-04-12_21h44.31.688,PRaM,2021.2.3,Win32,59.70149254,61b8f3437b89212fae0dfade
3,1.0784,space,0.001,0,368,368,79,1,,,5dd370b6e4bf2035a6b93643,6437835b348969c27758b244,2023-04-12_21h44.31.688,PRaM,2021.2.3,Win32,59.70149254,61b8f3437b89212fae0dfade
2,1.6116,space,0.2017,0,369,369,247,1,,,5dd370b6e4bf2035a6b93643,6437835b348969c27758b244,2023-04-12_21h44.31.688,PRaM,2021.2.3,Win32,59.70149254,61b8f3437b89212fae0dfade
1,1.5608,space,0.2202,0,370,370,200,1,,,5dd370b6e4bf2035a6b93643,6437835b348969c27758b244,2023-04-12_21h44.31.688,PRaM,2021.2.3,Win32,59.70149254,61b8f3437b89212fae0dfade
2,0.615,space,0.2841,0,371,371,46,1,,,5dd370b6e4bf2035a6b93643,6437835b348969c27758b244,2023-04-12_21h44.31.688,PRaM,2021.2.3,Win32,59.70149254,61b8f3437b89212fae0dfade
2,1.7608,space,0.3689,0,372,372,289,1,,,5dd370b6e4bf2035a6b93643,6437835b348969c27758b244,2023-04-12_21h44.31.688,PRaM,2021.2.3,Win32,59.70149254,61b8f3437b89212fae0dfade
2,0.8464,space,0.1335,0,373,373,190,1,,,5dd370b6e4bf2035a6b93643,6437835b348969c27758b244,2023-04-12_21h44.31.688,PRaM,2021.2.3,Win32,59.70149254,61b8f3437b89212fae0dfade
2,1.1648,space,0.1848,0,374,374,335,1,,,5dd370b6e4bf2035a6b93643,6437835b348969c27758b244,2023-04-12_21h44.31.688,PRaM,2021.2.3,Win32,59.70149254,61b8f3437b89212fae0dfade
1,2.5123,space,0.8021,0,375,375,5,1,,,5dd370b6e4bf2035a6b93643,6437835b348969c27758b244,2023-04-12_21h44.31.688,PRaM,2021.2.3,Win32,59.70149254,61b8f3437b89212fae0dfade
2,1.5146,space,0.1195,0,376,376,367,1,,,5dd370b6e4bf2035a6b93643,6437835b348969c27758b244,2023-04-12_21h44.31.688,PRaM,2021.2.3,Win32,59.70149254,61b8f3437b89212fae0dfade
1,0.7144,space,0.2196,0,377,377,364,1,,,5dd370b6e4bf2035a6b93643,6437835b348969c27758b244,2023-04-12_21h44.31.688,PRaM,2021.2.3,Win32,59.70149254,61b8f3437b89212fae0dfade
