Rating.response,Rating.rt,EndTrial.keys,EndTrial.rt,trials.thisRepN,trials.thisTrialN,trials.thisN,trials.thisIndex,trials.ran,Pos1,Pos2,participant,session,date,expName,psychopyVersion,OS,frameRate,study_id
6,4.6813,space,10.7218,0,0,0,335,1,,,5e54c7fc2394ea4c99f88987,643916249d1bcd1034d84644,2023-04-14_10h01.58.052,PRaM,2021.2.3,Win32,60.10699044,61b8f3437b89212fae0dfadf
3,3.261,space,2.2009,0,1,1,111,1,,,5e54c7fc2394ea4c99f88987,643916249d1bcd1034d84644,2023-04-14_10h01.58.052,PRaM,2021.2.3,Win32,60.10699044,61b8f3437b89212fae0dfadf
3,36.1431,space,34.8999,0,2,2,214,1,,,5e54c7fc2394ea4c99f88987,643916249d1bcd1034d84644,2023-04-14_10h01.58.052,PRaM,2021.2.3,Win32,60.10699044,61b8f3437b89212fae0dfadf
2,2.2907,space,1.0835,0,3,3,109,1,,,5e54c7fc2394ea4c99f88987,643916249d1bcd1034d84644,2023-04-14_10h01.58.052,PRaM,2021.2.3,Win32,60.10699044,61b8f3437b89212fae0dfadf
5,2.1653,space,0.5212,0,4,4,151,1,,,5e54c7fc2394ea4c99f88987,643916249d1bcd1034d84644,2023-04-14_10h01.58.052,PRaM,2021.2.3,Win32,60.10699044,61b8f3437b89212fae0dfadf
4,2.9561,space,1.7084,0,5,5,358,1,,,5e54c7fc2394ea4c99f88987,643916249d1bcd1034d84644,2023-04-14_10h01.58.052,PRaM,2021.2.3,Win32,60.10699044,61b8f3437b89212fae0dfadf
4,3.6385,space,1.9999,0,6,6,156,1,,,5e54c7fc2394ea4c99f88987,643916249d1bcd1034d84644,2023-04-14_10h01.58.052,PRaM,2021.2.3,Win32,60.10699044,61b8f3437b89212fae0dfadf
5,3.2633,space,2.4844,0,7,7,221,1,,,5e54c7fc2394ea4c99f88987,643916249d1bcd1034d84644,2023-04-14_10h01.58.052,PRaM,2021.2.3,Win32,60.10699044,61b8f3437b89212fae0dfadf
2,2.6702,space,1.4241,0,8,8,360,1,,,5e54c7fc2394ea4c99f88987,643916249d1bcd1034d84644,2023-04-14_10h01.58.052,PRaM,2021.2.3,Win32,60.10699044,61b8f3437b89212fae0dfadf
1,2.7126,space,1.2709,0,9,9,9,1,,,5e54c7fc2394ea4c99f88987,643916249d1bcd1034d84644,2023-04-14_10h01.58.052,PRaM,2021.2.3,Win32,60.10699044,61b8f3437b89212fae0dfadf
2,2.4704,space,0.8338,0,10,10,171,1,,,5e54c7fc2394ea4c99f88987,643916249d1bcd1034d84644,2023-04-14_10h01.58.052,PRaM,2021.2.3,Win32,60.10699044,61b8f3437b89212fae0dfadf
3,2.8775,space,1.1845,0,11,11,22,1,,,5e54c7fc2394ea4c99f88987,643916249d1bcd1034d84644,2023-04-14_10h01.58.052,PRaM,2021.2.3,Win32,60.10699044,61b8f3437b89212fae0dfadf
4,2.3482,space,0.9104,0,12,12,0,1,,,5e54c7fc2394ea4c99f88987,643916249d1bcd1034d84644,2023-04-14_10h01.58.052,PRaM,2021.2.3,Win32,60.10699044,61b8f3437b89212fae0dfadf
7,3.5836,space,2.2532,0,13,13,363,1,,,5e54c7fc2394ea4c99f88987,643916249d1bcd1034d84644,2023-04-14_10h01.58.052,PRaM,2021.2.3,Win32,60.10699044,61b8f3437b89212fae0dfadf
2,1.8987,space,0.3745,0,14,14,218,1,,,5e54c7fc2394ea4c99f88987,643916249d1bcd1034d84644,2023-04-14_10h01.58.052,PRaM,2021.2.3,Win32,60.10699044,61b8f3437b89212fae0dfadf
1,3.7289,space,2.183,0,15,15,227,1,,,5e54c7fc2394ea4c99f88987,643916249d1bcd1034d84644,2023-04-14_10h01.58.052,PRaM,2021.2.3,Win32,60.10699044,61b8f3437b89212fae0dfadf
8,2.5665,space,2.2331,0,16,16,64,1,,,5e54c7fc2394ea4c99f88987,643916249d1bcd1034d84644,2023-04-14_10h01.58.052,PRaM,2021.2.3,Win32,60.10699044,61b8f3437b89212fae0dfadf
3,4.0631,space,2.5545,0,17,17,198,1,,,5e54c7fc2394ea4c99f88987,643916249d1bcd1034d84644,2023-04-14_10h01.58.052,PRaM,2021.2.3,Win32,60.10699044,61b8f3437b89212fae0dfadf
7,2.6741,space,1.1232,0,18,18,305,1,,,5e54c7fc2394ea4c99f88987,643916249d1bcd1034d84644,2023-04-14_10h01.58.052,PRaM,2021.2.3,Win32,60.10699044,61b8f3437b89212fae0dfadf
6,2.8116,space,1.2667,0,19,19,331,1,,,5e54c7fc2394ea4c99f88987,643916249d1bcd1034d84644,2023-04-14_10h01.58.052,PRaM,2021.2.3,Win32,60.10699044,61b8f3437b89212fae0dfadf
5,3.0794,space,1.6249,0,20,20,136,1,,,5e54c7fc2394ea4c99f88987,643916249d1bcd1034d84644,2023-04-14_10h01.58.052,PRaM,2021.2.3,Win32,60.10699044,61b8f3437b89212fae0dfadf
3,2.4038,space,0.7348,0,21,21,267,1,,,5e54c7fc2394ea4c99f88987,643916249d1bcd1034d84644,2023-04-14_10h01.58.052,PRaM,2021.2.3,Win32,60.10699044,61b8f3437b89212fae0dfadf
2,7.8945,space,6.6116,0,22,22,237,1,,,5e54c7fc2394ea4c99f88987,643916249d1bcd1034d84644,2023-04-14_10h01.58.052,PRaM,2021.2.3,Win32,60.10699044,61b8f3437b89212fae0dfadf
2,2.4084,space,1.0734,0,23,23,256,1,,,5e54c7fc2394ea4c99f88987,643916249d1bcd1034d84644,2023-04-14_10h01.58.052,PRaM,2021.2.3,Win32,60.10699044,61b8f3437b89212fae0dfadf
3,6.7964,space,5.099,0,24,24,238,1,,,5e54c7fc2394ea4c99f88987,643916249d1bcd1034d84644,2023-04-14_10h01.58.052,PRaM,2021.2.3,Win32,60.10699044,61b8f3437b89212fae0dfadf
1,2.2037,space,1.4151,0,25,25,65,1,,,5e54c7fc2394ea4c99f88987,643916249d1bcd1034d84644,2023-04-14_10h01.58.052,PRaM,2021.2.3,Win32,60.10699044,61b8f3437b89212fae0dfadf
6,3.6919,space,2.2786,0,26,26,117,1,,,5e54c7fc2394ea4c99f88987,643916249d1bcd1034d84644,2023-04-14_10h01.58.052,PRaM,2021.2.3,Win32,60.10699044,61b8f3437b89212fae0dfadf
3,16.0674,space,15.8947,0,27,27,334,1,,,5e54c7fc2394ea4c99f88987,643916249d1bcd1034d84644,2023-04-14_10h01.58.052,PRaM,2021.2.3,Win32,60.10699044,61b8f3437b89212fae0dfadf
4,2.5715,space,1.2431,0,28,28,354,1,,,5e54c7fc2394ea4c99f88987,643916249d1bcd1034d84644,2023-04-14_10h01.58.052,PRaM,2021.2.3,Win32,60.10699044,61b8f3437b89212fae0dfadf
3,2.2203,space,0.383,0,29,29,126,1,,,5e54c7fc2394ea4c99f88987,643916249d1bcd1034d84644,2023-04-14_10h01.58.052,PRaM,2021.2.3,Win32,60.10699044,61b8f3437b89212fae0dfadf
4,2.895,space,1.2413,0,30,30,365,1,,,5e54c7fc2394ea4c99f88987,643916249d1bcd1034d84644,2023-04-14_10h01.58.052,PRaM,2021.2.3,Win32,60.10699044,61b8f3437b89212fae0dfadf
7,2.4538,space,1.1712,0,31,31,351,1,,,5e54c7fc2394ea4c99f88987,643916249d1bcd1034d84644,2023-04-14_10h01.58.052,PRaM,2021.2.3,Win32,60.10699044,61b8f3437b89212fae0dfadf
8,4.7784,space,3.2416,0,32,32,278,1,,,5e54c7fc2394ea4c99f88987,643916249d1bcd1034d84644,2023-04-14_10h01.58.052,PRaM,2021.2.3,Win32,60.10699044,61b8f3437b89212fae0dfadf
5,3.1978,space,1.4253,0,33,33,240,1,,,5e54c7fc2394ea4c99f88987,643916249d1bcd1034d84644,2023-04-14_10h01.58.052,PRaM,2021.2.3,Win32,60.10699044,61b8f3437b89212fae0dfadf
5,3.9475,space,2.2601,0,34,34,76,1,,,5e54c7fc2394ea4c99f88987,643916249d1bcd1034d84644,2023-04-14_10h01.58.052,PRaM,2021.2.3,Win32,60.10699044,61b8f3437b89212fae0dfadf
4,5.761,space,3.9535,0,35,35,194,1,,,5e54c7fc2394ea4c99f88987,643916249d1bcd1034d84644,2023-04-14_10h01.58.052,PRaM,2021.2.3,Win32,60.10699044,61b8f3437b89212fae0dfadf
2,1.754,space,0.1171,0,36,36,195,1,,,5e54c7fc2394ea4c99f88987,643916249d1bcd1034d84644,2023-04-14_10h01.58.052,PRaM,2021.2.3,Win32,60.10699044,61b8f3437b89212fae0dfadf
5,3.3407,space,1.7224,0,37,37,150,1,,,5e54c7fc2394ea4c99f88987,643916249d1bcd1034d84644,2023-04-14_10h01.58.052,PRaM,2021.2.3,Win32,60.10699044,61b8f3437b89212fae0dfadf
4,3.0266,space,1.3771,0,38,38,294,1,,,5e54c7fc2394ea4c99f88987,643916249d1bcd1034d84644,2023-04-14_10h01.58.052,PRaM,2021.2.3,Win32,60.10699044,61b8f3437b89212fae0dfadf
2,2.095,space,2.1495,0,39,39,67,1,,,5e54c7fc2394ea4c99f88987,643916249d1bcd1034d84644,2023-04-14_10h01.58.052,PRaM,2021.2.3,Win32,60.10699044,61b8f3437b89212fae0dfadf
5,1.9539,space,0.3635,0,40,40,142,1,,,5e54c7fc2394ea4c99f88987,643916249d1bcd1034d84644,2023-04-14_10h01.58.052,PRaM,2021.2.3,Win32,60.10699044,61b8f3437b89212fae0dfadf
6,2.6106,space,1.2668,0,41,41,211,1,,,5e54c7fc2394ea4c99f88987,643916249d1bcd1034d84644,2023-04-14_10h01.58.052,PRaM,2021.2.3,Win32,60.10699044,61b8f3437b89212fae0dfadf
4,13.5344,space,12.0464,0,42,42,249,1,,,5e54c7fc2394ea4c99f88987,643916249d1bcd1034d84644,2023-04-14_10h01.58.052,PRaM,2021.2.3,Win32,60.10699044,61b8f3437b89212fae0dfadf
2,2.9229,space,1.5231,0,43,43,153,1,,,5e54c7fc2394ea4c99f88987,643916249d1bcd1034d84644,2023-04-14_10h01.58.052,PRaM,2021.2.3,Win32,60.10699044,61b8f3437b89212fae0dfadf
1,2.8107,space,1.5164,0,44,44,289,1,,,5e54c7fc2394ea4c99f88987,643916249d1bcd1034d84644,2023-04-14_10h01.58.052,PRaM,2021.2.3,Win32,60.10699044,61b8f3437b89212fae0dfadf
6,14.236,space,12.8213,0,45,45,59,1,,,5e54c7fc2394ea4c99f88987,643916249d1bcd1034d84644,2023-04-14_10h01.58.052,PRaM,2021.2.3,Win32,60.10699044,61b8f3437b89212fae0dfadf
5,3.0371,space,1.3297,0,46,46,105,1,,,5e54c7fc2394ea4c99f88987,643916249d1bcd1034d84644,2023-04-14_10h01.58.052,PRaM,2021.2.3,Win32,60.10699044,61b8f3437b89212fae0dfadf
3,4.7944,space,3.0994,0,47,47,316,1,,,5e54c7fc2394ea4c99f88987,643916249d1bcd1034d84644,2023-04-14_10h01.58.052,PRaM,2021.2.3,Win32,60.10699044,61b8f3437b89212fae0dfadf
4,1.954,space,0.1366,0,48,48,123,1,,,5e54c7fc2394ea4c99f88987,643916249d1bcd1034d84644,2023-04-14_10h01.58.052,PRaM,2021.2.3,Win32,60.10699044,61b8f3437b89212fae0dfadf
2,2.5381,space,1.1019,0,49,49,287,1,,,5e54c7fc2394ea4c99f88987,643916249d1bcd1034d84644,2023-04-14_10h01.58.052,PRaM,2021.2.3,Win32,60.10699044,61b8f3437b89212fae0dfadf
3,13.3773,space,11.5835,0,50,50,327,1,,,5e54c7fc2394ea4c99f88987,643916249d1bcd1034d84644,2023-04-14_10h01.58.052,PRaM,2021.2.3,Win32,60.10699044,61b8f3437b89212fae0dfadf
2,2.1872,space,0.534,0,51,51,2,1,,,5e54c7fc2394ea4c99f88987,643916249d1bcd1034d84644,2023-04-14_10h01.58.052,PRaM,2021.2.3,Win32,60.10699044,61b8f3437b89212fae0dfadf
5,3.1597,space,1.7596,0,52,52,367,1,,,5e54c7fc2394ea4c99f88987,643916249d1bcd1034d84644,2023-04-14_10h01.58.052,PRaM,2021.2.3,Win32,60.10699044,61b8f3437b89212fae0dfadf
6,2.2539,space,0.633,0,53,53,45,1,,,5e54c7fc2394ea4c99f88987,643916249d1bcd1034d84644,2023-04-14_10h01.58.052,PRaM,2021.2.3,Win32,60.10699044,61b8f3437b89212fae0dfadf
2,2.4421,space,1.4018,0,54,54,161,1,,,5e54c7fc2394ea4c99f88987,643916249d1bcd1034d84644,2023-04-14_10h01.58.052,PRaM,2021.2.3,Win32,60.10699044,61b8f3437b89212fae0dfadf
2,12.3424,space,11.0668,0,55,55,191,1,,,5e54c7fc2394ea4c99f88987,643916249d1bcd1034d84644,2023-04-14_10h01.58.052,PRaM,2021.2.3,Win32,60.10699044,61b8f3437b89212fae0dfadf
4,13.5567,space,11.9556,0,56,56,369,1,,,5e54c7fc2394ea4c99f88987,643916249d1bcd1034d84644,2023-04-14_10h01.58.052,PRaM,2021.2.3,Win32,60.10699044,61b8f3437b89212fae0dfadf
9,3.3566,space,1.8041,0,57,57,222,1,,,5e54c7fc2394ea4c99f88987,643916249d1bcd1034d84644,2023-04-14_10h01.58.052,PRaM,2021.2.3,Win32,60.10699044,61b8f3437b89212fae0dfadf
3,3.0344,space,1.3317,0,58,58,217,1,,,5e54c7fc2394ea4c99f88987,643916249d1bcd1034d84644,2023-04-14_10h01.58.052,PRaM,2021.2.3,Win32,60.10699044,61b8f3437b89212fae0dfadf
2,6.9404,space,5.2395,0,59,59,91,1,,,5e54c7fc2394ea4c99f88987,643916249d1bcd1034d84644,2023-04-14_10h01.58.052,PRaM,2021.2.3,Win32,60.10699044,61b8f3437b89212fae0dfadf
,,space,1.0255,0,60,60,203,1,,,5e54c7fc2394ea4c99f88987,643916249d1bcd1034d84644,2023-04-14_10h01.58.052,PRaM,2021.2.3,Win32,60.10699044,61b8f3437b89212fae0dfadf
3,10.4126,space,8.7338,0,61,61,200,1,,,5e54c7fc2394ea4c99f88987,643916249d1bcd1034d84644,2023-04-14_10h01.58.052,PRaM,2021.2.3,Win32,60.10699044,61b8f3437b89212fae0dfadf
3,4.3367,space,2.7992,0,62,62,284,1,,,5e54c7fc2394ea4c99f88987,643916249d1bcd1034d84644,2023-04-14_10h01.58.052,PRaM,2021.2.3,Win32,60.10699044,61b8f3437b89212fae0dfadf
1,2.497,space,0.849,0,63,63,97,1,,,5e54c7fc2394ea4c99f88987,643916249d1bcd1034d84644,2023-04-14_10h01.58.052,PRaM,2021.2.3,Win32,60.10699044,61b8f3437b89212fae0dfadf
5,4.5552,space,2.8044,0,64,64,159,1,,,5e54c7fc2394ea4c99f88987,643916249d1bcd1034d84644,2023-04-14_10h01.58.052,PRaM,2021.2.3,Win32,60.10699044,61b8f3437b89212fae0dfadf
1,2.6451,space,1.0779,0,65,65,108,1,,,5e54c7fc2394ea4c99f88987,643916249d1bcd1034d84644,2023-04-14_10h01.58.052,PRaM,2021.2.3,Win32,60.10699044,61b8f3437b89212fae0dfadf
2,2.3207,space,0.689,0,66,66,329,1,,,5e54c7fc2394ea4c99f88987,643916249d1bcd1034d84644,2023-04-14_10h01.58.052,PRaM,2021.2.3,Win32,60.10699044,61b8f3437b89212fae0dfadf
1,2.9284,space,1.3378,0,67,67,28,1,,,5e54c7fc2394ea4c99f88987,643916249d1bcd1034d84644,2023-04-14_10h01.58.052,PRaM,2021.2.3,Win32,60.10699044,61b8f3437b89212fae0dfadf
4,9.1015,space,7.4812,0,68,68,252,1,,,5e54c7fc2394ea4c99f88987,643916249d1bcd1034d84644,2023-04-14_10h01.58.052,PRaM,2021.2.3,Win32,60.10699044,61b8f3437b89212fae0dfadf
5,2.7699,space,1.1012,0,69,69,143,1,,,5e54c7fc2394ea4c99f88987,643916249d1bcd1034d84644,2023-04-14_10h01.58.052,PRaM,2021.2.3,Win32,60.10699044,61b8f3437b89212fae0dfadf
3,2.1434,space,0.5196,0,70,70,160,1,,,5e54c7fc2394ea4c99f88987,643916249d1bcd1034d84644,2023-04-14_10h01.58.052,PRaM,2021.2.3,Win32,60.10699044,61b8f3437b89212fae0dfadf
1,2.1757,space,0.584,0,71,71,89,1,,,5e54c7fc2394ea4c99f88987,643916249d1bcd1034d84644,2023-04-14_10h01.58.052,PRaM,2021.2.3,Win32,60.10699044,61b8f3437b89212fae0dfadf
1,2.6067,space,1.1902,0,72,72,129,1,,,5e54c7fc2394ea4c99f88987,643916249d1bcd1034d84644,2023-04-14_10h01.58.052,PRaM,2021.2.3,Win32,60.10699044,61b8f3437b89212fae0dfadf
3,1.8928,space,0.3021,0,73,73,361,1,,,5e54c7fc2394ea4c99f88987,643916249d1bcd1034d84644,2023-04-14_10h01.58.052,PRaM,2021.2.3,Win32,60.10699044,61b8f3437b89212fae0dfadf
3,2.4651,space,0.7708,0,74,74,204,1,,,5e54c7fc2394ea4c99f88987,643916249d1bcd1034d84644,2023-04-14_10h01.58.052,PRaM,2021.2.3,Win32,60.10699044,61b8f3437b89212fae0dfadf
1,2.8534,space,1.4002,0,75,75,253,1,,,5e54c7fc2394ea4c99f88987,643916249d1bcd1034d84644,2023-04-14_10h01.58.052,PRaM,2021.2.3,Win32,60.10699044,61b8f3437b89212fae0dfadf
1,2.437,space,0.8044,0,76,76,58,1,,,5e54c7fc2394ea4c99f88987,643916249d1bcd1034d84644,2023-04-14_10h01.58.052,PRaM,2021.2.3,Win32,60.10699044,61b8f3437b89212fae0dfadf
3,2.8623,space,1.3261,0,77,77,43,1,,,5e54c7fc2394ea4c99f88987,643916249d1bcd1034d84644,2023-04-14_10h01.58.052,PRaM,2021.2.3,Win32,60.10699044,61b8f3437b89212fae0dfadf
7,2.0249,space,0.4214,0,78,78,255,1,,,5e54c7fc2394ea4c99f88987,643916249d1bcd1034d84644,2023-04-14_10h01.58.052,PRaM,2021.2.3,Win32,60.10699044,61b8f3437b89212fae0dfadf
8,2.9976,space,1.5721,0,79,79,84,1,,,5e54c7fc2394ea4c99f88987,643916249d1bcd1034d84644,2023-04-14_10h01.58.052,PRaM,2021.2.3,Win32,60.10699044,61b8f3437b89212fae0dfadf
2,7.6819,space,6.1483,0,80,80,266,1,,,5e54c7fc2394ea4c99f88987,643916249d1bcd1034d84644,2023-04-14_10h01.58.052,PRaM,2021.2.3,Win32,60.10699044,61b8f3437b89212fae0dfadf
1,1.9877,space,0.4169,0,81,81,283,1,,,5e54c7fc2394ea4c99f88987,643916249d1bcd1034d84644,2023-04-14_10h01.58.052,PRaM,2021.2.3,Win32,60.10699044,61b8f3437b89212fae0dfadf
7,2.4137,space,0.8172,0,82,82,168,1,,,5e54c7fc2394ea4c99f88987,643916249d1bcd1034d84644,2023-04-14_10h01.58.052,PRaM,2021.2.3,Win32,60.10699044,61b8f3437b89212fae0dfadf
4,2.387,space,0.7166,0,83,83,205,1,,,5e54c7fc2394ea4c99f88987,643916249d1bcd1034d84644,2023-04-14_10h01.58.052,PRaM,2021.2.3,Win32,60.10699044,61b8f3437b89212fae0dfadf
5,3.1535,space,1.5436,0,84,84,62,1,,,5e54c7fc2394ea4c99f88987,643916249d1bcd1034d84644,2023-04-14_10h01.58.052,PRaM,2021.2.3,Win32,60.10699044,61b8f3437b89212fae0dfadf
3,2.3284,space,0.9592,0,85,85,299,1,,,5e54c7fc2394ea4c99f88987,643916249d1bcd1034d84644,2023-04-14_10h01.58.052,PRaM,2021.2.3,Win32,60.10699044,61b8f3437b89212fae0dfadf
9,1.8751,space,0.285,0,86,86,276,1,,,5e54c7fc2394ea4c99f88987,643916249d1bcd1034d84644,2023-04-14_10h01.58.052,PRaM,2021.2.3,Win32,60.10699044,61b8f3437b89212fae0dfadf
4,4.1282,space,2.4671,0,87,87,336,1,,,5e54c7fc2394ea4c99f88987,643916249d1bcd1034d84644,2023-04-14_10h01.58.052,PRaM,2021.2.3,Win32,60.10699044,61b8f3437b89212fae0dfadf
2,2.104,space,0.4353,0,88,88,257,1,,,5e54c7fc2394ea4c99f88987,643916249d1bcd1034d84644,2023-04-14_10h01.58.052,PRaM,2021.2.3,Win32,60.10699044,61b8f3437b89212fae0dfadf
5,3.4364,space,1.733,0,89,89,325,1,,,5e54c7fc2394ea4c99f88987,643916249d1bcd1034d84644,2023-04-14_10h01.58.052,PRaM,2021.2.3,Win32,60.10699044,61b8f3437b89212fae0dfadf
6,1.7597,space,0.0856,0,90,90,12,1,,,5e54c7fc2394ea4c99f88987,643916249d1bcd1034d84644,2023-04-14_10h01.58.052,PRaM,2021.2.3,Win32,60.10699044,61b8f3437b89212fae0dfadf
5,2.5037,space,0.8261,0,91,91,306,1,,,5e54c7fc2394ea4c99f88987,643916249d1bcd1034d84644,2023-04-14_10h01.58.052,PRaM,2021.2.3,Win32,60.10699044,61b8f3437b89212fae0dfadf
1,4.9198,space,3.3069,0,92,92,39,1,,,5e54c7fc2394ea4c99f88987,643916249d1bcd1034d84644,2023-04-14_10h01.58.052,PRaM,2021.2.3,Win32,60.10699044,61b8f3437b89212fae0dfadf
1,5.5326,space,3.9084,0,93,93,23,1,,,5e54c7fc2394ea4c99f88987,643916249d1bcd1034d84644,2023-04-14_10h01.58.052,PRaM,2021.2.3,Win32,60.10699044,61b8f3437b89212fae0dfadf
2,1.8039,space,0.2155,0,94,94,141,1,,,5e54c7fc2394ea4c99f88987,643916249d1bcd1034d84644,2023-04-14_10h01.58.052,PRaM,2021.2.3,Win32,60.10699044,61b8f3437b89212fae0dfadf
8,2.26,space,1.7336,0,95,95,347,1,,,5e54c7fc2394ea4c99f88987,643916249d1bcd1034d84644,2023-04-14_10h01.58.052,PRaM,2021.2.3,Win32,60.10699044,61b8f3437b89212fae0dfadf
2,4.2365,space,2.6837,0,96,96,101,1,,,5e54c7fc2394ea4c99f88987,643916249d1bcd1034d84644,2023-04-14_10h01.58.052,PRaM,2021.2.3,Win32,60.10699044,61b8f3437b89212fae0dfadf
5,3.5201,space,1.9288,0,97,97,321,1,,,5e54c7fc2394ea4c99f88987,643916249d1bcd1034d84644,2023-04-14_10h01.58.052,PRaM,2021.2.3,Win32,60.10699044,61b8f3437b89212fae0dfadf
6,2.6412,space,0.967,0,98,98,288,1,,,5e54c7fc2394ea4c99f88987,643916249d1bcd1034d84644,2023-04-14_10h01.58.052,PRaM,2021.2.3,Win32,60.10699044,61b8f3437b89212fae0dfadf
2,2.4317,space,0.7624,0,99,99,98,1,,,5e54c7fc2394ea4c99f88987,643916249d1bcd1034d84644,2023-04-14_10h01.58.052,PRaM,2021.2.3,Win32,60.10699044,61b8f3437b89212fae0dfadf
3,2.6765,space,1.05,0,100,100,215,1,,,5e54c7fc2394ea4c99f88987,643916249d1bcd1034d84644,2023-04-14_10h01.58.052,PRaM,2021.2.3,Win32,60.10699044,61b8f3437b89212fae0dfadf
1,3.4241,space,2.1128,0,101,101,70,1,,,5e54c7fc2394ea4c99f88987,643916249d1bcd1034d84644,2023-04-14_10h01.58.052,PRaM,2021.2.3,Win32,60.10699044,61b8f3437b89212fae0dfadf
1,11.0949,space,9.5977,0,102,102,11,1,,,5e54c7fc2394ea4c99f88987,643916249d1bcd1034d84644,2023-04-14_10h01.58.052,PRaM,2021.2.3,Win32,60.10699044,61b8f3437b89212fae0dfadf
4,1.8371,space,0.2732,0,103,103,29,1,,,5e54c7fc2394ea4c99f88987,643916249d1bcd1034d84644,2023-04-14_10h01.58.052,PRaM,2021.2.3,Win32,60.10699044,61b8f3437b89212fae0dfadf
1,3.8643,space,2.2079,0,104,104,125,1,,,5e54c7fc2394ea4c99f88987,643916249d1bcd1034d84644,2023-04-14_10h01.58.052,PRaM,2021.2.3,Win32,60.10699044,61b8f3437b89212fae0dfadf
4,2.8069,space,1.2987,0,105,105,68,1,,,5e54c7fc2394ea4c99f88987,643916249d1bcd1034d84644,2023-04-14_10h01.58.052,PRaM,2021.2.3,Win32,60.10699044,61b8f3437b89212fae0dfadf
2,3.2903,space,1.6563,0,106,106,81,1,,,5e54c7fc2394ea4c99f88987,643916249d1bcd1034d84644,2023-04-14_10h01.58.052,PRaM,2021.2.3,Win32,60.10699044,61b8f3437b89212fae0dfadf
6,2.0156,space,0.3523,0,107,107,14,1,,,5e54c7fc2394ea4c99f88987,643916249d1bcd1034d84644,2023-04-14_10h01.58.052,PRaM,2021.2.3,Win32,60.10699044,61b8f3437b89212fae0dfadf
3,2.2539,space,0.5575,0,108,108,162,1,,,5e54c7fc2394ea4c99f88987,643916249d1bcd1034d84644,2023-04-14_10h01.58.052,PRaM,2021.2.3,Win32,60.10699044,61b8f3437b89212fae0dfadf
1,3.5714,space,1.9431,0,109,109,35,1,,,5e54c7fc2394ea4c99f88987,643916249d1bcd1034d84644,2023-04-14_10h01.58.052,PRaM,2021.2.3,Win32,60.10699044,61b8f3437b89212fae0dfadf
1,2.2555,space,0.6297,0,110,110,342,1,,,5e54c7fc2394ea4c99f88987,643916249d1bcd1034d84644,2023-04-14_10h01.58.052,PRaM,2021.2.3,Win32,60.10699044,61b8f3437b89212fae0dfadf
3,2.0873,space,0.6753,0,111,111,261,1,,,5e54c7fc2394ea4c99f88987,643916249d1bcd1034d84644,2023-04-14_10h01.58.052,PRaM,2021.2.3,Win32,60.10699044,61b8f3437b89212fae0dfadf
2,2.9705,space,1.3039,0,112,112,362,1,,,5e54c7fc2394ea4c99f88987,643916249d1bcd1034d84644,2023-04-14_10h01.58.052,PRaM,2021.2.3,Win32,60.10699044,61b8f3437b89212fae0dfadf
4,2.1792,space,0.5291,0,113,113,179,1,,,5e54c7fc2394ea4c99f88987,643916249d1bcd1034d84644,2023-04-14_10h01.58.052,PRaM,2021.2.3,Win32,60.10699044,61b8f3437b89212fae0dfadf
5,2.4201,space,0.8333,0,114,114,164,1,,,5e54c7fc2394ea4c99f88987,643916249d1bcd1034d84644,2023-04-14_10h01.58.052,PRaM,2021.2.3,Win32,60.10699044,61b8f3437b89212fae0dfadf
6,1.9094,space,0.4851,0,115,115,285,1,,,5e54c7fc2394ea4c99f88987,643916249d1bcd1034d84644,2023-04-14_10h01.58.052,PRaM,2021.2.3,Win32,60.10699044,61b8f3437b89212fae0dfadf
8,2.404,space,1.047,0,116,116,207,1,,,5e54c7fc2394ea4c99f88987,643916249d1bcd1034d84644,2023-04-14_10h01.58.052,PRaM,2021.2.3,Win32,60.10699044,61b8f3437b89212fae0dfadf
1,2.3376,space,0.7498,0,117,117,155,1,,,5e54c7fc2394ea4c99f88987,643916249d1bcd1034d84644,2023-04-14_10h01.58.052,PRaM,2021.2.3,Win32,60.10699044,61b8f3437b89212fae0dfadf
9,2.778,space,1.2042,0,118,118,137,1,,,5e54c7fc2394ea4c99f88987,643916249d1bcd1034d84644,2023-04-14_10h01.58.052,PRaM,2021.2.3,Win32,60.10699044,61b8f3437b89212fae0dfadf
3,2.5539,space,0.953,0,119,119,183,1,,,5e54c7fc2394ea4c99f88987,643916249d1bcd1034d84644,2023-04-14_10h01.58.052,PRaM,2021.2.3,Win32,60.10699044,61b8f3437b89212fae0dfadf
1,2.0372,space,0.5189,0,120,120,241,1,,,5e54c7fc2394ea4c99f88987,643916249d1bcd1034d84644,2023-04-14_10h01.58.052,PRaM,2021.2.3,Win32,60.10699044,61b8f3437b89212fae0dfadf
6,14.3334,space,12.6998,0,121,121,301,1,,,5e54c7fc2394ea4c99f88987,643916249d1bcd1034d84644,2023-04-14_10h01.58.052,PRaM,2021.2.3,Win32,60.10699044,61b8f3437b89212fae0dfadf
1,6.3785,space,4.7393,0,122,122,224,1,,,5e54c7fc2394ea4c99f88987,643916249d1bcd1034d84644,2023-04-14_10h01.58.052,PRaM,2021.2.3,Win32,60.10699044,61b8f3437b89212fae0dfadf
2,2.8214,space,1.2159,0,123,123,311,1,,,5e54c7fc2394ea4c99f88987,643916249d1bcd1034d84644,2023-04-14_10h01.58.052,PRaM,2021.2.3,Win32,60.10699044,61b8f3437b89212fae0dfadf
5,2.4472,space,0.7996,0,124,124,196,1,,,5e54c7fc2394ea4c99f88987,643916249d1bcd1034d84644,2023-04-14_10h01.58.052,PRaM,2021.2.3,Win32,60.10699044,61b8f3437b89212fae0dfadf
2,4.7278,space,3.0994,0,125,125,47,1,,,5e54c7fc2394ea4c99f88987,643916249d1bcd1034d84644,2023-04-14_10h01.58.052,PRaM,2021.2.3,Win32,60.10699044,61b8f3437b89212fae0dfadf
3,2.2115,space,0.5571,0,126,126,72,1,,,5e54c7fc2394ea4c99f88987,643916249d1bcd1034d84644,2023-04-14_10h01.58.052,PRaM,2021.2.3,Win32,60.10699044,61b8f3437b89212fae0dfadf
1,1.9876,space,0.3573,0,127,127,300,1,,,5e54c7fc2394ea4c99f88987,643916249d1bcd1034d84644,2023-04-14_10h01.58.052,PRaM,2021.2.3,Win32,60.10699044,61b8f3437b89212fae0dfadf
1,3.1533,space,1.522,0,128,128,13,1,,,5e54c7fc2394ea4c99f88987,643916249d1bcd1034d84644,2023-04-14_10h01.58.052,PRaM,2021.2.3,Win32,60.10699044,61b8f3437b89212fae0dfadf
1,2.6449,space,0.9687,0,129,129,77,1,,,5e54c7fc2394ea4c99f88987,643916249d1bcd1034d84644,2023-04-14_10h01.58.052,PRaM,2021.2.3,Win32,60.10699044,61b8f3437b89212fae0dfadf
5,2.6201,space,1.386,0,130,130,114,1,,,5e54c7fc2394ea4c99f88987,643916249d1bcd1034d84644,2023-04-14_10h01.58.052,PRaM,2021.2.3,Win32,60.10699044,61b8f3437b89212fae0dfadf
3,2.1242,space,0.7468,0,131,131,178,1,,,5e54c7fc2394ea4c99f88987,643916249d1bcd1034d84644,2023-04-14_10h01.58.052,PRaM,2021.2.3,Win32,60.10699044,61b8f3437b89212fae0dfadf
5,2.8366,space,1.1016,0,132,132,7,1,,,5e54c7fc2394ea4c99f88987,643916249d1bcd1034d84644,2023-04-14_10h01.58.052,PRaM,2021.2.3,Win32,60.10699044,61b8f3437b89212fae0dfadf
5,2.5762,space,1.1522,0,133,133,216,1,,,5e54c7fc2394ea4c99f88987,643916249d1bcd1034d84644,2023-04-14_10h01.58.052,PRaM,2021.2.3,Win32,60.10699044,61b8f3437b89212fae0dfadf
1,1.7934,space,0.385,0,134,134,293,1,,,5e54c7fc2394ea4c99f88987,643916249d1bcd1034d84644,2023-04-14_10h01.58.052,PRaM,2021.2.3,Win32,60.10699044,61b8f3437b89212fae0dfadf
2,1.7716,space,0.0928,0,135,135,272,1,,,5e54c7fc2394ea4c99f88987,643916249d1bcd1034d84644,2023-04-14_10h01.58.052,PRaM,2021.2.3,Win32,60.10699044,61b8f3437b89212fae0dfadf
1,1.6045,space,2.3526,0,136,136,41,1,,,5e54c7fc2394ea4c99f88987,643916249d1bcd1034d84644,2023-04-14_10h01.58.052,PRaM,2021.2.3,Win32,60.10699044,61b8f3437b89212fae0dfadf
6,3.304,space,1.7072,0,137,137,297,1,,,5e54c7fc2394ea4c99f88987,643916249d1bcd1034d84644,2023-04-14_10h01.58.052,PRaM,2021.2.3,Win32,60.10699044,61b8f3437b89212fae0dfadf
1,2.2951,space,1.6255,0,138,138,106,1,,,5e54c7fc2394ea4c99f88987,643916249d1bcd1034d84644,2023-04-14_10h01.58.052,PRaM,2021.2.3,Win32,60.10699044,61b8f3437b89212fae0dfadf
5,3.4561,space,2.1331,0,139,139,80,1,,,5e54c7fc2394ea4c99f88987,643916249d1bcd1034d84644,2023-04-14_10h01.58.052,PRaM,2021.2.3,Win32,60.10699044,61b8f3437b89212fae0dfadf
2,84.1179,space,82.6576,0,140,140,332,1,,,5e54c7fc2394ea4c99f88987,643916249d1bcd1034d84644,2023-04-14_10h01.58.052,PRaM,2021.2.3,Win32,60.10699044,61b8f3437b89212fae0dfadf
1,1.8075,space,0.2917,0,141,141,95,1,,,5e54c7fc2394ea4c99f88987,643916249d1bcd1034d84644,2023-04-14_10h01.58.052,PRaM,2021.2.3,Win32,60.10699044,61b8f3437b89212fae0dfadf
9,1.9709,space,0.4536,0,142,142,75,1,,,5e54c7fc2394ea4c99f88987,643916249d1bcd1034d84644,2023-04-14_10h01.58.052,PRaM,2021.2.3,Win32,60.10699044,61b8f3437b89212fae0dfadf
4,1.8101,space,0.1019,0,143,143,145,1,,,5e54c7fc2394ea4c99f88987,643916249d1bcd1034d84644,2023-04-14_10h01.58.052,PRaM,2021.2.3,Win32,60.10699044,61b8f3437b89212fae0dfadf
5,1.8879,space,0.2283,0,144,144,182,1,,,5e54c7fc2394ea4c99f88987,643916249d1bcd1034d84644,2023-04-14_10h01.58.052,PRaM,2021.2.3,Win32,60.10699044,61b8f3437b89212fae0dfadf
2,2.3374,space,0.9589,0,145,145,18,1,,,5e54c7fc2394ea4c99f88987,643916249d1bcd1034d84644,2023-04-14_10h01.58.052,PRaM,2021.2.3,Win32,60.10699044,61b8f3437b89212fae0dfadf
4,2.2649,space,0.5903,0,146,146,337,1,,,5e54c7fc2394ea4c99f88987,643916249d1bcd1034d84644,2023-04-14_10h01.58.052,PRaM,2021.2.3,Win32,60.10699044,61b8f3437b89212fae0dfadf
3,2.2872,space,0.5845,0,147,147,44,1,,,5e54c7fc2394ea4c99f88987,643916249d1bcd1034d84644,2023-04-14_10h01.58.052,PRaM,2021.2.3,Win32,60.10699044,61b8f3437b89212fae0dfadf
6,2.2795,space,0.685,0,148,148,192,1,,,5e54c7fc2394ea4c99f88987,643916249d1bcd1034d84644,2023-04-14_10h01.58.052,PRaM,2021.2.3,Win32,60.10699044,61b8f3437b89212fae0dfadf
2,1.9556,space,0.3425,0,149,149,177,1,,,5e54c7fc2394ea4c99f88987,643916249d1bcd1034d84644,2023-04-14_10h01.58.052,PRaM,2021.2.3,Win32,60.10699044,61b8f3437b89212fae0dfadf
4,3.9804,space,2.4,0,150,150,40,1,,,5e54c7fc2394ea4c99f88987,643916249d1bcd1034d84644,2023-04-14_10h01.58.052,PRaM,2021.2.3,Win32,60.10699044,61b8f3437b89212fae0dfadf
7,1.9707,space,0.5631,0,151,151,83,1,,,5e54c7fc2394ea4c99f88987,643916249d1bcd1034d84644,2023-04-14_10h01.58.052,PRaM,2021.2.3,Win32,60.10699044,61b8f3437b89212fae0dfadf
5,2.79,space,1.1003,0,152,152,352,1,,,5e54c7fc2394ea4c99f88987,643916249d1bcd1034d84644,2023-04-14_10h01.58.052,PRaM,2021.2.3,Win32,60.10699044,61b8f3437b89212fae0dfadf
6,2.6623,space,0.909,0,153,153,120,1,,,5e54c7fc2394ea4c99f88987,643916249d1bcd1034d84644,2023-04-14_10h01.58.052,PRaM,2021.2.3,Win32,60.10699044,61b8f3437b89212fae0dfadf
2,2.2121,space,0.6168,0,154,154,139,1,,,5e54c7fc2394ea4c99f88987,643916249d1bcd1034d84644,2023-04-14_10h01.58.052,PRaM,2021.2.3,Win32,60.10699044,61b8f3437b89212fae0dfadf
8,3.1202,space,1.5121,0,155,155,277,1,,,5e54c7fc2394ea4c99f88987,643916249d1bcd1034d84644,2023-04-14_10h01.58.052,PRaM,2021.2.3,Win32,60.10699044,61b8f3437b89212fae0dfadf
4,5.3932,space,3.7493,0,156,156,66,1,,,5e54c7fc2394ea4c99f88987,643916249d1bcd1034d84644,2023-04-14_10h01.58.052,PRaM,2021.2.3,Win32,60.10699044,61b8f3437b89212fae0dfadf
6,1.9085,space,0.2002,0,157,157,127,1,,,5e54c7fc2394ea4c99f88987,643916249d1bcd1034d84644,2023-04-14_10h01.58.052,PRaM,2021.2.3,Win32,60.10699044,61b8f3437b89212fae0dfadf
2,2.9065,space,1.2574,0,158,158,71,1,,,5e54c7fc2394ea4c99f88987,643916249d1bcd1034d84644,2023-04-14_10h01.58.052,PRaM,2021.2.3,Win32,60.10699044,61b8f3437b89212fae0dfadf
1,1.9443,space,0.3336,0,159,159,309,1,,,5e54c7fc2394ea4c99f88987,643916249d1bcd1034d84644,2023-04-14_10h01.58.052,PRaM,2021.2.3,Win32,60.10699044,61b8f3437b89212fae0dfadf
4,2.5067,space,0.8088,0,160,160,119,1,,,5e54c7fc2394ea4c99f88987,643916249d1bcd1034d84644,2023-04-14_10h01.58.052,PRaM,2021.2.3,Win32,60.10699044,61b8f3437b89212fae0dfadf
1,2.104,space,0.5004,0,161,161,27,1,,,5e54c7fc2394ea4c99f88987,643916249d1bcd1034d84644,2023-04-14_10h01.58.052,PRaM,2021.2.3,Win32,60.10699044,61b8f3437b89212fae0dfadf
4,8.2292,space,7.1695,0,162,162,107,1,,,5e54c7fc2394ea4c99f88987,643916249d1bcd1034d84644,2023-04-14_10h01.58.052,PRaM,2021.2.3,Win32,60.10699044,61b8f3437b89212fae0dfadf
8,3.3533,space,1.8663,0,163,163,20,1,,,5e54c7fc2394ea4c99f88987,643916249d1bcd1034d84644,2023-04-14_10h01.58.052,PRaM,2021.2.3,Win32,60.10699044,61b8f3437b89212fae0dfadf
9,1.427,space,0.9878,0,164,164,323,1,,,5e54c7fc2394ea4c99f88987,643916249d1bcd1034d84644,2023-04-14_10h01.58.052,PRaM,2021.2.3,Win32,60.10699044,61b8f3437b89212fae0dfadf
3,1.9068,space,0.1338,0,165,165,104,1,,,5e54c7fc2394ea4c99f88987,643916249d1bcd1034d84644,2023-04-14_10h01.58.052,PRaM,2021.2.3,Win32,60.10699044,61b8f3437b89212fae0dfadf
1,1.7706,space,0.1685,0,166,166,212,1,,,5e54c7fc2394ea4c99f88987,643916249d1bcd1034d84644,2023-04-14_10h01.58.052,PRaM,2021.2.3,Win32,60.10699044,61b8f3437b89212fae0dfadf
2,2.0279,space,0.3502,0,167,167,286,1,,,5e54c7fc2394ea4c99f88987,643916249d1bcd1034d84644,2023-04-14_10h01.58.052,PRaM,2021.2.3,Win32,60.10699044,61b8f3437b89212fae0dfadf
6,2.5384,space,0.8552,0,168,168,180,1,,,5e54c7fc2394ea4c99f88987,643916249d1bcd1034d84644,2023-04-14_10h01.58.052,PRaM,2021.2.3,Win32,60.10699044,61b8f3437b89212fae0dfadf
3,2.4538,space,0.6755,0,169,169,340,1,,,5e54c7fc2394ea4c99f88987,643916249d1bcd1034d84644,2023-04-14_10h01.58.052,PRaM,2021.2.3,Win32,60.10699044,61b8f3437b89212fae0dfadf
2,1.8817,space,0.103,0,170,170,26,1,,,5e54c7fc2394ea4c99f88987,643916249d1bcd1034d84644,2023-04-14_10h01.58.052,PRaM,2021.2.3,Win32,60.10699044,61b8f3437b89212fae0dfadf
1,1.8419,space,0.267,0,171,171,322,1,,,5e54c7fc2394ea4c99f88987,643916249d1bcd1034d84644,2023-04-14_10h01.58.052,PRaM,2021.2.3,Win32,60.10699044,61b8f3437b89212fae0dfadf
7,2.5035,space,0.8174,0,172,172,140,1,,,5e54c7fc2394ea4c99f88987,643916249d1bcd1034d84644,2023-04-14_10h01.58.052,PRaM,2021.2.3,Win32,60.10699044,61b8f3437b89212fae0dfadf
1,2.2372,space,0.583,0,173,173,315,1,,,5e54c7fc2394ea4c99f88987,643916249d1bcd1034d84644,2023-04-14_10h01.58.052,PRaM,2021.2.3,Win32,60.10699044,61b8f3437b89212fae0dfadf
1,2.548,space,0.9098,0,174,174,345,1,,,5e54c7fc2394ea4c99f88987,643916249d1bcd1034d84644,2023-04-14_10h01.58.052,PRaM,2021.2.3,Win32,60.10699044,61b8f3437b89212fae0dfadf
6,2.8869,space,1.182,0,175,175,254,1,,,5e54c7fc2394ea4c99f88987,643916249d1bcd1034d84644,2023-04-14_10h01.58.052,PRaM,2021.2.3,Win32,60.10699044,61b8f3437b89212fae0dfadf
1,2.8405,space,1.2109,0,176,176,138,1,,,5e54c7fc2394ea4c99f88987,643916249d1bcd1034d84644,2023-04-14_10h01.58.052,PRaM,2021.2.3,Win32,60.10699044,61b8f3437b89212fae0dfadf
1,1.8905,space,0.205,0,177,177,188,1,,,5e54c7fc2394ea4c99f88987,643916249d1bcd1034d84644,2023-04-14_10h01.58.052,PRaM,2021.2.3,Win32,60.10699044,61b8f3437b89212fae0dfadf
3,2.0481,space,0.3374,0,178,178,46,1,,,5e54c7fc2394ea4c99f88987,643916249d1bcd1034d84644,2023-04-14_10h01.58.052,PRaM,2021.2.3,Win32,60.10699044,61b8f3437b89212fae0dfadf
1,1.7206,space,0.3414,0,179,179,330,1,,,5e54c7fc2394ea4c99f88987,643916249d1bcd1034d84644,2023-04-14_10h01.58.052,PRaM,2021.2.3,Win32,60.10699044,61b8f3437b89212fae0dfadf
5,2.8053,space,1.1687,0,180,180,199,1,,,5e54c7fc2394ea4c99f88987,643916249d1bcd1034d84644,2023-04-14_10h01.58.052,PRaM,2021.2.3,Win32,60.10699044,61b8f3437b89212fae0dfadf
1,1.7206,space,0.1674,0,181,181,247,1,,,5e54c7fc2394ea4c99f88987,643916249d1bcd1034d84644,2023-04-14_10h01.58.052,PRaM,2021.2.3,Win32,60.10699044,61b8f3437b89212fae0dfadf
2,4.7442,space,3.2325,0,182,182,3,1,,,5e54c7fc2394ea4c99f88987,643916249d1bcd1034d84644,2023-04-14_10h01.58.052,PRaM,2021.2.3,Win32,60.10699044,61b8f3437b89212fae0dfadf
9,2.2883,space,0.7241,0,183,183,372,1,,,5e54c7fc2394ea4c99f88987,643916249d1bcd1034d84644,2023-04-14_10h01.58.052,PRaM,2021.2.3,Win32,60.10699044,61b8f3437b89212fae0dfadf
1,2.7791,space,1.1239,0,184,184,176,1,,,5e54c7fc2394ea4c99f88987,643916249d1bcd1034d84644,2023-04-14_10h01.58.052,PRaM,2021.2.3,Win32,60.10699044,61b8f3437b89212fae0dfadf
5,3.6958,space,2.0012,0,185,185,364,1,,,5e54c7fc2394ea4c99f88987,643916249d1bcd1034d84644,2023-04-14_10h01.58.052,PRaM,2021.2.3,Win32,60.10699044,61b8f3437b89212fae0dfadf
1,2.1541,space,0.4653,0,186,186,262,1,,,5e54c7fc2394ea4c99f88987,643916249d1bcd1034d84644,2023-04-14_10h01.58.052,PRaM,2021.2.3,Win32,60.10699044,61b8f3437b89212fae0dfadf
1,2.3657,space,0.7445,0,187,187,113,1,,,5e54c7fc2394ea4c99f88987,643916249d1bcd1034d84644,2023-04-14_10h01.58.052,PRaM,2021.2.3,Win32,60.10699044,61b8f3437b89212fae0dfadf
2,2.5982,space,0.9098,0,188,188,324,1,,,5e54c7fc2394ea4c99f88987,643916249d1bcd1034d84644,2023-04-14_10h01.58.052,PRaM,2021.2.3,Win32,60.10699044,61b8f3437b89212fae0dfadf
3,2.9289,space,1.3518,0,189,189,339,1,,,5e54c7fc2394ea4c99f88987,643916249d1bcd1034d84644,2023-04-14_10h01.58.052,PRaM,2021.2.3,Win32,60.10699044,61b8f3437b89212fae0dfadf
5,1.8703,space,0.14,0,190,190,228,1,,,5e54c7fc2394ea4c99f88987,643916249d1bcd1034d84644,2023-04-14_10h01.58.052,PRaM,2021.2.3,Win32,60.10699044,61b8f3437b89212fae0dfadf
4,3.6283,space,2.3164,0,191,191,33,1,,,5e54c7fc2394ea4c99f88987,643916249d1bcd1034d84644,2023-04-14_10h01.58.052,PRaM,2021.2.3,Win32,60.10699044,61b8f3437b89212fae0dfadf
1,1.675,space,0.8094,0,192,192,8,1,,,5e54c7fc2394ea4c99f88987,643916249d1bcd1034d84644,2023-04-14_10h01.58.052,PRaM,2021.2.3,Win32,60.10699044,61b8f3437b89212fae0dfadf
3,3.0126,space,1.3665,0,193,193,341,1,,,5e54c7fc2394ea4c99f88987,643916249d1bcd1034d84644,2023-04-14_10h01.58.052,PRaM,2021.2.3,Win32,60.10699044,61b8f3437b89212fae0dfadf
2,2.3595,space,0.5372,0,194,194,317,1,,,5e54c7fc2394ea4c99f88987,643916249d1bcd1034d84644,2023-04-14_10h01.58.052,PRaM,2021.2.3,Win32,60.10699044,61b8f3437b89212fae0dfadf
5,3.2711,space,1.6407,0,195,195,100,1,,,5e54c7fc2394ea4c99f88987,643916249d1bcd1034d84644,2023-04-14_10h01.58.052,PRaM,2021.2.3,Win32,60.10699044,61b8f3437b89212fae0dfadf
1,1.9238,space,0.4004,0,196,196,292,1,,,5e54c7fc2394ea4c99f88987,643916249d1bcd1034d84644,2023-04-14_10h01.58.052,PRaM,2021.2.3,Win32,60.10699044,61b8f3437b89212fae0dfadf
1,9.7287,space,8.4641,0,197,197,116,1,,,5e54c7fc2394ea4c99f88987,643916249d1bcd1034d84644,2023-04-14_10h01.58.052,PRaM,2021.2.3,Win32,60.10699044,61b8f3437b89212fae0dfadf
6,3.6123,space,2.0289,0,198,198,17,1,,,5e54c7fc2394ea4c99f88987,643916249d1bcd1034d84644,2023-04-14_10h01.58.052,PRaM,2021.2.3,Win32,60.10699044,61b8f3437b89212fae0dfadf
4,2.4285,space,0.7671,0,199,199,298,1,,,5e54c7fc2394ea4c99f88987,643916249d1bcd1034d84644,2023-04-14_10h01.58.052,PRaM,2021.2.3,Win32,60.10699044,61b8f3437b89212fae0dfadf
7,1.9142,space,0.2375,0,200,200,134,1,,,5e54c7fc2394ea4c99f88987,643916249d1bcd1034d84644,2023-04-14_10h01.58.052,PRaM,2021.2.3,Win32,60.10699044,61b8f3437b89212fae0dfadf
3,1.9541,space,0.2371,0,201,201,338,1,,,5e54c7fc2394ea4c99f88987,643916249d1bcd1034d84644,2023-04-14_10h01.58.052,PRaM,2021.2.3,Win32,60.10699044,61b8f3437b89212fae0dfadf
7,2.0872,space,0.4961,0,202,202,149,1,,,5e54c7fc2394ea4c99f88987,643916249d1bcd1034d84644,2023-04-14_10h01.58.052,PRaM,2021.2.3,Win32,60.10699044,61b8f3437b89212fae0dfadf
4,2.7984,space,1.1178,0,203,203,169,1,,,5e54c7fc2394ea4c99f88987,643916249d1bcd1034d84644,2023-04-14_10h01.58.052,PRaM,2021.2.3,Win32,60.10699044,61b8f3437b89212fae0dfadf
1,2.0483,space,0.3346,0,204,204,232,1,,,5e54c7fc2394ea4c99f88987,643916249d1bcd1034d84644,2023-04-14_10h01.58.052,PRaM,2021.2.3,Win32,60.10699044,61b8f3437b89212fae0dfadf
2,3.1242,space,1.563,0,205,205,303,1,,,5e54c7fc2394ea4c99f88987,643916249d1bcd1034d84644,2023-04-14_10h01.58.052,PRaM,2021.2.3,Win32,60.10699044,61b8f3437b89212fae0dfadf
1,2.9312,space,1.3017,0,206,206,163,1,,,5e54c7fc2394ea4c99f88987,643916249d1bcd1034d84644,2023-04-14_10h01.58.052,PRaM,2021.2.3,Win32,60.10699044,61b8f3437b89212fae0dfadf
1,7.6229,space,6.2586,0,207,207,124,1,,,5e54c7fc2394ea4c99f88987,643916249d1bcd1034d84644,2023-04-14_10h01.58.052,PRaM,2021.2.3,Win32,60.10699044,61b8f3437b89212fae0dfadf
8,2.8912,space,1.3171,0,208,208,74,1,,,5e54c7fc2394ea4c99f88987,643916249d1bcd1034d84644,2023-04-14_10h01.58.052,PRaM,2021.2.3,Win32,60.10699044,61b8f3437b89212fae0dfadf
2,1.9813,space,0.2715,0,209,209,313,1,,,5e54c7fc2394ea4c99f88987,643916249d1bcd1034d84644,2023-04-14_10h01.58.052,PRaM,2021.2.3,Win32,60.10699044,61b8f3437b89212fae0dfadf
4,2.1875,space,0.4425,0,210,210,19,1,,,5e54c7fc2394ea4c99f88987,643916249d1bcd1034d84644,2023-04-14_10h01.58.052,PRaM,2021.2.3,Win32,60.10699044,61b8f3437b89212fae0dfadf
6,2.4289,space,0.983,0,211,211,328,1,,,5e54c7fc2394ea4c99f88987,643916249d1bcd1034d84644,2023-04-14_10h01.58.052,PRaM,2021.2.3,Win32,60.10699044,61b8f3437b89212fae0dfadf
1,1.7476,space,0.1336,0,212,212,250,1,,,5e54c7fc2394ea4c99f88987,643916249d1bcd1034d84644,2023-04-14_10h01.58.052,PRaM,2021.2.3,Win32,60.10699044,61b8f3437b89212fae0dfadf
6,3.1122,space,1.3677,0,213,213,112,1,,,5e54c7fc2394ea4c99f88987,643916249d1bcd1034d84644,2023-04-14_10h01.58.052,PRaM,2021.2.3,Win32,60.10699044,61b8f3437b89212fae0dfadf
5,2.5114,space,0.8334,0,214,214,274,1,,,5e54c7fc2394ea4c99f88987,643916249d1bcd1034d84644,2023-04-14_10h01.58.052,PRaM,2021.2.3,Win32,60.10699044,61b8f3437b89212fae0dfadf
2,2.0103,space,0.4188,0,215,215,96,1,,,5e54c7fc2394ea4c99f88987,643916249d1bcd1034d84644,2023-04-14_10h01.58.052,PRaM,2021.2.3,Win32,60.10699044,61b8f3437b89212fae0dfadf
6,1.8432,space,0.0552,0,216,216,132,1,,,5e54c7fc2394ea4c99f88987,643916249d1bcd1034d84644,2023-04-14_10h01.58.052,PRaM,2021.2.3,Win32,60.10699044,61b8f3437b89212fae0dfadf
3,2.8586,space,1.2237,0,217,217,209,1,,,5e54c7fc2394ea4c99f88987,643916249d1bcd1034d84644,2023-04-14_10h01.58.052,PRaM,2021.2.3,Win32,60.10699044,61b8f3437b89212fae0dfadf
4,2.3784,space,0.7231,0,218,218,271,1,,,5e54c7fc2394ea4c99f88987,643916249d1bcd1034d84644,2023-04-14_10h01.58.052,PRaM,2021.2.3,Win32,60.10699044,61b8f3437b89212fae0dfadf
6,2.3202,space,0.6679,0,219,219,165,1,,,5e54c7fc2394ea4c99f88987,643916249d1bcd1034d84644,2023-04-14_10h01.58.052,PRaM,2021.2.3,Win32,60.10699044,61b8f3437b89212fae0dfadf
2,1.7707,space,0.0252,0,220,220,167,1,,,5e54c7fc2394ea4c99f88987,643916249d1bcd1034d84644,2023-04-14_10h01.58.052,PRaM,2021.2.3,Win32,60.10699044,61b8f3437b89212fae0dfadf
1,1.589,space,0.7884,0,221,221,190,1,,,5e54c7fc2394ea4c99f88987,643916249d1bcd1034d84644,2023-04-14_10h01.58.052,PRaM,2021.2.3,Win32,60.10699044,61b8f3437b89212fae0dfadf
1,8.3183,space,6.6693,0,222,222,184,1,,,5e54c7fc2394ea4c99f88987,643916249d1bcd1034d84644,2023-04-14_10h01.58.052,PRaM,2021.2.3,Win32,60.10699044,61b8f3437b89212fae0dfadf
4,1.7061,space,0.0511,0,223,223,296,1,,,5e54c7fc2394ea4c99f88987,643916249d1bcd1034d84644,2023-04-14_10h01.58.052,PRaM,2021.2.3,Win32,60.10699044,61b8f3437b89212fae0dfadf
1,1.3878,space,0.5545,0,224,224,374,1,,,5e54c7fc2394ea4c99f88987,643916249d1bcd1034d84644,2023-04-14_10h01.58.052,PRaM,2021.2.3,Win32,60.10699044,61b8f3437b89212fae0dfadf
2,2.154,space,0.4171,0,225,225,172,1,,,5e54c7fc2394ea4c99f88987,643916249d1bcd1034d84644,2023-04-14_10h01.58.052,PRaM,2021.2.3,Win32,60.10699044,61b8f3437b89212fae0dfadf
1,1.5811,space,0.4339,0,226,226,248,1,,,5e54c7fc2394ea4c99f88987,643916249d1bcd1034d84644,2023-04-14_10h01.58.052,PRaM,2021.2.3,Win32,60.10699044,61b8f3437b89212fae0dfadf
4,2.3409,space,0.686,0,227,227,319,1,,,5e54c7fc2394ea4c99f88987,643916249d1bcd1034d84644,2023-04-14_10h01.58.052,PRaM,2021.2.3,Win32,60.10699044,61b8f3437b89212fae0dfadf
2,2.126,space,0.5504,0,228,228,63,1,,,5e54c7fc2394ea4c99f88987,643916249d1bcd1034d84644,2023-04-14_10h01.58.052,PRaM,2021.2.3,Win32,60.10699044,61b8f3437b89212fae0dfadf
4,2.2871,space,0.6333,0,229,229,93,1,,,5e54c7fc2394ea4c99f88987,643916249d1bcd1034d84644,2023-04-14_10h01.58.052,PRaM,2021.2.3,Win32,60.10699044,61b8f3437b89212fae0dfadf
2,2.0708,space,0.4057,0,230,230,290,1,,,5e54c7fc2394ea4c99f88987,643916249d1bcd1034d84644,2023-04-14_10h01.58.052,PRaM,2021.2.3,Win32,60.10699044,61b8f3437b89212fae0dfadf
1,2.9604,space,1.7583,0,231,231,1,1,,,5e54c7fc2394ea4c99f88987,643916249d1bcd1034d84644,2023-04-14_10h01.58.052,PRaM,2021.2.3,Win32,60.10699044,61b8f3437b89212fae0dfadf
3,3.1638,space,1.5559,0,232,232,233,1,,,5e54c7fc2394ea4c99f88987,643916249d1bcd1034d84644,2023-04-14_10h01.58.052,PRaM,2021.2.3,Win32,60.10699044,61b8f3437b89212fae0dfadf
1,1.6881,space,0.1415,0,233,233,121,1,,,5e54c7fc2394ea4c99f88987,643916249d1bcd1034d84644,2023-04-14_10h01.58.052,PRaM,2021.2.3,Win32,60.10699044,61b8f3437b89212fae0dfadf
1,3.1286,space,1.5498,0,234,234,49,1,,,5e54c7fc2394ea4c99f88987,643916249d1bcd1034d84644,2023-04-14_10h01.58.052,PRaM,2021.2.3,Win32,60.10699044,61b8f3437b89212fae0dfadf
1,17.8432,space,16.2599,0,235,235,243,1,,,5e54c7fc2394ea4c99f88987,643916249d1bcd1034d84644,2023-04-14_10h01.58.052,PRaM,2021.2.3,Win32,60.10699044,61b8f3437b89212fae0dfadf
4,7.5567,space,5.8243,0,236,236,357,1,,,5e54c7fc2394ea4c99f88987,643916249d1bcd1034d84644,2023-04-14_10h01.58.052,PRaM,2021.2.3,Win32,60.10699044,61b8f3437b89212fae0dfadf
3,2.4533,space,0.7212,0,237,237,57,1,,,5e54c7fc2394ea4c99f88987,643916249d1bcd1034d84644,2023-04-14_10h01.58.052,PRaM,2021.2.3,Win32,60.10699044,61b8f3437b89212fae0dfadf
6,2.0095,space,0.401,0,238,238,152,1,,,5e54c7fc2394ea4c99f88987,643916249d1bcd1034d84644,2023-04-14_10h01.58.052,PRaM,2021.2.3,Win32,60.10699044,61b8f3437b89212fae0dfadf
1,3.8231,space,2.1415,0,239,239,318,1,,,5e54c7fc2394ea4c99f88987,643916249d1bcd1034d84644,2023-04-14_10h01.58.052,PRaM,2021.2.3,Win32,60.10699044,61b8f3437b89212fae0dfadf
4,3.4863,space,1.8741,0,240,240,282,1,,,5e54c7fc2394ea4c99f88987,643916249d1bcd1034d84644,2023-04-14_10h01.58.052,PRaM,2021.2.3,Win32,60.10699044,61b8f3437b89212fae0dfadf
5,3.2309,space,1.5729,0,241,241,69,1,,,5e54c7fc2394ea4c99f88987,643916249d1bcd1034d84644,2023-04-14_10h01.58.052,PRaM,2021.2.3,Win32,60.10699044,61b8f3437b89212fae0dfadf
1,2.5874,space,0.9492,0,242,242,295,1,,,5e54c7fc2394ea4c99f88987,643916249d1bcd1034d84644,2023-04-14_10h01.58.052,PRaM,2021.2.3,Win32,60.10699044,61b8f3437b89212fae0dfadf
4,8.2494,space,6.5238,0,243,243,110,1,,,5e54c7fc2394ea4c99f88987,643916249d1bcd1034d84644,2023-04-14_10h01.58.052,PRaM,2021.2.3,Win32,60.10699044,61b8f3437b89212fae0dfadf
1,2.1616,space,0.4961,0,244,244,349,1,,,5e54c7fc2394ea4c99f88987,643916249d1bcd1034d84644,2023-04-14_10h01.58.052,PRaM,2021.2.3,Win32,60.10699044,61b8f3437b89212fae0dfadf
1,1.9114,space,0.2338,0,245,245,94,1,,,5e54c7fc2394ea4c99f88987,643916249d1bcd1034d84644,2023-04-14_10h01.58.052,PRaM,2021.2.3,Win32,60.10699044,61b8f3437b89212fae0dfadf
4,1.6132,space,0.3728,0,246,246,38,1,,,5e54c7fc2394ea4c99f88987,643916249d1bcd1034d84644,2023-04-14_10h01.58.052,PRaM,2021.2.3,Win32,60.10699044,61b8f3437b89212fae0dfadf
5,3.02,space,1.3168,0,247,247,281,1,,,5e54c7fc2394ea4c99f88987,643916249d1bcd1034d84644,2023-04-14_10h01.58.052,PRaM,2021.2.3,Win32,60.10699044,61b8f3437b89212fae0dfadf
6,2.3869,space,0.5923,0,248,248,246,1,,,5e54c7fc2394ea4c99f88987,643916249d1bcd1034d84644,2023-04-14_10h01.58.052,PRaM,2021.2.3,Win32,60.10699044,61b8f3437b89212fae0dfadf
1,1.9978,space,0.3726,0,249,249,210,1,,,5e54c7fc2394ea4c99f88987,643916249d1bcd1034d84644,2023-04-14_10h01.58.052,PRaM,2021.2.3,Win32,60.10699044,61b8f3437b89212fae0dfadf
5,5.5697,space,3.9692,0,250,250,158,1,,,5e54c7fc2394ea4c99f88987,643916249d1bcd1034d84644,2023-04-14_10h01.58.052,PRaM,2021.2.3,Win32,60.10699044,61b8f3437b89212fae0dfadf
2,1.8451,space,0.0504,0,251,251,206,1,,,5e54c7fc2394ea4c99f88987,643916249d1bcd1034d84644,2023-04-14_10h01.58.052,PRaM,2021.2.3,Win32,60.10699044,61b8f3437b89212fae0dfadf
1,2.2952,space,0.6002,0,252,252,157,1,,,5e54c7fc2394ea4c99f88987,643916249d1bcd1034d84644,2023-04-14_10h01.58.052,PRaM,2021.2.3,Win32,60.10699044,61b8f3437b89212fae0dfadf
1,1.6067,space,0.6433,0,253,253,265,1,,,5e54c7fc2394ea4c99f88987,643916249d1bcd1034d84644,2023-04-14_10h01.58.052,PRaM,2021.2.3,Win32,60.10699044,61b8f3437b89212fae0dfadf
4,1.8372,space,0.1943,0,254,254,259,1,,,5e54c7fc2394ea4c99f88987,643916249d1bcd1034d84644,2023-04-14_10h01.58.052,PRaM,2021.2.3,Win32,60.10699044,61b8f3437b89212fae0dfadf
3,1.8901,space,0.3261,0,255,255,193,1,,,5e54c7fc2394ea4c99f88987,643916249d1bcd1034d84644,2023-04-14_10h01.58.052,PRaM,2021.2.3,Win32,60.10699044,61b8f3437b89212fae0dfadf
5,2.8623,space,1.1848,0,256,256,348,1,,,5e54c7fc2394ea4c99f88987,643916249d1bcd1034d84644,2023-04-14_10h01.58.052,PRaM,2021.2.3,Win32,60.10699044,61b8f3437b89212fae0dfadf
1,1.6208,space,0.5783,0,257,257,187,1,,,5e54c7fc2394ea4c99f88987,643916249d1bcd1034d84644,2023-04-14_10h01.58.052,PRaM,2021.2.3,Win32,60.10699044,61b8f3437b89212fae0dfadf
5,1.98,space,0.891,0,258,258,320,1,,,5e54c7fc2394ea4c99f88987,643916249d1bcd1034d84644,2023-04-14_10h01.58.052,PRaM,2021.2.3,Win32,60.10699044,61b8f3437b89212fae0dfadf
7,4.8898,space,3.4657,0,259,259,61,1,,,5e54c7fc2394ea4c99f88987,643916249d1bcd1034d84644,2023-04-14_10h01.58.052,PRaM,2021.2.3,Win32,60.10699044,61b8f3437b89212fae0dfadf
4,6.6357,space,4.9821,0,260,260,304,1,,,5e54c7fc2394ea4c99f88987,643916249d1bcd1034d84644,2023-04-14_10h01.58.052,PRaM,2021.2.3,Win32,60.10699044,61b8f3437b89212fae0dfadf
6,1.8903,space,0.168,0,261,261,16,1,,,5e54c7fc2394ea4c99f88987,643916249d1bcd1034d84644,2023-04-14_10h01.58.052,PRaM,2021.2.3,Win32,60.10699044,61b8f3437b89212fae0dfadf
1,2.5431,space,0.8953,0,262,262,343,1,,,5e54c7fc2394ea4c99f88987,643916249d1bcd1034d84644,2023-04-14_10h01.58.052,PRaM,2021.2.3,Win32,60.10699044,61b8f3437b89212fae0dfadf
4,1.6872,space,0.5298,0,263,263,25,1,,,5e54c7fc2394ea4c99f88987,643916249d1bcd1034d84644,2023-04-14_10h01.58.052,PRaM,2021.2.3,Win32,60.10699044,61b8f3437b89212fae0dfadf
4,4.4428,space,2.8891,0,264,264,244,1,,,5e54c7fc2394ea4c99f88987,643916249d1bcd1034d84644,2023-04-14_10h01.58.052,PRaM,2021.2.3,Win32,60.10699044,61b8f3437b89212fae0dfadf
6,1.8918,space,0.2477,0,265,265,42,1,,,5e54c7fc2394ea4c99f88987,643916249d1bcd1034d84644,2023-04-14_10h01.58.052,PRaM,2021.2.3,Win32,60.10699044,61b8f3437b89212fae0dfadf
4,2.1206,space,0.4169,0,266,266,373,1,,,5e54c7fc2394ea4c99f88987,643916249d1bcd1034d84644,2023-04-14_10h01.58.052,PRaM,2021.2.3,Win32,60.10699044,61b8f3437b89212fae0dfadf
1,1.8491,space,0.1906,0,267,267,73,1,,,5e54c7fc2394ea4c99f88987,643916249d1bcd1034d84644,2023-04-14_10h01.58.052,PRaM,2021.2.3,Win32,60.10699044,61b8f3437b89212fae0dfadf
5,1.8703,space,0.108,0,268,268,333,1,,,5e54c7fc2394ea4c99f88987,643916249d1bcd1034d84644,2023-04-14_10h01.58.052,PRaM,2021.2.3,Win32,60.10699044,61b8f3437b89212fae0dfadf
6,1.7073,space,0.3669,0,269,269,310,1,,,5e54c7fc2394ea4c99f88987,643916249d1bcd1034d84644,2023-04-14_10h01.58.052,PRaM,2021.2.3,Win32,60.10699044,61b8f3437b89212fae0dfadf
7,2.6814,space,0.9414,0,270,270,202,1,,,5e54c7fc2394ea4c99f88987,643916249d1bcd1034d84644,2023-04-14_10h01.58.052,PRaM,2021.2.3,Win32,60.10699044,61b8f3437b89212fae0dfadf
2,2.1671,space,0.3782,0,271,271,5,1,,,5e54c7fc2394ea4c99f88987,643916249d1bcd1034d84644,2023-04-14_10h01.58.052,PRaM,2021.2.3,Win32,60.10699044,61b8f3437b89212fae0dfadf
1,1.6418,space,0.3894,0,272,272,10,1,,,5e54c7fc2394ea4c99f88987,643916249d1bcd1034d84644,2023-04-14_10h01.58.052,PRaM,2021.2.3,Win32,60.10699044,61b8f3437b89212fae0dfadf
3,1.9244,space,0.305,0,273,273,201,1,,,5e54c7fc2394ea4c99f88987,643916249d1bcd1034d84644,2023-04-14_10h01.58.052,PRaM,2021.2.3,Win32,60.10699044,61b8f3437b89212fae0dfadf
1,1.5445,space,0.317,0,274,274,242,1,,,5e54c7fc2394ea4c99f88987,643916249d1bcd1034d84644,2023-04-14_10h01.58.052,PRaM,2021.2.3,Win32,60.10699044,61b8f3437b89212fae0dfadf
1,1.6449,space,0.4338,0,275,275,37,1,,,5e54c7fc2394ea4c99f88987,643916249d1bcd1034d84644,2023-04-14_10h01.58.052,PRaM,2021.2.3,Win32,60.10699044,61b8f3437b89212fae0dfadf
3,2.8871,space,1.2406,0,276,276,115,1,,,5e54c7fc2394ea4c99f88987,643916249d1bcd1034d84644,2023-04-14_10h01.58.052,PRaM,2021.2.3,Win32,60.10699044,61b8f3437b89212fae0dfadf
1,1.5768,space,0.7036,0,277,277,133,1,,,5e54c7fc2394ea4c99f88987,643916249d1bcd1034d84644,2023-04-14_10h01.58.052,PRaM,2021.2.3,Win32,60.10699044,61b8f3437b89212fae0dfadf
1,1.6545,space,0.538,0,278,278,103,1,,,5e54c7fc2394ea4c99f88987,643916249d1bcd1034d84644,2023-04-14_10h01.58.052,PRaM,2021.2.3,Win32,60.10699044,61b8f3437b89212fae0dfadf
4,1.9207,space,0.2067,0,279,279,280,1,,,5e54c7fc2394ea4c99f88987,643916249d1bcd1034d84644,2023-04-14_10h01.58.052,PRaM,2021.2.3,Win32,60.10699044,61b8f3437b89212fae0dfadf
1,1.737,space,0.4696,0,280,280,229,1,,,5e54c7fc2394ea4c99f88987,643916249d1bcd1034d84644,2023-04-14_10h01.58.052,PRaM,2021.2.3,Win32,60.10699044,61b8f3437b89212fae0dfadf
4,2.4236,space,0.7348,0,281,281,223,1,,,5e54c7fc2394ea4c99f88987,643916249d1bcd1034d84644,2023-04-14_10h01.58.052,PRaM,2021.2.3,Win32,60.10699044,61b8f3437b89212fae0dfadf
3,6.4695,space,4.7704,0,282,282,344,1,,,5e54c7fc2394ea4c99f88987,643916249d1bcd1034d84644,2023-04-14_10h01.58.052,PRaM,2021.2.3,Win32,60.10699044,61b8f3437b89212fae0dfadf
2,2.6093,space,0.8419,0,283,283,31,1,,,5e54c7fc2394ea4c99f88987,643916249d1bcd1034d84644,2023-04-14_10h01.58.052,PRaM,2021.2.3,Win32,60.10699044,61b8f3437b89212fae0dfadf
6,1.8946,space,0.3852,0,284,284,213,1,,,5e54c7fc2394ea4c99f88987,643916249d1bcd1034d84644,2023-04-14_10h01.58.052,PRaM,2021.2.3,Win32,60.10699044,61b8f3437b89212fae0dfadf
3,8.5782,space,7.1514,0,285,285,4,1,,,5e54c7fc2394ea4c99f88987,643916249d1bcd1034d84644,2023-04-14_10h01.58.052,PRaM,2021.2.3,Win32,60.10699044,61b8f3437b89212fae0dfadf
4,2.0872,space,0.4271,0,286,286,21,1,,,5e54c7fc2394ea4c99f88987,643916249d1bcd1034d84644,2023-04-14_10h01.58.052,PRaM,2021.2.3,Win32,60.10699044,61b8f3437b89212fae0dfadf
1,8.3348,space,6.7595,0,287,287,122,1,,,5e54c7fc2394ea4c99f88987,643916249d1bcd1034d84644,2023-04-14_10h01.58.052,PRaM,2021.2.3,Win32,60.10699044,61b8f3437b89212fae0dfadf
4,2.4373,space,1.1379,0,288,288,353,1,,,5e54c7fc2394ea4c99f88987,643916249d1bcd1034d84644,2023-04-14_10h01.58.052,PRaM,2021.2.3,Win32,60.10699044,61b8f3437b89212fae0dfadf
7,8.6519,space,7.3316,0,289,289,166,1,,,5e54c7fc2394ea4c99f88987,643916249d1bcd1034d84644,2023-04-14_10h01.58.052,PRaM,2021.2.3,Win32,60.10699044,61b8f3437b89212fae0dfadf
8,1.6407,space,0.4865,0,290,290,53,1,,,5e54c7fc2394ea4c99f88987,643916249d1bcd1034d84644,2023-04-14_10h01.58.052,PRaM,2021.2.3,Win32,60.10699044,61b8f3437b89212fae0dfadf
9,1.5543,space,0.4562,0,291,291,326,1,,,5e54c7fc2394ea4c99f88987,643916249d1bcd1034d84644,2023-04-14_10h01.58.052,PRaM,2021.2.3,Win32,60.10699044,61b8f3437b89212fae0dfadf
3,1.9371,space,0.1954,0,292,292,55,1,,,5e54c7fc2394ea4c99f88987,643916249d1bcd1034d84644,2023-04-14_10h01.58.052,PRaM,2021.2.3,Win32,60.10699044,61b8f3437b89212fae0dfadf
7,1.7372,space,0.1665,0,293,293,208,1,,,5e54c7fc2394ea4c99f88987,643916249d1bcd1034d84644,2023-04-14_10h01.58.052,PRaM,2021.2.3,Win32,60.10699044,61b8f3437b89212fae0dfadf
1,2.2989,space,0.6387,0,294,294,268,1,,,5e54c7fc2394ea4c99f88987,643916249d1bcd1034d84644,2023-04-14_10h01.58.052,PRaM,2021.2.3,Win32,60.10699044,61b8f3437b89212fae0dfadf
4,1.9408,space,0.2784,0,295,295,147,1,,,5e54c7fc2394ea4c99f88987,643916249d1bcd1034d84644,2023-04-14_10h01.58.052,PRaM,2021.2.3,Win32,60.10699044,61b8f3437b89212fae0dfadf
5,1.7042,space,0.5532,0,296,296,356,1,,,5e54c7fc2394ea4c99f88987,643916249d1bcd1034d84644,2023-04-14_10h01.58.052,PRaM,2021.2.3,Win32,60.10699044,61b8f3437b89212fae0dfadf
4,2.5963,space,0.8087,0,297,297,102,1,,,5e54c7fc2394ea4c99f88987,643916249d1bcd1034d84644,2023-04-14_10h01.58.052,PRaM,2021.2.3,Win32,60.10699044,61b8f3437b89212fae0dfadf
2,2.5412,space,0.9001,0,298,298,24,1,,,5e54c7fc2394ea4c99f88987,643916249d1bcd1034d84644,2023-04-14_10h01.58.052,PRaM,2021.2.3,Win32,60.10699044,61b8f3437b89212fae0dfadf
1,1.4267,space,0.3342,0,299,299,130,1,,,5e54c7fc2394ea4c99f88987,643916249d1bcd1034d84644,2023-04-14_10h01.58.052,PRaM,2021.2.3,Win32,60.10699044,61b8f3437b89212fae0dfadf
1,1.9586,space,0.6554,0,300,300,308,1,,,5e54c7fc2394ea4c99f88987,643916249d1bcd1034d84644,2023-04-14_10h01.58.052,PRaM,2021.2.3,Win32,60.10699044,61b8f3437b89212fae0dfadf
2,1.707,space,0.0174,0,301,301,312,1,,,5e54c7fc2394ea4c99f88987,643916249d1bcd1034d84644,2023-04-14_10h01.58.052,PRaM,2021.2.3,Win32,60.10699044,61b8f3437b89212fae0dfadf
5,2.2601,space,0.6033,0,302,302,346,1,,,5e54c7fc2394ea4c99f88987,643916249d1bcd1034d84644,2023-04-14_10h01.58.052,PRaM,2021.2.3,Win32,60.10699044,61b8f3437b89212fae0dfadf
4,1.5912,space,0.461,0,303,303,146,1,,,5e54c7fc2394ea4c99f88987,643916249d1bcd1034d84644,2023-04-14_10h01.58.052,PRaM,2021.2.3,Win32,60.10699044,61b8f3437b89212fae0dfadf
6,1.6316,space,0.4184,0,304,304,370,1,,,5e54c7fc2394ea4c99f88987,643916249d1bcd1034d84644,2023-04-14_10h01.58.052,PRaM,2021.2.3,Win32,60.10699044,61b8f3437b89212fae0dfadf
4,2.0083,space,0.3751,0,305,305,375,1,,,5e54c7fc2394ea4c99f88987,643916249d1bcd1034d84644,2023-04-14_10h01.58.052,PRaM,2021.2.3,Win32,60.10699044,61b8f3437b89212fae0dfadf
5,2.8366,space,1.15,0,306,306,30,1,,,5e54c7fc2394ea4c99f88987,643916249d1bcd1034d84644,2023-04-14_10h01.58.052,PRaM,2021.2.3,Win32,60.10699044,61b8f3437b89212fae0dfadf
6,1.8277,space,0.1668,0,307,307,48,1,,,5e54c7fc2394ea4c99f88987,643916249d1bcd1034d84644,2023-04-14_10h01.58.052,PRaM,2021.2.3,Win32,60.10699044,61b8f3437b89212fae0dfadf
3,2.7854,space,1.2333,0,308,308,144,1,,,5e54c7fc2394ea4c99f88987,643916249d1bcd1034d84644,2023-04-14_10h01.58.052,PRaM,2021.2.3,Win32,60.10699044,61b8f3437b89212fae0dfadf
7,1.9375,space,0.2565,0,309,309,273,1,,,5e54c7fc2394ea4c99f88987,643916249d1bcd1034d84644,2023-04-14_10h01.58.052,PRaM,2021.2.3,Win32,60.10699044,61b8f3437b89212fae0dfadf
8,1.2603,space,0.2089,0,310,310,173,1,,,5e54c7fc2394ea4c99f88987,643916249d1bcd1034d84644,2023-04-14_10h01.58.052,PRaM,2021.2.3,Win32,60.10699044,61b8f3437b89212fae0dfadf
7,2.5537,space,1.1627,0,311,311,118,1,,,5e54c7fc2394ea4c99f88987,643916249d1bcd1034d84644,2023-04-14_10h01.58.052,PRaM,2021.2.3,Win32,60.10699044,61b8f3437b89212fae0dfadf
4,6.2113,space,4.5155,0,312,312,175,1,,,5e54c7fc2394ea4c99f88987,643916249d1bcd1034d84644,2023-04-14_10h01.58.052,PRaM,2021.2.3,Win32,60.10699044,61b8f3437b89212fae0dfadf
5,2.282,space,0.5868,0,313,313,6,1,,,5e54c7fc2394ea4c99f88987,643916249d1bcd1034d84644,2023-04-14_10h01.58.052,PRaM,2021.2.3,Win32,60.10699044,61b8f3437b89212fae0dfadf
1,2.8702,space,1.2246,0,314,314,231,1,,,5e54c7fc2394ea4c99f88987,643916249d1bcd1034d84644,2023-04-14_10h01.58.052,PRaM,2021.2.3,Win32,60.10699044,61b8f3437b89212fae0dfadf
5,7.0188,space,5.2154,0,315,315,307,1,,,5e54c7fc2394ea4c99f88987,643916249d1bcd1034d84644,2023-04-14_10h01.58.052,PRaM,2021.2.3,Win32,60.10699044,61b8f3437b89212fae0dfadf
1,1.8211,space,0.1517,0,316,316,54,1,,,5e54c7fc2394ea4c99f88987,643916249d1bcd1034d84644,2023-04-14_10h01.58.052,PRaM,2021.2.3,Win32,60.10699044,61b8f3437b89212fae0dfadf
8,1.7121,space,0.0422,0,317,317,239,1,,,5e54c7fc2394ea4c99f88987,643916249d1bcd1034d84644,2023-04-14_10h01.58.052,PRaM,2021.2.3,Win32,60.10699044,61b8f3437b89212fae0dfadf
1,2.4114,space,0.7171,0,318,318,131,1,,,5e54c7fc2394ea4c99f88987,643916249d1bcd1034d84644,2023-04-14_10h01.58.052,PRaM,2021.2.3,Win32,60.10699044,61b8f3437b89212fae0dfadf
1,2.0039,space,0.3709,0,319,319,34,1,,,5e54c7fc2394ea4c99f88987,643916249d1bcd1034d84644,2023-04-14_10h01.58.052,PRaM,2021.2.3,Win32,60.10699044,61b8f3437b89212fae0dfadf
2,1.8919,space,0.4037,0,320,320,235,1,,,5e54c7fc2394ea4c99f88987,643916249d1bcd1034d84644,2023-04-14_10h01.58.052,PRaM,2021.2.3,Win32,60.10699044,61b8f3437b89212fae0dfadf
4,1.8254,space,0.2583,0,321,321,90,1,,,5e54c7fc2394ea4c99f88987,643916249d1bcd1034d84644,2023-04-14_10h01.58.052,PRaM,2021.2.3,Win32,60.10699044,61b8f3437b89212fae0dfadf
6,2.2038,space,0.5663,0,322,322,99,1,,,5e54c7fc2394ea4c99f88987,643916249d1bcd1034d84644,2023-04-14_10h01.58.052,PRaM,2021.2.3,Win32,60.10699044,61b8f3437b89212fae0dfadf
2,2.0041,space,0.2612,0,323,323,170,1,,,5e54c7fc2394ea4c99f88987,643916249d1bcd1034d84644,2023-04-14_10h01.58.052,PRaM,2021.2.3,Win32,60.10699044,61b8f3437b89212fae0dfadf
6,1.7657,space,0.0052,0,324,324,350,1,,,5e54c7fc2394ea4c99f88987,643916249d1bcd1034d84644,2023-04-14_10h01.58.052,PRaM,2021.2.3,Win32,60.10699044,61b8f3437b89212fae0dfadf
3,2.0705,space,0.4005,0,325,325,263,1,,,5e54c7fc2394ea4c99f88987,643916249d1bcd1034d84644,2023-04-14_10h01.58.052,PRaM,2021.2.3,Win32,60.10699044,61b8f3437b89212fae0dfadf
2,1.6304,space,0.1504,0,326,326,245,1,,,5e54c7fc2394ea4c99f88987,643916249d1bcd1034d84644,2023-04-14_10h01.58.052,PRaM,2021.2.3,Win32,60.10699044,61b8f3437b89212fae0dfadf
3,2.7622,space,1.1025,0,327,327,275,1,,,5e54c7fc2394ea4c99f88987,643916249d1bcd1034d84644,2023-04-14_10h01.58.052,PRaM,2021.2.3,Win32,60.10699044,61b8f3437b89212fae0dfadf
6,2.4442,space,0.7745,0,328,328,85,1,,,5e54c7fc2394ea4c99f88987,643916249d1bcd1034d84644,2023-04-14_10h01.58.052,PRaM,2021.2.3,Win32,60.10699044,61b8f3437b89212fae0dfadf
4,2.8613,space,1.1627,0,329,329,270,1,,,5e54c7fc2394ea4c99f88987,643916249d1bcd1034d84644,2023-04-14_10h01.58.052,PRaM,2021.2.3,Win32,60.10699044,61b8f3437b89212fae0dfadf
2,2.2703,space,0.5155,0,330,330,148,1,,,5e54c7fc2394ea4c99f88987,643916249d1bcd1034d84644,2023-04-14_10h01.58.052,PRaM,2021.2.3,Win32,60.10699044,61b8f3437b89212fae0dfadf
2,2.2474,space,0.7726,0,331,331,376,1,,,5e54c7fc2394ea4c99f88987,643916249d1bcd1034d84644,2023-04-14_10h01.58.052,PRaM,2021.2.3,Win32,60.10699044,61b8f3437b89212fae0dfadf
3,2.2206,space,0.6269,0,332,332,82,1,,,5e54c7fc2394ea4c99f88987,643916249d1bcd1034d84644,2023-04-14_10h01.58.052,PRaM,2021.2.3,Win32,60.10699044,61b8f3437b89212fae0dfadf
5,7.2878,space,5.5923,0,333,333,186,1,,,5e54c7fc2394ea4c99f88987,643916249d1bcd1034d84644,2023-04-14_10h01.58.052,PRaM,2021.2.3,Win32,60.10699044,61b8f3437b89212fae0dfadf
3,4.0347,space,2.3739,0,334,334,368,1,,,5e54c7fc2394ea4c99f88987,643916249d1bcd1034d84644,2023-04-14_10h01.58.052,PRaM,2021.2.3,Win32,60.10699044,61b8f3437b89212fae0dfadf
1,1.8728,space,0.21,0,335,335,78,1,,,5e54c7fc2394ea4c99f88987,643916249d1bcd1034d84644,2023-04-14_10h01.58.052,PRaM,2021.2.3,Win32,60.10699044,61b8f3437b89212fae0dfadf
3,1.9374,space,0.2552,0,336,336,92,1,,,5e54c7fc2394ea4c99f88987,643916249d1bcd1034d84644,2023-04-14_10h01.58.052,PRaM,2021.2.3,Win32,60.10699044,61b8f3437b89212fae0dfadf
4,1.8744,space,0.0777,0,337,337,371,1,,,5e54c7fc2394ea4c99f88987,643916249d1bcd1034d84644,2023-04-14_10h01.58.052,PRaM,2021.2.3,Win32,60.10699044,61b8f3437b89212fae0dfadf
6,2.2038,space,0.3792,0,338,338,366,1,,,5e54c7fc2394ea4c99f88987,643916249d1bcd1034d84644,2023-04-14_10h01.58.052,PRaM,2021.2.3,Win32,60.10699044,61b8f3437b89212fae0dfadf
2,1.9376,space,0.167,0,339,339,185,1,,,5e54c7fc2394ea4c99f88987,643916249d1bcd1034d84644,2023-04-14_10h01.58.052,PRaM,2021.2.3,Win32,60.10699044,61b8f3437b89212fae0dfadf
1,1.6811,space,0.6001,0,340,340,79,1,,,5e54c7fc2394ea4c99f88987,643916249d1bcd1034d84644,2023-04-14_10h01.58.052,PRaM,2021.2.3,Win32,60.10699044,61b8f3437b89212fae0dfadf
4,1.8792,space,0.1212,0,341,341,314,1,,,5e54c7fc2394ea4c99f88987,643916249d1bcd1034d84644,2023-04-14_10h01.58.052,PRaM,2021.2.3,Win32,60.10699044,61b8f3437b89212fae0dfadf
2,2.8533,space,1.2065,0,342,342,258,1,,,5e54c7fc2394ea4c99f88987,643916249d1bcd1034d84644,2023-04-14_10h01.58.052,PRaM,2021.2.3,Win32,60.10699044,61b8f3437b89212fae0dfadf
4,2.6332,space,1.0217,0,343,343,236,1,,,5e54c7fc2394ea4c99f88987,643916249d1bcd1034d84644,2023-04-14_10h01.58.052,PRaM,2021.2.3,Win32,60.10699044,61b8f3437b89212fae0dfadf
1,7.8874,space,6.1815,0,344,344,135,1,,,5e54c7fc2394ea4c99f88987,643916249d1bcd1034d84644,2023-04-14_10h01.58.052,PRaM,2021.2.3,Win32,60.10699044,61b8f3437b89212fae0dfadf
2,2.6993,space,1.0615,0,345,345,189,1,,,5e54c7fc2394ea4c99f88987,643916249d1bcd1034d84644,2023-04-14_10h01.58.052,PRaM,2021.2.3,Win32,60.10699044,61b8f3437b89212fae0dfadf
4,11.2203,space,9.5655,0,346,346,32,1,,,5e54c7fc2394ea4c99f88987,643916249d1bcd1034d84644,2023-04-14_10h01.58.052,PRaM,2021.2.3,Win32,60.10699044,61b8f3437b89212fae0dfadf
8,2.289,space,0.6725,0,347,347,56,1,,,5e54c7fc2394ea4c99f88987,643916249d1bcd1034d84644,2023-04-14_10h01.58.052,PRaM,2021.2.3,Win32,60.10699044,61b8f3437b89212fae0dfadf
4,2.1453,space,0.455,0,348,348,181,1,,,5e54c7fc2394ea4c99f88987,643916249d1bcd1034d84644,2023-04-14_10h01.58.052,PRaM,2021.2.3,Win32,60.10699044,61b8f3437b89212fae0dfadf
6,1.8155,space,0.131,0,349,349,230,1,,,5e54c7fc2394ea4c99f88987,643916249d1bcd1034d84644,2023-04-14_10h01.58.052,PRaM,2021.2.3,Win32,60.10699044,61b8f3437b89212fae0dfadf
9,1.4906,space,0.4391,0,350,350,291,1,,,5e54c7fc2394ea4c99f88987,643916249d1bcd1034d84644,2023-04-14_10h01.58.052,PRaM,2021.2.3,Win32,60.10699044,61b8f3437b89212fae0dfadf
2,3.1477,space,1.4184,0,351,351,50,1,,,5e54c7fc2394ea4c99f88987,643916249d1bcd1034d84644,2023-04-14_10h01.58.052,PRaM,2021.2.3,Win32,60.10699044,61b8f3437b89212fae0dfadf
4,1.9969,space,0.3368,0,352,352,219,1,,,5e54c7fc2394ea4c99f88987,643916249d1bcd1034d84644,2023-04-14_10h01.58.052,PRaM,2021.2.3,Win32,60.10699044,61b8f3437b89212fae0dfadf
5,1.8575,space,0.1991,0,353,353,226,1,,,5e54c7fc2394ea4c99f88987,643916249d1bcd1034d84644,2023-04-14_10h01.58.052,PRaM,2021.2.3,Win32,60.10699044,61b8f3437b89212fae0dfadf
2,1.7012,space,0.0005,0,354,354,234,1,,,5e54c7fc2394ea4c99f88987,643916249d1bcd1034d84644,2023-04-14_10h01.58.052,PRaM,2021.2.3,Win32,60.10699044,61b8f3437b89212fae0dfadf
1,1.7372,space,0.0382,0,355,355,260,1,,,5e54c7fc2394ea4c99f88987,643916249d1bcd1034d84644,2023-04-14_10h01.58.052,PRaM,2021.2.3,Win32,60.10699044,61b8f3437b89212fae0dfadf
4,2.2423,space,0.6103,0,356,356,355,1,,,5e54c7fc2394ea4c99f88987,643916249d1bcd1034d84644,2023-04-14_10h01.58.052,PRaM,2021.2.3,Win32,60.10699044,61b8f3437b89212fae0dfadf
1,1.8963,space,0.1749,0,357,357,36,1,,,5e54c7fc2394ea4c99f88987,643916249d1bcd1034d84644,2023-04-14_10h01.58.052,PRaM,2021.2.3,Win32,60.10699044,61b8f3437b89212fae0dfadf
7,6.7189,space,5.1063,0,358,358,302,1,,,5e54c7fc2394ea4c99f88987,643916249d1bcd1034d84644,2023-04-14_10h01.58.052,PRaM,2021.2.3,Win32,60.10699044,61b8f3437b89212fae0dfadf
9,1.454,space,0.3099,0,359,359,197,1,,,5e54c7fc2394ea4c99f88987,643916249d1bcd1034d84644,2023-04-14_10h01.58.052,PRaM,2021.2.3,Win32,60.10699044,61b8f3437b89212fae0dfadf
3,2.2871,space,0.5833,0,360,360,86,1,,,5e54c7fc2394ea4c99f88987,643916249d1bcd1034d84644,2023-04-14_10h01.58.052,PRaM,2021.2.3,Win32,60.10699044,61b8f3437b89212fae0dfadf
2,2.4609,space,0.7935,0,361,361,88,1,,,5e54c7fc2394ea4c99f88987,643916249d1bcd1034d84644,2023-04-14_10h01.58.052,PRaM,2021.2.3,Win32,60.10699044,61b8f3437b89212fae0dfadf
7,3.0436,space,1.3905,0,362,362,279,1,,,5e54c7fc2394ea4c99f88987,643916249d1bcd1034d84644,2023-04-14_10h01.58.052,PRaM,2021.2.3,Win32,60.10699044,61b8f3437b89212fae0dfadf
8,2.124,space,0.3832,0,363,363,51,1,,,5e54c7fc2394ea4c99f88987,643916249d1bcd1034d84644,2023-04-14_10h01.58.052,PRaM,2021.2.3,Win32,60.10699044,61b8f3437b89212fae0dfadf
1,10.5478,space,8.7879,0,364,364,359,1,,,5e54c7fc2394ea4c99f88987,643916249d1bcd1034d84644,2023-04-14_10h01.58.052,PRaM,2021.2.3,Win32,60.10699044,61b8f3437b89212fae0dfadf
3,1.7375,space,0.4709,0,365,365,128,1,,,5e54c7fc2394ea4c99f88987,643916249d1bcd1034d84644,2023-04-14_10h01.58.052,PRaM,2021.2.3,Win32,60.10699044,61b8f3437b89212fae0dfadf
8,1.6607,space,0.0079,0,366,366,225,1,,,5e54c7fc2394ea4c99f88987,643916249d1bcd1034d84644,2023-04-14_10h01.58.052,PRaM,2021.2.3,Win32,60.10699044,61b8f3437b89212fae0dfadf
8,1.7261,space,0.4948,0,367,367,154,1,,,5e54c7fc2394ea4c99f88987,643916249d1bcd1034d84644,2023-04-14_10h01.58.052,PRaM,2021.2.3,Win32,60.10699044,61b8f3437b89212fae0dfadf
9,2.8658,space,1.4565,0,368,368,269,1,,,5e54c7fc2394ea4c99f88987,643916249d1bcd1034d84644,2023-04-14_10h01.58.052,PRaM,2021.2.3,Win32,60.10699044,61b8f3437b89212fae0dfadf
7,2.2919,space,1.1547,0,369,369,60,1,,,5e54c7fc2394ea4c99f88987,643916249d1bcd1034d84644,2023-04-14_10h01.58.052,PRaM,2021.2.3,Win32,60.10699044,61b8f3437b89212fae0dfadf
2,2.9621,space,1.2574,0,370,370,87,1,,,5e54c7fc2394ea4c99f88987,643916249d1bcd1034d84644,2023-04-14_10h01.58.052,PRaM,2021.2.3,Win32,60.10699044,61b8f3437b89212fae0dfadf
1,3.3709,space,1.8756,0,371,371,220,1,,,5e54c7fc2394ea4c99f88987,643916249d1bcd1034d84644,2023-04-14_10h01.58.052,PRaM,2021.2.3,Win32,60.10699044,61b8f3437b89212fae0dfadf
8,2.7377,space,1.2278,0,372,372,264,1,,,5e54c7fc2394ea4c99f88987,643916249d1bcd1034d84644,2023-04-14_10h01.58.052,PRaM,2021.2.3,Win32,60.10699044,61b8f3437b89212fae0dfadf
1,2.4375,space,0.7947,0,373,373,15,1,,,5e54c7fc2394ea4c99f88987,643916249d1bcd1034d84644,2023-04-14_10h01.58.052,PRaM,2021.2.3,Win32,60.10699044,61b8f3437b89212fae0dfadf
5,2.5371,space,0.8775,0,374,374,174,1,,,5e54c7fc2394ea4c99f88987,643916249d1bcd1034d84644,2023-04-14_10h01.58.052,PRaM,2021.2.3,Win32,60.10699044,61b8f3437b89212fae0dfadf
3,3.0368,space,1.543,0,375,375,52,1,,,5e54c7fc2394ea4c99f88987,643916249d1bcd1034d84644,2023-04-14_10h01.58.052,PRaM,2021.2.3,Win32,60.10699044,61b8f3437b89212fae0dfadf
1,1.8382,space,0.1504,0,376,376,377,1,,,5e54c7fc2394ea4c99f88987,643916249d1bcd1034d84644,2023-04-14_10h01.58.052,PRaM,2021.2.3,Win32,60.10699044,61b8f3437b89212fae0dfadf
1,1.8881,space,0.3448,0,377,377,251,1,,,5e54c7fc2394ea4c99f88987,643916249d1bcd1034d84644,2023-04-14_10h01.58.052,PRaM,2021.2.3,Win32,60.10699044,61b8f3437b89212fae0dfadf
