Rating.response,Rating.rt,EndTrial.keys,EndTrial.rt,trials.thisRepN,trials.thisTrialN,trials.thisN,trials.thisIndex,trials.ran,Pos1,Pos2,participant,session,date,expName,psychopyVersion,OS,frameRate,study_id
2,11.0029,space,10.1082,0,0,0,143,1,,,5e6e6df77fa76d000ba0f155,61b90966e8a91f603cbb368a,2021-12-14_21h15.33.715,PRaM,2021.2.3,Win32,59.88023952,61b8f3437b89212fae0dfadf
1,2.0607,space,0.5907,0,1,1,283,1,,,5e6e6df77fa76d000ba0f155,61b90966e8a91f603cbb368a,2021-12-14_21h15.33.715,PRaM,2021.2.3,Win32,59.88023952,61b8f3437b89212fae0dfadf
1,1.7497,space,0.226,0,2,2,49,1,,,5e6e6df77fa76d000ba0f155,61b90966e8a91f603cbb368a,2021-12-14_21h15.33.715,PRaM,2021.2.3,Win32,59.88023952,61b8f3437b89212fae0dfadf
2,3.0335,space,1.4617,0,3,3,306,1,,,5e6e6df77fa76d000ba0f155,61b90966e8a91f603cbb368a,2021-12-14_21h15.33.715,PRaM,2021.2.3,Win32,59.88023952,61b8f3437b89212fae0dfadf
2,4.3569,space,2.8079,0,4,4,126,1,,,5e6e6df77fa76d000ba0f155,61b90966e8a91f603cbb368a,2021-12-14_21h15.33.715,PRaM,2021.2.3,Win32,59.88023952,61b8f3437b89212fae0dfadf
5,3.3641,space,1.7731,0,5,5,196,1,,,5e6e6df77fa76d000ba0f155,61b90966e8a91f603cbb368a,2021-12-14_21h15.33.715,PRaM,2021.2.3,Win32,59.88023952,61b8f3437b89212fae0dfadf
4,4.9639,space,3.056,0,6,6,83,1,,,5e6e6df77fa76d000ba0f155,61b90966e8a91f603cbb368a,2021-12-14_21h15.33.715,PRaM,2021.2.3,Win32,59.88023952,61b8f3437b89212fae0dfadf
1,3.9689,space,2.2279,0,7,7,217,1,,,5e6e6df77fa76d000ba0f155,61b90966e8a91f603cbb368a,2021-12-14_21h15.33.715,PRaM,2021.2.3,Win32,59.88023952,61b8f3437b89212fae0dfadf
2,2.6958,space,1.069,0,8,8,349,1,,,5e6e6df77fa76d000ba0f155,61b90966e8a91f603cbb368a,2021-12-14_21h15.33.715,PRaM,2021.2.3,Win32,59.88023952,61b8f3437b89212fae0dfadf
1,1.8859,space,0.2701,0,9,9,359,1,,,5e6e6df77fa76d000ba0f155,61b90966e8a91f603cbb368a,2021-12-14_21h15.33.715,PRaM,2021.2.3,Win32,59.88023952,61b8f3437b89212fae0dfadf
1,3.4761,space,1.873,0,10,10,235,1,,,5e6e6df77fa76d000ba0f155,61b90966e8a91f603cbb368a,2021-12-14_21h15.33.715,PRaM,2021.2.3,Win32,59.88023952,61b8f3437b89212fae0dfadf
2,3.2509,space,1.5058,0,11,11,128,1,,,5e6e6df77fa76d000ba0f155,61b90966e8a91f603cbb368a,2021-12-14_21h15.33.715,PRaM,2021.2.3,Win32,59.88023952,61b8f3437b89212fae0dfadf
1,2.0477,space,0.2255,0,12,12,300,1,,,5e6e6df77fa76d000ba0f155,61b90966e8a91f603cbb368a,2021-12-14_21h15.33.715,PRaM,2021.2.3,Win32,59.88023952,61b8f3437b89212fae0dfadf
3,2.3262,space,0.7162,0,13,13,110,1,,,5e6e6df77fa76d000ba0f155,61b90966e8a91f603cbb368a,2021-12-14_21h15.33.715,PRaM,2021.2.3,Win32,59.88023952,61b8f3437b89212fae0dfadf
1,2.6958,space,0.8802,0,14,14,309,1,,,5e6e6df77fa76d000ba0f155,61b90966e8a91f603cbb368a,2021-12-14_21h15.33.715,PRaM,2021.2.3,Win32,59.88023952,61b8f3437b89212fae0dfadf
1,2.3113,space,0.568,0,15,15,10,1,,,5e6e6df77fa76d000ba0f155,61b90966e8a91f603cbb368a,2021-12-14_21h15.33.715,PRaM,2021.2.3,Win32,59.88023952,61b8f3437b89212fae0dfadf
4,3.7281,space,2.2584,0,16,16,302,1,,,5e6e6df77fa76d000ba0f155,61b90966e8a91f603cbb368a,2021-12-14_21h15.33.715,PRaM,2021.2.3,Win32,59.88023952,61b8f3437b89212fae0dfadf
,,space,0.1737,0,17,17,9,1,,,5e6e6df77fa76d000ba0f155,61b90966e8a91f603cbb368a,2021-12-14_21h15.33.715,PRaM,2021.2.3,Win32,59.88023952,61b8f3437b89212fae0dfadf
1,3.7748,space,2.2048,0,18,18,245,1,,,5e6e6df77fa76d000ba0f155,61b90966e8a91f603cbb368a,2021-12-14_21h15.33.715,PRaM,2021.2.3,Win32,59.88023952,61b8f3437b89212fae0dfadf
3,3.2656,space,1.6762,0,19,19,156,1,,,5e6e6df77fa76d000ba0f155,61b90966e8a91f603cbb368a,2021-12-14_21h15.33.715,PRaM,2021.2.3,Win32,59.88023952,61b8f3437b89212fae0dfadf
1,4.1024,space,2.4719,0,20,20,116,1,,,5e6e6df77fa76d000ba0f155,61b90966e8a91f603cbb368a,2021-12-14_21h15.33.715,PRaM,2021.2.3,Win32,59.88023952,61b8f3437b89212fae0dfadf
2,3.0442,space,1.4272,0,21,21,282,1,,,5e6e6df77fa76d000ba0f155,61b90966e8a91f603cbb368a,2021-12-14_21h15.33.715,PRaM,2021.2.3,Win32,59.88023952,61b8f3437b89212fae0dfadf
6,4.8409,space,3.2731,0,22,22,59,1,,,5e6e6df77fa76d000ba0f155,61b90966e8a91f603cbb368a,2021-12-14_21h15.33.715,PRaM,2021.2.3,Win32,59.88023952,61b8f3437b89212fae0dfadf
2,3.0116,space,2.9417,0,23,23,141,1,,,5e6e6df77fa76d000ba0f155,61b90966e8a91f603cbb368a,2021-12-14_21h15.33.715,PRaM,2021.2.3,Win32,59.88023952,61b8f3437b89212fae0dfadf
2,2.6854,space,0.8101,0,24,24,94,1,,,5e6e6df77fa76d000ba0f155,61b90966e8a91f603cbb368a,2021-12-14_21h15.33.715,PRaM,2021.2.3,Win32,59.88023952,61b8f3437b89212fae0dfadf
2,2.2258,space,0.492,0,25,25,293,1,,,5e6e6df77fa76d000ba0f155,61b90966e8a91f603cbb368a,2021-12-14_21h15.33.715,PRaM,2021.2.3,Win32,59.88023952,61b8f3437b89212fae0dfadf
3,2.9003,space,1.2716,0,26,26,367,1,,,5e6e6df77fa76d000ba0f155,61b90966e8a91f603cbb368a,2021-12-14_21h15.33.715,PRaM,2021.2.3,Win32,59.88023952,61b8f3437b89212fae0dfadf
3,2.3454,space,0.7211,0,27,27,230,1,,,5e6e6df77fa76d000ba0f155,61b90966e8a91f603cbb368a,2021-12-14_21h15.33.715,PRaM,2021.2.3,Win32,59.88023952,61b8f3437b89212fae0dfadf
5,3.7373,space,2.0743,0,28,28,127,1,,,5e6e6df77fa76d000ba0f155,61b90966e8a91f603cbb368a,2021-12-14_21h15.33.715,PRaM,2021.2.3,Win32,59.88023952,61b8f3437b89212fae0dfadf
4,2.111,space,0.284,0,29,29,191,1,,,5e6e6df77fa76d000ba0f155,61b90966e8a91f603cbb368a,2021-12-14_21h15.33.715,PRaM,2021.2.3,Win32,59.88023952,61b8f3437b89212fae0dfadf
1,5.1158,space,3.4764,0,30,30,162,1,,,5e6e6df77fa76d000ba0f155,61b90966e8a91f603cbb368a,2021-12-14_21h15.33.715,PRaM,2021.2.3,Win32,59.88023952,61b8f3437b89212fae0dfadf
3,1.7992,space,0.1423,0,31,31,173,1,,,5e6e6df77fa76d000ba0f155,61b90966e8a91f603cbb368a,2021-12-14_21h15.33.715,PRaM,2021.2.3,Win32,59.88023952,61b8f3437b89212fae0dfadf
1,1.5811,space,2.1858,0,32,32,247,1,,,5e6e6df77fa76d000ba0f155,61b90966e8a91f603cbb368a,2021-12-14_21h15.33.715,PRaM,2021.2.3,Win32,59.88023952,61b8f3437b89212fae0dfadf
2,3.619,space,2.0209,0,33,33,5,1,,,5e6e6df77fa76d000ba0f155,61b90966e8a91f603cbb368a,2021-12-14_21h15.33.715,PRaM,2021.2.3,Win32,59.88023952,61b8f3437b89212fae0dfadf
3,2.9218,space,1.3921,0,34,34,211,1,,,5e6e6df77fa76d000ba0f155,61b90966e8a91f603cbb368a,2021-12-14_21h15.33.715,PRaM,2021.2.3,Win32,59.88023952,61b8f3437b89212fae0dfadf
4,3.8142,space,1.9433,0,35,35,123,1,,,5e6e6df77fa76d000ba0f155,61b90966e8a91f603cbb368a,2021-12-14_21h15.33.715,PRaM,2021.2.3,Win32,59.88023952,61b8f3437b89212fae0dfadf
1,2.1772,space,0.5487,0,36,36,122,1,,,5e6e6df77fa76d000ba0f155,61b90966e8a91f603cbb368a,2021-12-14_21h15.33.715,PRaM,2021.2.3,Win32,59.88023952,61b8f3437b89212fae0dfadf
3,2.1236,space,0.5153,0,37,37,158,1,,,5e6e6df77fa76d000ba0f155,61b90966e8a91f603cbb368a,2021-12-14_21h15.33.715,PRaM,2021.2.3,Win32,59.88023952,61b8f3437b89212fae0dfadf
2,2.006,space,0.4007,0,38,38,227,1,,,5e6e6df77fa76d000ba0f155,61b90966e8a91f603cbb368a,2021-12-14_21h15.33.715,PRaM,2021.2.3,Win32,59.88023952,61b8f3437b89212fae0dfadf
3,2.0599,space,0.4437,0,39,39,148,1,,,5e6e6df77fa76d000ba0f155,61b90966e8a91f603cbb368a,2021-12-14_21h15.33.715,PRaM,2021.2.3,Win32,59.88023952,61b8f3437b89212fae0dfadf
1,1.8998,space,0.0732,0,40,40,54,1,,,5e6e6df77fa76d000ba0f155,61b90966e8a91f603cbb368a,2021-12-14_21h15.33.715,PRaM,2021.2.3,Win32,59.88023952,61b8f3437b89212fae0dfadf
1,3.154,space,1.4391,0,41,41,234,1,,,5e6e6df77fa76d000ba0f155,61b90966e8a91f603cbb368a,2021-12-14_21h15.33.715,PRaM,2021.2.3,Win32,59.88023952,61b8f3437b89212fae0dfadf
1,2.1473,space,0.4937,0,42,42,210,1,,,5e6e6df77fa76d000ba0f155,61b90966e8a91f603cbb368a,2021-12-14_21h15.33.715,PRaM,2021.2.3,Win32,59.88023952,61b8f3437b89212fae0dfadf
6,3.9609,space,2.3359,0,43,43,4,1,,,5e6e6df77fa76d000ba0f155,61b90966e8a91f603cbb368a,2021-12-14_21h15.33.715,PRaM,2021.2.3,Win32,59.88023952,61b8f3437b89212fae0dfadf
4,2.7698,space,1.0784,0,44,44,178,1,,,5e6e6df77fa76d000ba0f155,61b90966e8a91f603cbb368a,2021-12-14_21h15.33.715,PRaM,2021.2.3,Win32,59.88023952,61b8f3437b89212fae0dfadf
3,2.9787,space,1.1024,0,45,45,86,1,,,5e6e6df77fa76d000ba0f155,61b90966e8a91f603cbb368a,2021-12-14_21h15.33.715,PRaM,2021.2.3,Win32,59.88023952,61b8f3437b89212fae0dfadf
4,2.0944,space,0.4179,0,46,46,179,1,,,5e6e6df77fa76d000ba0f155,61b90966e8a91f603cbb368a,2021-12-14_21h15.33.715,PRaM,2021.2.3,Win32,59.88023952,61b8f3437b89212fae0dfadf
4,2.8024,space,1.1184,0,47,47,274,1,,,5e6e6df77fa76d000ba0f155,61b90966e8a91f603cbb368a,2021-12-14_21h15.33.715,PRaM,2021.2.3,Win32,59.88023952,61b8f3437b89212fae0dfadf
3,4.7576,space,3.1529,0,48,48,100,1,,,5e6e6df77fa76d000ba0f155,61b90966e8a91f603cbb368a,2021-12-14_21h15.33.715,PRaM,2021.2.3,Win32,59.88023952,61b8f3437b89212fae0dfadf
5,2.3537,space,0.6605,0,49,49,84,1,,,5e6e6df77fa76d000ba0f155,61b90966e8a91f603cbb368a,2021-12-14_21h15.33.715,PRaM,2021.2.3,Win32,59.88023952,61b8f3437b89212fae0dfadf
2,3.0201,space,1.1826,0,50,50,23,1,,,5e6e6df77fa76d000ba0f155,61b90966e8a91f603cbb368a,2021-12-14_21h15.33.715,PRaM,2021.2.3,Win32,59.88023952,61b8f3437b89212fae0dfadf
1,2.1367,space,0.5003,0,51,51,292,1,,,5e6e6df77fa76d000ba0f155,61b90966e8a91f603cbb368a,2021-12-14_21h15.33.715,PRaM,2021.2.3,Win32,59.88023952,61b8f3437b89212fae0dfadf
4,2.8215,space,1.1233,0,52,52,202,1,,,5e6e6df77fa76d000ba0f155,61b90966e8a91f603cbb368a,2021-12-14_21h15.33.715,PRaM,2021.2.3,Win32,59.88023952,61b8f3437b89212fae0dfadf
4,1.8178,space,1.0823,0,53,53,12,1,,,5e6e6df77fa76d000ba0f155,61b90966e8a91f603cbb368a,2021-12-14_21h15.33.715,PRaM,2021.2.3,Win32,59.88023952,61b8f3437b89212fae0dfadf
3,2.0701,space,0.3572,0,54,54,259,1,,,5e6e6df77fa76d000ba0f155,61b90966e8a91f603cbb368a,2021-12-14_21h15.33.715,PRaM,2021.2.3,Win32,59.88023952,61b8f3437b89212fae0dfadf
3,2.3489,space,0.681,0,55,55,288,1,,,5e6e6df77fa76d000ba0f155,61b90966e8a91f603cbb368a,2021-12-14_21h15.33.715,PRaM,2021.2.3,Win32,59.88023952,61b8f3437b89212fae0dfadf
1,2.7875,space,1.2403,0,56,56,67,1,,,5e6e6df77fa76d000ba0f155,61b90966e8a91f603cbb368a,2021-12-14_21h15.33.715,PRaM,2021.2.3,Win32,59.88023952,61b8f3437b89212fae0dfadf
3,4.4257,space,2.8198,0,57,57,337,1,,,5e6e6df77fa76d000ba0f155,61b90966e8a91f603cbb368a,2021-12-14_21h15.33.715,PRaM,2021.2.3,Win32,59.88023952,61b8f3437b89212fae0dfadf
,,space,0.902,0,58,58,286,1,,,5e6e6df77fa76d000ba0f155,61b90966e8a91f603cbb368a,2021-12-14_21h15.33.715,PRaM,2021.2.3,Win32,59.88023952,61b8f3437b89212fae0dfadf
2,4.458,space,2.8691,0,59,59,164,1,,,5e6e6df77fa76d000ba0f155,61b90966e8a91f603cbb368a,2021-12-14_21h15.33.715,PRaM,2021.2.3,Win32,59.88023952,61b8f3437b89212fae0dfadf
3,5.3495,space,3.7576,0,60,60,258,1,,,5e6e6df77fa76d000ba0f155,61b90966e8a91f603cbb368a,2021-12-14_21h15.33.715,PRaM,2021.2.3,Win32,59.88023952,61b8f3437b89212fae0dfadf
3,3.7405,space,2.1081,0,61,61,39,1,,,5e6e6df77fa76d000ba0f155,61b90966e8a91f603cbb368a,2021-12-14_21h15.33.715,PRaM,2021.2.3,Win32,59.88023952,61b8f3437b89212fae0dfadf
3,2.0607,space,0.3512,0,62,62,169,1,,,5e6e6df77fa76d000ba0f155,61b90966e8a91f603cbb368a,2021-12-14_21h15.33.715,PRaM,2021.2.3,Win32,59.88023952,61b8f3437b89212fae0dfadf
2,2.2363,space,0.803,0,63,63,101,1,,,5e6e6df77fa76d000ba0f155,61b90966e8a91f603cbb368a,2021-12-14_21h15.33.715,PRaM,2021.2.3,Win32,59.88023952,61b8f3437b89212fae0dfadf
1,2.036,space,0.3844,0,64,64,257,1,,,5e6e6df77fa76d000ba0f155,61b90966e8a91f603cbb368a,2021-12-14_21h15.33.715,PRaM,2021.2.3,Win32,59.88023952,61b8f3437b89212fae0dfadf
4,2.6824,space,1.0364,0,65,65,177,1,,,5e6e6df77fa76d000ba0f155,61b90966e8a91f603cbb368a,2021-12-14_21h15.33.715,PRaM,2021.2.3,Win32,59.88023952,61b8f3437b89212fae0dfadf
3,3.5464,space,1.8036,0,66,66,34,1,,,5e6e6df77fa76d000ba0f155,61b90966e8a91f603cbb368a,2021-12-14_21h15.33.715,PRaM,2021.2.3,Win32,59.88023952,61b8f3437b89212fae0dfadf
1,2.0371,space,0.3534,0,67,67,70,1,,,5e6e6df77fa76d000ba0f155,61b90966e8a91f603cbb368a,2021-12-14_21h15.33.715,PRaM,2021.2.3,Win32,59.88023952,61b8f3437b89212fae0dfadf
5,2.6471,space,1.0856,0,68,68,88,1,,,5e6e6df77fa76d000ba0f155,61b90966e8a91f603cbb368a,2021-12-14_21h15.33.715,PRaM,2021.2.3,Win32,59.88023952,61b8f3437b89212fae0dfadf
6,2.1327,space,0.4699,0,69,69,277,1,,,5e6e6df77fa76d000ba0f155,61b90966e8a91f603cbb368a,2021-12-14_21h15.33.715,PRaM,2021.2.3,Win32,59.88023952,61b8f3437b89212fae0dfadf
5,2.3491,space,0.5325,0,70,70,29,1,,,5e6e6df77fa76d000ba0f155,61b90966e8a91f603cbb368a,2021-12-14_21h15.33.715,PRaM,2021.2.3,Win32,59.88023952,61b8f3437b89212fae0dfadf
2,2.8818,space,1.2929,0,71,71,103,1,,,5e6e6df77fa76d000ba0f155,61b90966e8a91f603cbb368a,2021-12-14_21h15.33.715,PRaM,2021.2.3,Win32,59.88023952,61b8f3437b89212fae0dfadf
3,2.958,space,1.2238,0,72,72,36,1,,,5e6e6df77fa76d000ba0f155,61b90966e8a91f603cbb368a,2021-12-14_21h15.33.715,PRaM,2021.2.3,Win32,59.88023952,61b8f3437b89212fae0dfadf
6,3.518,space,1.9376,0,73,73,307,1,,,5e6e6df77fa76d000ba0f155,61b90966e8a91f603cbb368a,2021-12-14_21h15.33.715,PRaM,2021.2.3,Win32,59.88023952,61b8f3437b89212fae0dfadf
3,2.0816,space,0.3513,0,74,74,119,1,,,5e6e6df77fa76d000ba0f155,61b90966e8a91f603cbb368a,2021-12-14_21h15.33.715,PRaM,2021.2.3,Win32,59.88023952,61b8f3437b89212fae0dfadf
3,2.0626,space,0.2783,0,75,75,140,1,,,5e6e6df77fa76d000ba0f155,61b90966e8a91f603cbb368a,2021-12-14_21h15.33.715,PRaM,2021.2.3,Win32,59.88023952,61b8f3437b89212fae0dfadf
2,2.7892,space,1.2195,0,76,76,113,1,,,5e6e6df77fa76d000ba0f155,61b90966e8a91f603cbb368a,2021-12-14_21h15.33.715,PRaM,2021.2.3,Win32,59.88023952,61b8f3437b89212fae0dfadf
5,5.3512,space,3.677,0,77,77,159,1,,,5e6e6df77fa76d000ba0f155,61b90966e8a91f603cbb368a,2021-12-14_21h15.33.715,PRaM,2021.2.3,Win32,59.88023952,61b8f3437b89212fae0dfadf
1,5.3216,space,3.791,0,78,78,1,1,,,5e6e6df77fa76d000ba0f155,61b90966e8a91f603cbb368a,2021-12-14_21h15.33.715,PRaM,2021.2.3,Win32,59.88023952,61b8f3437b89212fae0dfadf
3,2.6122,space,0.92,0,79,79,340,1,,,5e6e6df77fa76d000ba0f155,61b90966e8a91f603cbb368a,2021-12-14_21h15.33.715,PRaM,2021.2.3,Win32,59.88023952,61b8f3437b89212fae0dfadf
2,2.4663,space,0.7869,0,80,80,229,1,,,5e6e6df77fa76d000ba0f155,61b90966e8a91f603cbb368a,2021-12-14_21h15.33.715,PRaM,2021.2.3,Win32,59.88023952,61b8f3437b89212fae0dfadf
3,2.5766,space,0.8764,0,81,81,194,1,,,5e6e6df77fa76d000ba0f155,61b90966e8a91f603cbb368a,2021-12-14_21h15.33.715,PRaM,2021.2.3,Win32,59.88023952,61b8f3437b89212fae0dfadf
5,2.2459,space,0.6181,0,82,82,48,1,,,5e6e6df77fa76d000ba0f155,61b90966e8a91f603cbb368a,2021-12-14_21h15.33.715,PRaM,2021.2.3,Win32,59.88023952,61b8f3437b89212fae0dfadf
5,2.829,space,1.2127,0,83,83,182,1,,,5e6e6df77fa76d000ba0f155,61b90966e8a91f603cbb368a,2021-12-14_21h15.33.715,PRaM,2021.2.3,Win32,59.88023952,61b8f3437b89212fae0dfadf
6,2.2624,space,0.6536,0,84,84,117,1,,,5e6e6df77fa76d000ba0f155,61b90966e8a91f603cbb368a,2021-12-14_21h15.33.715,PRaM,2021.2.3,Win32,59.88023952,61b8f3437b89212fae0dfadf
4,1.8146,space,0.1674,0,85,85,109,1,,,5e6e6df77fa76d000ba0f155,61b90966e8a91f603cbb368a,2021-12-14_21h15.33.715,PRaM,2021.2.3,Win32,59.88023952,61b8f3437b89212fae0dfadf
3,3.0825,space,1.3229,0,86,86,31,1,,,5e6e6df77fa76d000ba0f155,61b90966e8a91f603cbb368a,2021-12-14_21h15.33.715,PRaM,2021.2.3,Win32,59.88023952,61b8f3437b89212fae0dfadf
4,3.0692,space,1.2527,0,87,87,43,1,,,5e6e6df77fa76d000ba0f155,61b90966e8a91f603cbb368a,2021-12-14_21h15.33.715,PRaM,2021.2.3,Win32,59.88023952,61b8f3437b89212fae0dfadf
4,1.934,space,0.9697,0,88,88,375,1,,,5e6e6df77fa76d000ba0f155,61b90966e8a91f603cbb368a,2021-12-14_21h15.33.715,PRaM,2021.2.3,Win32,59.88023952,61b8f3437b89212fae0dfadf
2,2.4165,space,0.7869,0,89,89,203,1,,,5e6e6df77fa76d000ba0f155,61b90966e8a91f603cbb368a,2021-12-14_21h15.33.715,PRaM,2021.2.3,Win32,59.88023952,61b8f3437b89212fae0dfadf
1,4.3458,space,2.578,0,90,90,91,1,,,5e6e6df77fa76d000ba0f155,61b90966e8a91f603cbb368a,2021-12-14_21h15.33.715,PRaM,2021.2.3,Win32,59.88023952,61b8f3437b89212fae0dfadf
5,2.9273,space,1.2753,0,91,91,135,1,,,5e6e6df77fa76d000ba0f155,61b90966e8a91f603cbb368a,2021-12-14_21h15.33.715,PRaM,2021.2.3,Win32,59.88023952,61b8f3437b89212fae0dfadf
9,2.4172,space,0.8208,0,92,92,207,1,,,5e6e6df77fa76d000ba0f155,61b90966e8a91f603cbb368a,2021-12-14_21h15.33.715,PRaM,2021.2.3,Win32,59.88023952,61b8f3437b89212fae0dfadf
4,4.9165,space,3.0983,0,93,93,187,1,,,5e6e6df77fa76d000ba0f155,61b90966e8a91f603cbb368a,2021-12-14_21h15.33.715,PRaM,2021.2.3,Win32,59.88023952,61b8f3437b89212fae0dfadf
2,2.3801,space,0.7685,0,94,94,265,1,,,5e6e6df77fa76d000ba0f155,61b90966e8a91f603cbb368a,2021-12-14_21h15.33.715,PRaM,2021.2.3,Win32,59.88023952,61b8f3437b89212fae0dfadf
3,1.9036,space,0.2696,0,95,95,32,1,,,5e6e6df77fa76d000ba0f155,61b90966e8a91f603cbb368a,2021-12-14_21h15.33.715,PRaM,2021.2.3,Win32,59.88023952,61b8f3437b89212fae0dfadf
2,2.5516,space,0.9407,0,96,96,25,1,,,5e6e6df77fa76d000ba0f155,61b90966e8a91f603cbb368a,2021-12-14_21h15.33.715,PRaM,2021.2.3,Win32,59.88023952,61b8f3437b89212fae0dfadf
3,2.036,space,0.3785,0,97,97,131,1,,,5e6e6df77fa76d000ba0f155,61b90966e8a91f603cbb368a,2021-12-14_21h15.33.715,PRaM,2021.2.3,Win32,59.88023952,61b8f3437b89212fae0dfadf
4,3.0719,space,1.2778,0,98,98,93,1,,,5e6e6df77fa76d000ba0f155,61b90966e8a91f603cbb368a,2021-12-14_21h15.33.715,PRaM,2021.2.3,Win32,59.88023952,61b8f3437b89212fae0dfadf
,,space,0.0511,0,99,99,213,1,,,5e6e6df77fa76d000ba0f155,61b90966e8a91f603cbb368a,2021-12-14_21h15.33.715,PRaM,2021.2.3,Win32,59.88023952,61b8f3437b89212fae0dfadf
3,7.1356,space,6.0576,0,100,100,205,1,,,5e6e6df77fa76d000ba0f155,61b90966e8a91f603cbb368a,2021-12-14_21h15.33.715,PRaM,2021.2.3,Win32,59.88023952,61b8f3437b89212fae0dfadf
6,3.0994,space,1.552,0,101,101,244,1,,,5e6e6df77fa76d000ba0f155,61b90966e8a91f603cbb368a,2021-12-14_21h15.33.715,PRaM,2021.2.3,Win32,59.88023952,61b8f3437b89212fae0dfadf
6,2.5278,space,0.9185,0,102,102,192,1,,,5e6e6df77fa76d000ba0f155,61b90966e8a91f603cbb368a,2021-12-14_21h15.33.715,PRaM,2021.2.3,Win32,59.88023952,61b8f3437b89212fae0dfadf
4,2.7329,space,1.0837,0,103,103,147,1,,,5e6e6df77fa76d000ba0f155,61b90966e8a91f603cbb368a,2021-12-14_21h15.33.715,PRaM,2021.2.3,Win32,59.88023952,61b8f3437b89212fae0dfadf
6,2.2344,space,0.7894,0,104,104,326,1,,,5e6e6df77fa76d000ba0f155,61b90966e8a91f603cbb368a,2021-12-14_21h15.33.715,PRaM,2021.2.3,Win32,59.88023952,61b8f3437b89212fae0dfadf
3,3.1112,space,1.5223,0,105,105,368,1,,,5e6e6df77fa76d000ba0f155,61b90966e8a91f603cbb368a,2021-12-14_21h15.33.715,PRaM,2021.2.3,Win32,59.88023952,61b8f3437b89212fae0dfadf
2,3.0952,space,1.403,0,106,106,294,1,,,5e6e6df77fa76d000ba0f155,61b90966e8a91f603cbb368a,2021-12-14_21h15.33.715,PRaM,2021.2.3,Win32,59.88023952,61b8f3437b89212fae0dfadf
3,2.5134,space,0.897,0,107,107,175,1,,,5e6e6df77fa76d000ba0f155,61b90966e8a91f603cbb368a,2021-12-14_21h15.33.715,PRaM,2021.2.3,Win32,59.88023952,61b8f3437b89212fae0dfadf
3,3.5509,space,2.0105,0,108,108,297,1,,,5e6e6df77fa76d000ba0f155,61b90966e8a91f603cbb368a,2021-12-14_21h15.33.715,PRaM,2021.2.3,Win32,59.88023952,61b8f3437b89212fae0dfadf
2,2.4313,space,0.8573,0,109,109,13,1,,,5e6e6df77fa76d000ba0f155,61b90966e8a91f603cbb368a,2021-12-14_21h15.33.715,PRaM,2021.2.3,Win32,59.88023952,61b8f3437b89212fae0dfadf
1,4.4872,space,2.8725,0,110,110,58,1,,,5e6e6df77fa76d000ba0f155,61b90966e8a91f603cbb368a,2021-12-14_21h15.33.715,PRaM,2021.2.3,Win32,59.88023952,61b8f3437b89212fae0dfadf
1,2.7361,space,1.0747,0,111,111,41,1,,,5e6e6df77fa76d000ba0f155,61b90966e8a91f603cbb368a,2021-12-14_21h15.33.715,PRaM,2021.2.3,Win32,59.88023952,61b8f3437b89212fae0dfadf
3,3.0891,space,1.7413,0,112,112,319,1,,,5e6e6df77fa76d000ba0f155,61b90966e8a91f603cbb368a,2021-12-14_21h15.33.715,PRaM,2021.2.3,Win32,59.88023952,61b8f3437b89212fae0dfadf
2,2.3428,space,0.673,0,113,113,299,1,,,5e6e6df77fa76d000ba0f155,61b90966e8a91f603cbb368a,2021-12-14_21h15.33.715,PRaM,2021.2.3,Win32,59.88023952,61b8f3437b89212fae0dfadf
2,2.547,space,0.8686,0,114,114,176,1,,,5e6e6df77fa76d000ba0f155,61b90966e8a91f603cbb368a,2021-12-14_21h15.33.715,PRaM,2021.2.3,Win32,59.88023952,61b8f3437b89212fae0dfadf
,,space,0.1341,0,115,115,75,1,,,5e6e6df77fa76d000ba0f155,61b90966e8a91f603cbb368a,2021-12-14_21h15.33.715,PRaM,2021.2.3,Win32,59.88023952,61b8f3437b89212fae0dfadf
1,7.576,space,5.9628,0,116,116,108,1,,,5e6e6df77fa76d000ba0f155,61b90966e8a91f603cbb368a,2021-12-14_21h15.33.715,PRaM,2021.2.3,Win32,59.88023952,61b8f3437b89212fae0dfadf
9,3.4116,space,2.3383,0,117,117,320,1,,,5e6e6df77fa76d000ba0f155,61b90966e8a91f603cbb368a,2021-12-14_21h15.33.715,PRaM,2021.2.3,Win32,59.88023952,61b8f3437b89212fae0dfadf
4,5.1815,space,3.5653,0,118,118,351,1,,,5e6e6df77fa76d000ba0f155,61b90966e8a91f603cbb368a,2021-12-14_21h15.33.715,PRaM,2021.2.3,Win32,59.88023952,61b8f3437b89212fae0dfadf
2,2.5293,space,0.9165,0,119,119,318,1,,,5e6e6df77fa76d000ba0f155,61b90966e8a91f603cbb368a,2021-12-14_21h15.33.715,PRaM,2021.2.3,Win32,59.88023952,61b8f3437b89212fae0dfadf
3,1.6868,space,0.0656,0,120,120,56,1,,,5e6e6df77fa76d000ba0f155,61b90966e8a91f603cbb368a,2021-12-14_21h15.33.715,PRaM,2021.2.3,Win32,59.88023952,61b8f3437b89212fae0dfadf
2,1.6438,space,0.875,0,121,121,362,1,,,5e6e6df77fa76d000ba0f155,61b90966e8a91f603cbb368a,2021-12-14_21h15.33.715,PRaM,2021.2.3,Win32,59.88023952,61b8f3437b89212fae0dfadf
2,6.5029,space,4.8178,0,122,122,52,1,,,5e6e6df77fa76d000ba0f155,61b90966e8a91f603cbb368a,2021-12-14_21h15.33.715,PRaM,2021.2.3,Win32,59.88023952,61b8f3437b89212fae0dfadf
2,2.1197,space,0.2553,0,123,123,89,1,,,5e6e6df77fa76d000ba0f155,61b90966e8a91f603cbb368a,2021-12-14_21h15.33.715,PRaM,2021.2.3,Win32,59.88023952,61b8f3437b89212fae0dfadf
4,3.1866,space,1.5678,0,124,124,132,1,,,5e6e6df77fa76d000ba0f155,61b90966e8a91f603cbb368a,2021-12-14_21h15.33.715,PRaM,2021.2.3,Win32,59.88023952,61b8f3437b89212fae0dfadf
1,3.2337,space,1.6367,0,125,125,243,1,,,5e6e6df77fa76d000ba0f155,61b90966e8a91f603cbb368a,2021-12-14_21h15.33.715,PRaM,2021.2.3,Win32,59.88023952,61b8f3437b89212fae0dfadf
2,2.065,space,0.4702,0,126,126,352,1,,,5e6e6df77fa76d000ba0f155,61b90966e8a91f603cbb368a,2021-12-14_21h15.33.715,PRaM,2021.2.3,Win32,59.88023952,61b8f3437b89212fae0dfadf
2,1.617,space,1.0717,0,127,127,343,1,,,5e6e6df77fa76d000ba0f155,61b90966e8a91f603cbb368a,2021-12-14_21h15.33.715,PRaM,2021.2.3,Win32,59.88023952,61b8f3437b89212fae0dfadf
2,2.0819,space,0.5346,0,128,128,165,1,,,5e6e6df77fa76d000ba0f155,61b90966e8a91f603cbb368a,2021-12-14_21h15.33.715,PRaM,2021.2.3,Win32,59.88023952,61b8f3437b89212fae0dfadf
2,6.036,space,4.4158,0,129,129,69,1,,,5e6e6df77fa76d000ba0f155,61b90966e8a91f603cbb368a,2021-12-14_21h15.33.715,PRaM,2021.2.3,Win32,59.88023952,61b8f3437b89212fae0dfadf
2,3.2364,space,1.6436,0,130,130,346,1,,,5e6e6df77fa76d000ba0f155,61b90966e8a91f603cbb368a,2021-12-14_21h15.33.715,PRaM,2021.2.3,Win32,59.88023952,61b8f3437b89212fae0dfadf
6,2.5101,space,0.9033,0,131,131,38,1,,,5e6e6df77fa76d000ba0f155,61b90966e8a91f603cbb368a,2021-12-14_21h15.33.715,PRaM,2021.2.3,Win32,59.88023952,61b8f3437b89212fae0dfadf
3,2.2282,space,2.2913,0,132,132,19,1,,,5e6e6df77fa76d000ba0f155,61b90966e8a91f603cbb368a,2021-12-14_21h15.33.715,PRaM,2021.2.3,Win32,59.88023952,61b8f3437b89212fae0dfadf
2,2.0609,space,0.489,0,133,133,254,1,,,5e6e6df77fa76d000ba0f155,61b90966e8a91f603cbb368a,2021-12-14_21h15.33.715,PRaM,2021.2.3,Win32,59.88023952,61b8f3437b89212fae0dfadf
7,3.8979,space,2.1889,0,134,134,3,1,,,5e6e6df77fa76d000ba0f155,61b90966e8a91f603cbb368a,2021-12-14_21h15.33.715,PRaM,2021.2.3,Win32,59.88023952,61b8f3437b89212fae0dfadf
2,3.0856,space,1.6058,0,135,135,237,1,,,5e6e6df77fa76d000ba0f155,61b90966e8a91f603cbb368a,2021-12-14_21h15.33.715,PRaM,2021.2.3,Win32,59.88023952,61b8f3437b89212fae0dfadf
4,2.6268,space,1.0075,0,136,136,334,1,,,5e6e6df77fa76d000ba0f155,61b90966e8a91f603cbb368a,2021-12-14_21h15.33.715,PRaM,2021.2.3,Win32,59.88023952,61b8f3437b89212fae0dfadf
1,1.8251,space,0.2075,0,137,137,214,1,,,5e6e6df77fa76d000ba0f155,61b90966e8a91f603cbb368a,2021-12-14_21h15.33.715,PRaM,2021.2.3,Win32,59.88023952,61b8f3437b89212fae0dfadf
1,5.7663,space,4.2022,0,138,138,68,1,,,5e6e6df77fa76d000ba0f155,61b90966e8a91f603cbb368a,2021-12-14_21h15.33.715,PRaM,2021.2.3,Win32,59.88023952,61b8f3437b89212fae0dfadf
3,2.717,space,1.1202,0,139,139,271,1,,,5e6e6df77fa76d000ba0f155,61b90966e8a91f603cbb368a,2021-12-14_21h15.33.715,PRaM,2021.2.3,Win32,59.88023952,61b8f3437b89212fae0dfadf
3,2.2764,space,0.6719,0,140,140,167,1,,,5e6e6df77fa76d000ba0f155,61b90966e8a91f603cbb368a,2021-12-14_21h15.33.715,PRaM,2021.2.3,Win32,59.88023952,61b8f3437b89212fae0dfadf
1,2.2668,space,0.6538,0,141,141,188,1,,,5e6e6df77fa76d000ba0f155,61b90966e8a91f603cbb368a,2021-12-14_21h15.33.715,PRaM,2021.2.3,Win32,59.88023952,61b8f3437b89212fae0dfadf
2,1.9255,space,0.2753,0,142,142,104,1,,,5e6e6df77fa76d000ba0f155,61b90966e8a91f603cbb368a,2021-12-14_21h15.33.715,PRaM,2021.2.3,Win32,59.88023952,61b8f3437b89212fae0dfadf
3,4.4217,space,2.7522,0,143,143,198,1,,,5e6e6df77fa76d000ba0f155,61b90966e8a91f603cbb368a,2021-12-14_21h15.33.715,PRaM,2021.2.3,Win32,59.88023952,61b8f3437b89212fae0dfadf
2,2.1779,space,0.4846,0,144,144,189,1,,,5e6e6df77fa76d000ba0f155,61b90966e8a91f603cbb368a,2021-12-14_21h15.33.715,PRaM,2021.2.3,Win32,59.88023952,61b8f3437b89212fae0dfadf
5,1.8263,space,0.1779,0,145,145,208,1,,,5e6e6df77fa76d000ba0f155,61b90966e8a91f603cbb368a,2021-12-14_21h15.33.715,PRaM,2021.2.3,Win32,59.88023952,61b8f3437b89212fae0dfadf
3,3.3479,space,1.7504,0,146,146,280,1,,,5e6e6df77fa76d000ba0f155,61b90966e8a91f603cbb368a,2021-12-14_21h15.33.715,PRaM,2021.2.3,Win32,59.88023952,61b8f3437b89212fae0dfadf
1,2.107,space,0.5646,0,147,147,312,1,,,5e6e6df77fa76d000ba0f155,61b90966e8a91f603cbb368a,2021-12-14_21h15.33.715,PRaM,2021.2.3,Win32,59.88023952,61b8f3437b89212fae0dfadf
1,5.2157,space,3.9081,0,148,148,79,1,,,5e6e6df77fa76d000ba0f155,61b90966e8a91f603cbb368a,2021-12-14_21h15.33.715,PRaM,2021.2.3,Win32,59.88023952,61b8f3437b89212fae0dfadf
2,1.8044,space,0.234,0,149,149,281,1,,,5e6e6df77fa76d000ba0f155,61b90966e8a91f603cbb368a,2021-12-14_21h15.33.715,PRaM,2021.2.3,Win32,59.88023952,61b8f3437b89212fae0dfadf
1,2.972,space,1.3273,0,150,150,28,1,,,5e6e6df77fa76d000ba0f155,61b90966e8a91f603cbb368a,2021-12-14_21h15.33.715,PRaM,2021.2.3,Win32,59.88023952,61b8f3437b89212fae0dfadf
2,3.3465,space,1.5832,0,151,151,14,1,,,5e6e6df77fa76d000ba0f155,61b90966e8a91f603cbb368a,2021-12-14_21h15.33.715,PRaM,2021.2.3,Win32,59.88023952,61b8f3437b89212fae0dfadf
1,1.6754,space,0.1037,0,152,152,50,1,,,5e6e6df77fa76d000ba0f155,61b90966e8a91f603cbb368a,2021-12-14_21h15.33.715,PRaM,2021.2.3,Win32,59.88023952,61b8f3437b89212fae0dfadf
3,1.9691,space,0.3305,0,153,153,226,1,,,5e6e6df77fa76d000ba0f155,61b90966e8a91f603cbb368a,2021-12-14_21h15.33.715,PRaM,2021.2.3,Win32,59.88023952,61b8f3437b89212fae0dfadf
1,2.0034,space,0.3341,0,154,154,107,1,,,5e6e6df77fa76d000ba0f155,61b90966e8a91f603cbb368a,2021-12-14_21h15.33.715,PRaM,2021.2.3,Win32,59.88023952,61b8f3437b89212fae0dfadf
1,2.4603,space,0.8769,0,155,155,212,1,,,5e6e6df77fa76d000ba0f155,61b90966e8a91f603cbb368a,2021-12-14_21h15.33.715,PRaM,2021.2.3,Win32,59.88023952,61b8f3437b89212fae0dfadf
2,2.7956,space,1.0692,0,156,156,73,1,,,5e6e6df77fa76d000ba0f155,61b90966e8a91f603cbb368a,2021-12-14_21h15.33.715,PRaM,2021.2.3,Win32,59.88023952,61b8f3437b89212fae0dfadf
2,2.4937,space,0.7983,0,157,157,370,1,,,5e6e6df77fa76d000ba0f155,61b90966e8a91f603cbb368a,2021-12-14_21h15.33.715,PRaM,2021.2.3,Win32,59.88023952,61b8f3437b89212fae0dfadf
3,2.5408,space,0.8875,0,158,158,0,1,,,5e6e6df77fa76d000ba0f155,61b90966e8a91f603cbb368a,2021-12-14_21h15.33.715,PRaM,2021.2.3,Win32,59.88023952,61b8f3437b89212fae0dfadf
6,2.7041,space,1.0693,0,159,159,255,1,,,5e6e6df77fa76d000ba0f155,61b90966e8a91f603cbb368a,2021-12-14_21h15.33.715,PRaM,2021.2.3,Win32,59.88023952,61b8f3437b89212fae0dfadf
3,1.7358,space,0.0133,0,160,160,327,1,,,5e6e6df77fa76d000ba0f155,61b90966e8a91f603cbb368a,2021-12-14_21h15.33.715,PRaM,2021.2.3,Win32,59.88023952,61b8f3437b89212fae0dfadf
1,2.8987,space,1.1692,0,161,161,329,1,,,5e6e6df77fa76d000ba0f155,61b90966e8a91f603cbb368a,2021-12-14_21h15.33.715,PRaM,2021.2.3,Win32,59.88023952,61b8f3437b89212fae0dfadf
2,1.8929,space,0.2888,0,162,162,256,1,,,5e6e6df77fa76d000ba0f155,61b90966e8a91f603cbb368a,2021-12-14_21h15.33.715,PRaM,2021.2.3,Win32,59.88023952,61b8f3437b89212fae0dfadf
3,2.1005,space,0.3379,0,163,163,6,1,,,5e6e6df77fa76d000ba0f155,61b90966e8a91f603cbb368a,2021-12-14_21h15.33.715,PRaM,2021.2.3,Win32,59.88023952,61b8f3437b89212fae0dfadf
4,2.9131,space,1.1085,0,164,164,336,1,,,5e6e6df77fa76d000ba0f155,61b90966e8a91f603cbb368a,2021-12-14_21h15.33.715,PRaM,2021.2.3,Win32,59.88023952,61b8f3437b89212fae0dfadf
5,2.2262,space,0.6221,0,165,165,66,1,,,5e6e6df77fa76d000ba0f155,61b90966e8a91f603cbb368a,2021-12-14_21h15.33.715,PRaM,2021.2.3,Win32,59.88023952,61b8f3437b89212fae0dfadf
5,1.9368,space,0.301,0,166,166,99,1,,,5e6e6df77fa76d000ba0f155,61b90966e8a91f603cbb368a,2021-12-14_21h15.33.715,PRaM,2021.2.3,Win32,59.88023952,61b8f3437b89212fae0dfadf
4,1.7194,space,0.1192,0,167,167,181,1,,,5e6e6df77fa76d000ba0f155,61b90966e8a91f603cbb368a,2021-12-14_21h15.33.715,PRaM,2021.2.3,Win32,59.88023952,61b8f3437b89212fae0dfadf
5,1.8936,space,0.0908,0,168,168,264,1,,,5e6e6df77fa76d000ba0f155,61b90966e8a91f603cbb368a,2021-12-14_21h15.33.715,PRaM,2021.2.3,Win32,59.88023952,61b8f3437b89212fae0dfadf
4,2.5336,space,0.8352,0,169,169,358,1,,,5e6e6df77fa76d000ba0f155,61b90966e8a91f603cbb368a,2021-12-14_21h15.33.715,PRaM,2021.2.3,Win32,59.88023952,61b8f3437b89212fae0dfadf
1,2.5324,space,0.8854,0,170,170,354,1,,,5e6e6df77fa76d000ba0f155,61b90966e8a91f603cbb368a,2021-12-14_21h15.33.715,PRaM,2021.2.3,Win32,59.88023952,61b8f3437b89212fae0dfadf
4,4.0109,space,2.1712,0,171,171,238,1,,,5e6e6df77fa76d000ba0f155,61b90966e8a91f603cbb368a,2021-12-14_21h15.33.715,PRaM,2021.2.3,Win32,59.88023952,61b8f3437b89212fae0dfadf
2,2.5097,space,0.7686,0,172,172,315,1,,,5e6e6df77fa76d000ba0f155,61b90966e8a91f603cbb368a,2021-12-14_21h15.33.715,PRaM,2021.2.3,Win32,59.88023952,61b8f3437b89212fae0dfadf
3,1.9281,space,0.0698,0,173,173,199,1,,,5e6e6df77fa76d000ba0f155,61b90966e8a91f603cbb368a,2021-12-14_21h15.33.715,PRaM,2021.2.3,Win32,59.88023952,61b8f3437b89212fae0dfadf
5,2.7206,space,0.9196,0,174,174,60,1,,,5e6e6df77fa76d000ba0f155,61b90966e8a91f603cbb368a,2021-12-14_21h15.33.715,PRaM,2021.2.3,Win32,59.88023952,61b8f3437b89212fae0dfadf
2,3.737,space,1.9539,0,175,175,353,1,,,5e6e6df77fa76d000ba0f155,61b90966e8a91f603cbb368a,2021-12-14_21h15.33.715,PRaM,2021.2.3,Win32,59.88023952,61b8f3437b89212fae0dfadf
1,4.0298,space,2.4178,0,176,176,78,1,,,5e6e6df77fa76d000ba0f155,61b90966e8a91f603cbb368a,2021-12-14_21h15.33.715,PRaM,2021.2.3,Win32,59.88023952,61b8f3437b89212fae0dfadf
1,3.5127,space,2.6477,0,177,177,133,1,,,5e6e6df77fa76d000ba0f155,61b90966e8a91f603cbb368a,2021-12-14_21h15.33.715,PRaM,2021.2.3,Win32,59.88023952,61b8f3437b89212fae0dfadf
2,2.9046,space,1.1592,0,178,178,311,1,,,5e6e6df77fa76d000ba0f155,61b90966e8a91f603cbb368a,2021-12-14_21h15.33.715,PRaM,2021.2.3,Win32,59.88023952,61b8f3437b89212fae0dfadf
1,3.2861,space,1.5663,0,179,179,342,1,,,5e6e6df77fa76d000ba0f155,61b90966e8a91f603cbb368a,2021-12-14_21h15.33.715,PRaM,2021.2.3,Win32,59.88023952,61b8f3437b89212fae0dfadf
2,3.6565,space,1.9041,0,180,180,356,1,,,5e6e6df77fa76d000ba0f155,61b90966e8a91f603cbb368a,2021-12-14_21h15.33.715,PRaM,2021.2.3,Win32,59.88023952,61b8f3437b89212fae0dfadf
2,3.5637,space,1.9541,0,181,181,240,1,,,5e6e6df77fa76d000ba0f155,61b90966e8a91f603cbb368a,2021-12-14_21h15.33.715,PRaM,2021.2.3,Win32,59.88023952,61b8f3437b89212fae0dfadf
1,1.6605,space,0.7579,0,182,182,65,1,,,5e6e6df77fa76d000ba0f155,61b90966e8a91f603cbb368a,2021-12-14_21h15.33.715,PRaM,2021.2.3,Win32,59.88023952,61b8f3437b89212fae0dfadf
6,2.1198,space,0.5701,0,183,183,225,1,,,5e6e6df77fa76d000ba0f155,61b90966e8a91f603cbb368a,2021-12-14_21h15.33.715,PRaM,2021.2.3,Win32,59.88023952,61b8f3437b89212fae0dfadf
3,2.4681,space,0.683,0,184,184,57,1,,,5e6e6df77fa76d000ba0f155,61b90966e8a91f603cbb368a,2021-12-14_21h15.33.715,PRaM,2021.2.3,Win32,59.88023952,61b8f3437b89212fae0dfadf
5,2.418,space,0.654,0,185,185,114,1,,,5e6e6df77fa76d000ba0f155,61b90966e8a91f603cbb368a,2021-12-14_21h15.33.715,PRaM,2021.2.3,Win32,59.88023952,61b8f3437b89212fae0dfadf
6,2.3283,space,0.7517,0,186,186,242,1,,,5e6e6df77fa76d000ba0f155,61b90966e8a91f603cbb368a,2021-12-14_21h15.33.715,PRaM,2021.2.3,Win32,59.88023952,61b8f3437b89212fae0dfadf
6,3.9966,space,2.1734,0,187,187,134,1,,,5e6e6df77fa76d000ba0f155,61b90966e8a91f603cbb368a,2021-12-14_21h15.33.715,PRaM,2021.2.3,Win32,59.88023952,61b8f3437b89212fae0dfadf
5,4.6705,space,2.7723,0,188,188,261,1,,,5e6e6df77fa76d000ba0f155,61b90966e8a91f603cbb368a,2021-12-14_21h15.33.715,PRaM,2021.2.3,Win32,59.88023952,61b8f3437b89212fae0dfadf
3,2.9796,space,1.4076,0,189,189,55,1,,,5e6e6df77fa76d000ba0f155,61b90966e8a91f603cbb368a,2021-12-14_21h15.33.715,PRaM,2021.2.3,Win32,59.88023952,61b8f3437b89212fae0dfadf
4,2.4145,space,0.7875,0,190,190,22,1,,,5e6e6df77fa76d000ba0f155,61b90966e8a91f603cbb368a,2021-12-14_21h15.33.715,PRaM,2021.2.3,Win32,59.88023952,61b8f3437b89212fae0dfadf
3,1.8012,space,0.0526,0,191,191,361,1,,,5e6e6df77fa76d000ba0f155,61b90966e8a91f603cbb368a,2021-12-14_21h15.33.715,PRaM,2021.2.3,Win32,59.88023952,61b8f3437b89212fae0dfadf
3,2.0658,space,0.2028,0,192,192,365,1,,,5e6e6df77fa76d000ba0f155,61b90966e8a91f603cbb368a,2021-12-14_21h15.33.715,PRaM,2021.2.3,Win32,59.88023952,61b8f3437b89212fae0dfadf
1,1.9448,space,0.2241,0,193,193,339,1,,,5e6e6df77fa76d000ba0f155,61b90966e8a91f603cbb368a,2021-12-14_21h15.33.715,PRaM,2021.2.3,Win32,59.88023952,61b8f3437b89212fae0dfadf
2,6.2421,space,4.4568,0,194,194,90,1,,,5e6e6df77fa76d000ba0f155,61b90966e8a91f603cbb368a,2021-12-14_21h15.33.715,PRaM,2021.2.3,Win32,59.88023952,61b8f3437b89212fae0dfadf
6,2.7522,space,1.6869,0,195,195,269,1,,,5e6e6df77fa76d000ba0f155,61b90966e8a91f603cbb368a,2021-12-14_21h15.33.715,PRaM,2021.2.3,Win32,59.88023952,61b8f3437b89212fae0dfadf
7,3.6916,space,1.9758,0,196,196,53,1,,,5e6e6df77fa76d000ba0f155,61b90966e8a91f603cbb368a,2021-12-14_21h15.33.715,PRaM,2021.2.3,Win32,59.88023952,61b8f3437b89212fae0dfadf
2,1.9339,space,0.2341,0,197,197,231,1,,,5e6e6df77fa76d000ba0f155,61b90966e8a91f603cbb368a,2021-12-14_21h15.33.715,PRaM,2021.2.3,Win32,59.88023952,61b8f3437b89212fae0dfadf
5,1.8773,space,0.3321,0,198,198,263,1,,,5e6e6df77fa76d000ba0f155,61b90966e8a91f603cbb368a,2021-12-14_21h15.33.715,PRaM,2021.2.3,Win32,59.88023952,61b8f3437b89212fae0dfadf
1,3.0208,space,1.2026,0,199,199,15,1,,,5e6e6df77fa76d000ba0f155,61b90966e8a91f603cbb368a,2021-12-14_21h15.33.715,PRaM,2021.2.3,Win32,59.88023952,61b8f3437b89212fae0dfadf
6,2.8855,space,1.2367,0,200,200,335,1,,,5e6e6df77fa76d000ba0f155,61b90966e8a91f603cbb368a,2021-12-14_21h15.33.715,PRaM,2021.2.3,Win32,59.88023952,61b8f3437b89212fae0dfadf
2,2.2949,space,0.4766,0,201,201,96,1,,,5e6e6df77fa76d000ba0f155,61b90966e8a91f603cbb368a,2021-12-14_21h15.33.715,PRaM,2021.2.3,Win32,59.88023952,61b8f3437b89212fae0dfadf
1,2.7011,space,1.0732,0,202,202,8,1,,,5e6e6df77fa76d000ba0f155,61b90966e8a91f603cbb368a,2021-12-14_21h15.33.715,PRaM,2021.2.3,Win32,59.88023952,61b8f3437b89212fae0dfadf
3,2.0609,space,0.4701,0,203,203,314,1,,,5e6e6df77fa76d000ba0f155,61b90966e8a91f603cbb368a,2021-12-14_21h15.33.715,PRaM,2021.2.3,Win32,59.88023952,61b8f3437b89212fae0dfadf
2,2.3317,space,0.6349,0,204,204,324,1,,,5e6e6df77fa76d000ba0f155,61b90966e8a91f603cbb368a,2021-12-14_21h15.33.715,PRaM,2021.2.3,Win32,59.88023952,61b8f3437b89212fae0dfadf
6,1.8367,space,0.1673,0,205,205,279,1,,,5e6e6df77fa76d000ba0f155,61b90966e8a91f603cbb368a,2021-12-14_21h15.33.715,PRaM,2021.2.3,Win32,59.88023952,61b8f3437b89212fae0dfadf
3,1.6249,space,0.6851,0,206,206,219,1,,,5e6e6df77fa76d000ba0f155,61b90966e8a91f603cbb368a,2021-12-14_21h15.33.715,PRaM,2021.2.3,Win32,59.88023952,61b8f3437b89212fae0dfadf
2,4.7391,space,3.0563,0,207,207,220,1,,,5e6e6df77fa76d000ba0f155,61b90966e8a91f603cbb368a,2021-12-14_21h15.33.715,PRaM,2021.2.3,Win32,59.88023952,61b8f3437b89212fae0dfadf
4,2.3627,space,0.8018,0,208,208,142,1,,,5e6e6df77fa76d000ba0f155,61b90966e8a91f603cbb368a,2021-12-14_21h15.33.715,PRaM,2021.2.3,Win32,59.88023952,61b8f3437b89212fae0dfadf
2,3.0208,space,1.2527,0,209,209,163,1,,,5e6e6df77fa76d000ba0f155,61b90966e8a91f603cbb368a,2021-12-14_21h15.33.715,PRaM,2021.2.3,Win32,59.88023952,61b8f3437b89212fae0dfadf
2,1.7315,space,0.7252,0,210,210,373,1,,,5e6e6df77fa76d000ba0f155,61b90966e8a91f603cbb368a,2021-12-14_21h15.33.715,PRaM,2021.2.3,Win32,59.88023952,61b8f3437b89212fae0dfadf
4,2.3291,space,0.7185,0,211,211,363,1,,,5e6e6df77fa76d000ba0f155,61b90966e8a91f603cbb368a,2021-12-14_21h15.33.715,PRaM,2021.2.3,Win32,59.88023952,61b8f3437b89212fae0dfadf
8,2.9455,space,1.4699,0,212,212,166,1,,,5e6e6df77fa76d000ba0f155,61b90966e8a91f603cbb368a,2021-12-14_21h15.33.715,PRaM,2021.2.3,Win32,59.88023952,61b8f3437b89212fae0dfadf
3,1.6689,space,0.3846,0,213,213,295,1,,,5e6e6df77fa76d000ba0f155,61b90966e8a91f603cbb368a,2021-12-14_21h15.33.715,PRaM,2021.2.3,Win32,59.88023952,61b8f3437b89212fae0dfadf
3,2.0552,space,0.3176,0,214,214,344,1,,,5e6e6df77fa76d000ba0f155,61b90966e8a91f603cbb368a,2021-12-14_21h15.33.715,PRaM,2021.2.3,Win32,59.88023952,61b8f3437b89212fae0dfadf
2,1.7861,space,0.0853,0,215,215,111,1,,,5e6e6df77fa76d000ba0f155,61b90966e8a91f603cbb368a,2021-12-14_21h15.33.715,PRaM,2021.2.3,Win32,59.88023952,61b8f3437b89212fae0dfadf
1,2.2348,space,0.6182,0,216,216,2,1,,,5e6e6df77fa76d000ba0f155,61b90966e8a91f603cbb368a,2021-12-14_21h15.33.715,PRaM,2021.2.3,Win32,59.88023952,61b8f3437b89212fae0dfadf
2,2.7891,space,1.236,0,217,217,313,1,,,5e6e6df77fa76d000ba0f155,61b90966e8a91f603cbb368a,2021-12-14_21h15.33.715,PRaM,2021.2.3,Win32,59.88023952,61b8f3437b89212fae0dfadf
3,6.411,space,6.3926,0,218,218,18,1,,,5e6e6df77fa76d000ba0f155,61b90966e8a91f603cbb368a,2021-12-14_21h15.33.715,PRaM,2021.2.3,Win32,59.88023952,61b8f3437b89212fae0dfadf
3,2.445,space,0.5847,0,219,219,129,1,,,5e6e6df77fa76d000ba0f155,61b90966e8a91f603cbb368a,2021-12-14_21h15.33.715,PRaM,2021.2.3,Win32,59.88023952,61b8f3437b89212fae0dfadf
3,4.0906,space,2.2368,0,220,220,366,1,,,5e6e6df77fa76d000ba0f155,61b90966e8a91f603cbb368a,2021-12-14_21h15.33.715,PRaM,2021.2.3,Win32,59.88023952,61b8f3437b89212fae0dfadf
4,2.2598,space,0.7184,0,221,221,260,1,,,5e6e6df77fa76d000ba0f155,61b90966e8a91f603cbb368a,2021-12-14_21h15.33.715,PRaM,2021.2.3,Win32,59.88023952,61b8f3437b89212fae0dfadf
3,2.0368,space,0.1671,0,222,222,92,1,,,5e6e6df77fa76d000ba0f155,61b90966e8a91f603cbb368a,2021-12-14_21h15.33.715,PRaM,2021.2.3,Win32,59.88023952,61b8f3437b89212fae0dfadf
6,2.602,space,1.3531,0,223,223,200,1,,,5e6e6df77fa76d000ba0f155,61b90966e8a91f603cbb368a,2021-12-14_21h15.33.715,PRaM,2021.2.3,Win32,59.88023952,61b8f3437b89212fae0dfadf
4,2.0698,space,0.161,0,224,224,185,1,,,5e6e6df77fa76d000ba0f155,61b90966e8a91f603cbb368a,2021-12-14_21h15.33.715,PRaM,2021.2.3,Win32,59.88023952,61b8f3437b89212fae0dfadf
1,2.8722,space,0.954,0,225,225,250,1,,,5e6e6df77fa76d000ba0f155,61b90966e8a91f603cbb368a,2021-12-14_21h15.33.715,PRaM,2021.2.3,Win32,59.88023952,61b8f3437b89212fae0dfadf
6,2.3263,space,0.6261,0,226,226,285,1,,,5e6e6df77fa76d000ba0f155,61b90966e8a91f603cbb368a,2021-12-14_21h15.33.715,PRaM,2021.2.3,Win32,59.88023952,61b8f3437b89212fae0dfadf
5,2.4178,space,0.7888,0,227,227,221,1,,,5e6e6df77fa76d000ba0f155,61b90966e8a91f603cbb368a,2021-12-14_21h15.33.715,PRaM,2021.2.3,Win32,59.88023952,61b8f3437b89212fae0dfadf
5,2.2781,space,0.451,0,228,228,40,1,,,5e6e6df77fa76d000ba0f155,61b90966e8a91f603cbb368a,2021-12-14_21h15.33.715,PRaM,2021.2.3,Win32,59.88023952,61b8f3437b89212fae0dfadf
8,3.7207,space,2.0526,0,229,229,20,1,,,5e6e6df77fa76d000ba0f155,61b90966e8a91f603cbb368a,2021-12-14_21h15.33.715,PRaM,2021.2.3,Win32,59.88023952,61b8f3437b89212fae0dfadf
2,1.9461,space,0.1505,0,230,230,289,1,,,5e6e6df77fa76d000ba0f155,61b90966e8a91f603cbb368a,2021-12-14_21h15.33.715,PRaM,2021.2.3,Win32,59.88023952,61b8f3437b89212fae0dfadf
3,1.5434,space,0.5088,0,231,231,333,1,,,5e6e6df77fa76d000ba0f155,61b90966e8a91f603cbb368a,2021-12-14_21h15.33.715,PRaM,2021.2.3,Win32,59.88023952,61b8f3437b89212fae0dfadf
3,2.0616,space,0.2396,0,232,232,249,1,,,5e6e6df77fa76d000ba0f155,61b90966e8a91f603cbb368a,2021-12-14_21h15.33.715,PRaM,2021.2.3,Win32,59.88023952,61b8f3437b89212fae0dfadf
4,2.2594,space,0.8947,0,233,233,355,1,,,5e6e6df77fa76d000ba0f155,61b90966e8a91f603cbb368a,2021-12-14_21h15.33.715,PRaM,2021.2.3,Win32,59.88023952,61b8f3437b89212fae0dfadf
5,2.6847,space,1.0022,0,234,234,62,1,,,5e6e6df77fa76d000ba0f155,61b90966e8a91f603cbb368a,2021-12-14_21h15.33.715,PRaM,2021.2.3,Win32,59.88023952,61b8f3437b89212fae0dfadf
5,2.4947,space,0.5768,0,235,235,174,1,,,5e6e6df77fa76d000ba0f155,61b90966e8a91f603cbb368a,2021-12-14_21h15.33.715,PRaM,2021.2.3,Win32,59.88023952,61b8f3437b89212fae0dfadf
6,2.8106,space,1.2527,0,236,236,222,1,,,5e6e6df77fa76d000ba0f155,61b90966e8a91f603cbb368a,2021-12-14_21h15.33.715,PRaM,2021.2.3,Win32,59.88023952,61b8f3437b89212fae0dfadf
3,2.395,space,0.7532,0,237,237,72,1,,,5e6e6df77fa76d000ba0f155,61b90966e8a91f603cbb368a,2021-12-14_21h15.33.715,PRaM,2021.2.3,Win32,59.88023952,61b8f3437b89212fae0dfadf
1,2.1653,space,0.5201,0,238,238,332,1,,,5e6e6df77fa76d000ba0f155,61b90966e8a91f603cbb368a,2021-12-14_21h15.33.715,PRaM,2021.2.3,Win32,59.88023952,61b8f3437b89212fae0dfadf
2,2.9056,space,1.2025,0,239,239,246,1,,,5e6e6df77fa76d000ba0f155,61b90966e8a91f603cbb368a,2021-12-14_21h15.33.715,PRaM,2021.2.3,Win32,59.88023952,61b8f3437b89212fae0dfadf
3,3.2343,space,1.4509,0,240,240,105,1,,,5e6e6df77fa76d000ba0f155,61b90966e8a91f603cbb368a,2021-12-14_21h15.33.715,PRaM,2021.2.3,Win32,59.88023952,61b8f3437b89212fae0dfadf
1,2.1448,space,0.3864,0,241,241,77,1,,,5e6e6df77fa76d000ba0f155,61b90966e8a91f603cbb368a,2021-12-14_21h15.33.715,PRaM,2021.2.3,Win32,59.88023952,61b8f3437b89212fae0dfadf
1,2.9294,space,1.4196,0,242,242,376,1,,,5e6e6df77fa76d000ba0f155,61b90966e8a91f603cbb368a,2021-12-14_21h15.33.715,PRaM,2021.2.3,Win32,59.88023952,61b8f3437b89212fae0dfadf
2,2.4119,space,1.1546,0,243,243,347,1,,,5e6e6df77fa76d000ba0f155,61b90966e8a91f603cbb368a,2021-12-14_21h15.33.715,PRaM,2021.2.3,Win32,59.88023952,61b8f3437b89212fae0dfadf
3,1.6488,space,0.3421,0,244,244,267,1,,,5e6e6df77fa76d000ba0f155,61b90966e8a91f603cbb368a,2021-12-14_21h15.33.715,PRaM,2021.2.3,Win32,59.88023952,61b8f3437b89212fae0dfadf
1,2.3409,space,0.5848,0,245,245,95,1,,,5e6e6df77fa76d000ba0f155,61b90966e8a91f603cbb368a,2021-12-14_21h15.33.715,PRaM,2021.2.3,Win32,59.88023952,61b8f3437b89212fae0dfadf
1,1.993,space,0.3677,0,246,246,190,1,,,5e6e6df77fa76d000ba0f155,61b90966e8a91f603cbb368a,2021-12-14_21h15.33.715,PRaM,2021.2.3,Win32,59.88023952,61b8f3437b89212fae0dfadf
9,4.517,space,2.9489,0,247,247,323,1,,,5e6e6df77fa76d000ba0f155,61b90966e8a91f603cbb368a,2021-12-14_21h15.33.715,PRaM,2021.2.3,Win32,59.88023952,61b8f3437b89212fae0dfadf
6,2.5011,space,0.8102,0,248,248,149,1,,,5e6e6df77fa76d000ba0f155,61b90966e8a91f603cbb368a,2021-12-14_21h15.33.715,PRaM,2021.2.3,Win32,59.88023952,61b8f3437b89212fae0dfadf
1,2.9962,space,1.3887,0,249,249,345,1,,,5e6e6df77fa76d000ba0f155,61b90966e8a91f603cbb368a,2021-12-14_21h15.33.715,PRaM,2021.2.3,Win32,59.88023952,61b8f3437b89212fae0dfadf
8,2.3423,space,0.685,0,250,250,137,1,,,5e6e6df77fa76d000ba0f155,61b90966e8a91f603cbb368a,2021-12-14_21h15.33.715,PRaM,2021.2.3,Win32,59.88023952,61b8f3437b89212fae0dfadf
2,1.8102,space,0.0169,0,251,251,98,1,,,5e6e6df77fa76d000ba0f155,61b90966e8a91f603cbb368a,2021-12-14_21h15.33.715,PRaM,2021.2.3,Win32,59.88023952,61b8f3437b89212fae0dfadf
5,3.3626,space,1.6114,0,252,252,305,1,,,5e6e6df77fa76d000ba0f155,61b90966e8a91f603cbb368a,2021-12-14_21h15.33.715,PRaM,2021.2.3,Win32,59.88023952,61b8f3437b89212fae0dfadf
1,2.2339,space,0.6271,0,253,253,316,1,,,5e6e6df77fa76d000ba0f155,61b90966e8a91f603cbb368a,2021-12-14_21h15.33.715,PRaM,2021.2.3,Win32,59.88023952,61b8f3437b89212fae0dfadf
2,3.1317,space,1.3198,0,254,254,155,1,,,5e6e6df77fa76d000ba0f155,61b90966e8a91f603cbb368a,2021-12-14_21h15.33.715,PRaM,2021.2.3,Win32,59.88023952,61b8f3437b89212fae0dfadf
2,2.0692,space,0.1848,0,255,255,144,1,,,5e6e6df77fa76d000ba0f155,61b90966e8a91f603cbb368a,2021-12-14_21h15.33.715,PRaM,2021.2.3,Win32,59.88023952,61b8f3437b89212fae0dfadf
3,2.4834,space,0.7015,0,256,256,331,1,,,5e6e6df77fa76d000ba0f155,61b90966e8a91f603cbb368a,2021-12-14_21h15.33.715,PRaM,2021.2.3,Win32,59.88023952,61b8f3437b89212fae0dfadf
4,2.1257,space,0.253,0,257,257,21,1,,,5e6e6df77fa76d000ba0f155,61b90966e8a91f603cbb368a,2021-12-14_21h15.33.715,PRaM,2021.2.3,Win32,59.88023952,61b8f3437b89212fae0dfadf
3,2.3705,space,0.6182,0,258,258,233,1,,,5e6e6df77fa76d000ba0f155,61b90966e8a91f603cbb368a,2021-12-14_21h15.33.715,PRaM,2021.2.3,Win32,59.88023952,61b8f3437b89212fae0dfadf
3,1.9802,space,0.1024,0,259,259,371,1,,,5e6e6df77fa76d000ba0f155,61b90966e8a91f603cbb368a,2021-12-14_21h15.33.715,PRaM,2021.2.3,Win32,59.88023952,61b8f3437b89212fae0dfadf
2,2.1779,space,0.4178,0,260,260,215,1,,,5e6e6df77fa76d000ba0f155,61b90966e8a91f603cbb368a,2021-12-14_21h15.33.715,PRaM,2021.2.3,Win32,59.88023952,61b8f3437b89212fae0dfadf
2,5.3003,space,3.5401,0,261,261,30,1,,,5e6e6df77fa76d000ba0f155,61b90966e8a91f603cbb368a,2021-12-14_21h15.33.715,PRaM,2021.2.3,Win32,59.88023952,61b8f3437b89212fae0dfadf
1,2.6214,space,0.852,0,262,262,63,1,,,5e6e6df77fa76d000ba0f155,61b90966e8a91f603cbb368a,2021-12-14_21h15.33.715,PRaM,2021.2.3,Win32,59.88023952,61b8f3437b89212fae0dfadf
1,3.3225,space,1.5535,0,263,263,193,1,,,5e6e6df77fa76d000ba0f155,61b90966e8a91f603cbb368a,2021-12-14_21h15.33.715,PRaM,2021.2.3,Win32,59.88023952,61b8f3437b89212fae0dfadf
2,4.8311,space,3.136,0,264,264,97,1,,,5e6e6df77fa76d000ba0f155,61b90966e8a91f603cbb368a,2021-12-14_21h15.33.715,PRaM,2021.2.3,Win32,59.88023952,61b8f3437b89212fae0dfadf
1,2.0702,space,0.2306,0,265,265,251,1,,,5e6e6df77fa76d000ba0f155,61b90966e8a91f603cbb368a,2021-12-14_21h15.33.715,PRaM,2021.2.3,Win32,59.88023952,61b8f3437b89212fae0dfadf
5,2.2739,space,0.635,0,266,266,45,1,,,5e6e6df77fa76d000ba0f155,61b90966e8a91f603cbb368a,2021-12-14_21h15.33.715,PRaM,2021.2.3,Win32,59.88023952,61b8f3437b89212fae0dfadf
3,1.7696,space,0.7647,0,267,267,150,1,,,5e6e6df77fa76d000ba0f155,61b90966e8a91f603cbb368a,2021-12-14_21h15.33.715,PRaM,2021.2.3,Win32,59.88023952,61b8f3437b89212fae0dfadf
4,1.573,space,0.4345,0,268,268,136,1,,,5e6e6df77fa76d000ba0f155,61b90966e8a91f603cbb368a,2021-12-14_21h15.33.715,PRaM,2021.2.3,Win32,59.88023952,61b8f3437b89212fae0dfadf
5,1.7695,space,0.2838,0,269,269,325,1,,,5e6e6df77fa76d000ba0f155,61b90966e8a91f603cbb368a,2021-12-14_21h15.33.715,PRaM,2021.2.3,Win32,59.88023952,61b8f3437b89212fae0dfadf
3,2.6715,space,0.8039,0,270,270,153,1,,,5e6e6df77fa76d000ba0f155,61b90966e8a91f603cbb368a,2021-12-14_21h15.33.715,PRaM,2021.2.3,Win32,59.88023952,61b8f3437b89212fae0dfadf
2,1.6271,space,0.4203,0,271,271,287,1,,,5e6e6df77fa76d000ba0f155,61b90966e8a91f603cbb368a,2021-12-14_21h15.33.715,PRaM,2021.2.3,Win32,59.88023952,61b8f3437b89212fae0dfadf
2,2.0535,space,0.4141,0,272,272,24,1,,,5e6e6df77fa76d000ba0f155,61b90966e8a91f603cbb368a,2021-12-14_21h15.33.715,PRaM,2021.2.3,Win32,59.88023952,61b8f3437b89212fae0dfadf
4,2.1036,space,0.1973,0,273,273,239,1,,,5e6e6df77fa76d000ba0f155,61b90966e8a91f603cbb368a,2021-12-14_21h15.33.715,PRaM,2021.2.3,Win32,59.88023952,61b8f3437b89212fae0dfadf
4,2.3434,space,0.6479,0,274,274,374,1,,,5e6e6df77fa76d000ba0f155,61b90966e8a91f603cbb368a,2021-12-14_21h15.33.715,PRaM,2021.2.3,Win32,59.88023952,61b8f3437b89212fae0dfadf
4,2.9959,space,1.3529,0,275,275,168,1,,,5e6e6df77fa76d000ba0f155,61b90966e8a91f603cbb368a,2021-12-14_21h15.33.715,PRaM,2021.2.3,Win32,59.88023952,61b8f3437b89212fae0dfadf
3,2.0034,space,0.1047,0,276,276,262,1,,,5e6e6df77fa76d000ba0f155,61b90966e8a91f603cbb368a,2021-12-14_21h15.33.715,PRaM,2021.2.3,Win32,59.88023952,61b8f3437b89212fae0dfadf
4,2.5511,space,0.8699,0,277,277,44,1,,,5e6e6df77fa76d000ba0f155,61b90966e8a91f603cbb368a,2021-12-14_21h15.33.715,PRaM,2021.2.3,Win32,59.88023952,61b8f3437b89212fae0dfadf
4,1.566,space,0.2714,0,278,278,328,1,,,5e6e6df77fa76d000ba0f155,61b90966e8a91f603cbb368a,2021-12-14_21h15.33.715,PRaM,2021.2.3,Win32,59.88023952,61b8f3437b89212fae0dfadf
1,3.3004,space,1.6368,0,279,279,308,1,,,5e6e6df77fa76d000ba0f155,61b90966e8a91f603cbb368a,2021-12-14_21h15.33.715,PRaM,2021.2.3,Win32,59.88023952,61b8f3437b89212fae0dfadf
1,2.1097,space,0.3309,0,280,280,121,1,,,5e6e6df77fa76d000ba0f155,61b90966e8a91f603cbb368a,2021-12-14_21h15.33.715,PRaM,2021.2.3,Win32,59.88023952,61b8f3437b89212fae0dfadf
1,2.2037,space,0.5681,0,281,281,341,1,,,5e6e6df77fa76d000ba0f155,61b90966e8a91f603cbb368a,2021-12-14_21h15.33.715,PRaM,2021.2.3,Win32,59.88023952,61b8f3437b89212fae0dfadf
2,2.9778,space,1.3529,0,282,282,241,1,,,5e6e6df77fa76d000ba0f155,61b90966e8a91f603cbb368a,2021-12-14_21h15.33.715,PRaM,2021.2.3,Win32,59.88023952,61b8f3437b89212fae0dfadf
2,1.8198,space,0.6015,0,283,283,37,1,,,5e6e6df77fa76d000ba0f155,61b90966e8a91f603cbb368a,2021-12-14_21h15.33.715,PRaM,2021.2.3,Win32,59.88023952,61b8f3437b89212fae0dfadf
2,2.1863,space,0.5427,0,284,284,268,1,,,5e6e6df77fa76d000ba0f155,61b90966e8a91f603cbb368a,2021-12-14_21h15.33.715,PRaM,2021.2.3,Win32,59.88023952,61b8f3437b89212fae0dfadf
2,2.8153,space,1.353,0,285,285,130,1,,,5e6e6df77fa76d000ba0f155,61b90966e8a91f603cbb368a,2021-12-14_21h15.33.715,PRaM,2021.2.3,Win32,59.88023952,61b8f3437b89212fae0dfadf
2,2.2099,space,0.5847,0,286,286,360,1,,,5e6e6df77fa76d000ba0f155,61b90966e8a91f603cbb368a,2021-12-14_21h15.33.715,PRaM,2021.2.3,Win32,59.88023952,61b8f3437b89212fae0dfadf
2,2.3169,space,0.4091,0,287,287,266,1,,,5e6e6df77fa76d000ba0f155,61b90966e8a91f603cbb368a,2021-12-14_21h15.33.715,PRaM,2021.2.3,Win32,59.88023952,61b8f3437b89212fae0dfadf
2,1.8635,space,0.0183,0,288,288,223,1,,,5e6e6df77fa76d000ba0f155,61b90966e8a91f603cbb368a,2021-12-14_21h15.33.715,PRaM,2021.2.3,Win32,59.88023952,61b8f3437b89212fae0dfadf
2,1.0904,space,0.1172,0,289,289,218,1,,,5e6e6df77fa76d000ba0f155,61b90966e8a91f603cbb368a,2021-12-14_21h15.33.715,PRaM,2021.2.3,Win32,59.88023952,61b8f3437b89212fae0dfadf
3,2.3687,space,0.4898,0,290,290,80,1,,,5e6e6df77fa76d000ba0f155,61b90966e8a91f603cbb368a,2021-12-14_21h15.33.715,PRaM,2021.2.3,Win32,59.88023952,61b8f3437b89212fae0dfadf
2,5.3517,space,3.8078,0,291,291,46,1,,,5e6e6df77fa76d000ba0f155,61b90966e8a91f603cbb368a,2021-12-14_21h15.33.715,PRaM,2021.2.3,Win32,59.88023952,61b8f3437b89212fae0dfadf
2,2.0439,space,0.226,0,292,292,232,1,,,5e6e6df77fa76d000ba0f155,61b90966e8a91f603cbb368a,2021-12-14_21h15.33.715,PRaM,2021.2.3,Win32,59.88023952,61b8f3437b89212fae0dfadf
3,1.7266,space,0.5595,0,293,293,139,1,,,5e6e6df77fa76d000ba0f155,61b90966e8a91f603cbb368a,2021-12-14_21h15.33.715,PRaM,2021.2.3,Win32,59.88023952,61b8f3437b89212fae0dfadf
4,1.8273,space,0.0369,0,294,294,216,1,,,5e6e6df77fa76d000ba0f155,61b90966e8a91f603cbb368a,2021-12-14_21h15.33.715,PRaM,2021.2.3,Win32,59.88023952,61b8f3437b89212fae0dfadf
4,1.6103,space,0.4511,0,295,295,372,1,,,5e6e6df77fa76d000ba0f155,61b90966e8a91f603cbb368a,2021-12-14_21h15.33.715,PRaM,2021.2.3,Win32,59.88023952,61b8f3437b89212fae0dfadf
1,1.8684,space,0.2842,0,296,296,284,1,,,5e6e6df77fa76d000ba0f155,61b90966e8a91f603cbb368a,2021-12-14_21h15.33.715,PRaM,2021.2.3,Win32,59.88023952,61b8f3437b89212fae0dfadf
4,1.8841,space,0.2028,0,297,297,310,1,,,5e6e6df77fa76d000ba0f155,61b90966e8a91f603cbb368a,2021-12-14_21h15.33.715,PRaM,2021.2.3,Win32,59.88023952,61b8f3437b89212fae0dfadf
4,2.2282,space,0.4114,0,298,298,252,1,,,5e6e6df77fa76d000ba0f155,61b90966e8a91f603cbb368a,2021-12-14_21h15.33.715,PRaM,2021.2.3,Win32,59.88023952,61b8f3437b89212fae0dfadf
3,2.7443,space,1.1526,0,299,299,26,1,,,5e6e6df77fa76d000ba0f155,61b90966e8a91f603cbb368a,2021-12-14_21h15.33.715,PRaM,2021.2.3,Win32,59.88023952,61b8f3437b89212fae0dfadf
2,2.0278,space,0.1698,0,300,300,184,1,,,5e6e6df77fa76d000ba0f155,61b90966e8a91f603cbb368a,2021-12-14_21h15.33.715,PRaM,2021.2.3,Win32,59.88023952,61b8f3437b89212fae0dfadf
2,3.4396,space,1.687,0,301,301,160,1,,,5e6e6df77fa76d000ba0f155,61b90966e8a91f603cbb368a,2021-12-14_21h15.33.715,PRaM,2021.2.3,Win32,59.88023952,61b8f3437b89212fae0dfadf
2,1.8269,space,0.6174,0,302,302,348,1,,,5e6e6df77fa76d000ba0f155,61b90966e8a91f603cbb368a,2021-12-14_21h15.33.715,PRaM,2021.2.3,Win32,59.88023952,61b8f3437b89212fae0dfadf
2,1.7515,space,0.0243,0,303,303,161,1,,,5e6e6df77fa76d000ba0f155,61b90966e8a91f603cbb368a,2021-12-14_21h15.33.715,PRaM,2021.2.3,Win32,59.88023952,61b8f3437b89212fae0dfadf
3,1.8501,space,0.3372,0,304,304,228,1,,,5e6e6df77fa76d000ba0f155,61b90966e8a91f603cbb368a,2021-12-14_21h15.33.715,PRaM,2021.2.3,Win32,59.88023952,61b8f3437b89212fae0dfadf
9,2.178,space,0.519,0,305,305,197,1,,,5e6e6df77fa76d000ba0f155,61b90966e8a91f603cbb368a,2021-12-14_21h15.33.715,PRaM,2021.2.3,Win32,59.88023952,61b8f3437b89212fae0dfadf
3,3.7012,space,1.8401,0,306,306,81,1,,,5e6e6df77fa76d000ba0f155,61b90966e8a91f603cbb368a,2021-12-14_21h15.33.715,PRaM,2021.2.3,Win32,59.88023952,61b8f3437b89212fae0dfadf
3,3.0025,space,1.689,0,307,307,171,1,,,5e6e6df77fa76d000ba0f155,61b90966e8a91f603cbb368a,2021-12-14_21h15.33.715,PRaM,2021.2.3,Win32,59.88023952,61b8f3437b89212fae0dfadf
3,3.6301,space,2.0377,0,308,308,270,1,,,5e6e6df77fa76d000ba0f155,61b90966e8a91f603cbb368a,2021-12-14_21h15.33.715,PRaM,2021.2.3,Win32,59.88023952,61b8f3437b89212fae0dfadf
4,2.0867,space,0.7851,0,309,309,304,1,,,5e6e6df77fa76d000ba0f155,61b90966e8a91f603cbb368a,2021-12-14_21h15.33.715,PRaM,2021.2.3,Win32,59.88023952,61b8f3437b89212fae0dfadf
2,1.7853,space,0.8758,0,310,310,303,1,,,5e6e6df77fa76d000ba0f155,61b90966e8a91f603cbb368a,2021-12-14_21h15.33.715,PRaM,2021.2.3,Win32,59.88023952,61b8f3437b89212fae0dfadf
2,1.4961,space,0.9187,0,311,311,186,1,,,5e6e6df77fa76d000ba0f155,61b90966e8a91f603cbb368a,2021-12-14_21h15.33.715,PRaM,2021.2.3,Win32,59.88023952,61b8f3437b89212fae0dfadf
1,1.7938,space,0.2104,0,312,312,273,1,,,5e6e6df77fa76d000ba0f155,61b90966e8a91f603cbb368a,2021-12-14_21h15.33.715,PRaM,2021.2.3,Win32,59.88023952,61b8f3437b89212fae0dfadf
1,2.816,space,2.6126,0,313,313,275,1,,,5e6e6df77fa76d000ba0f155,61b90966e8a91f603cbb368a,2021-12-14_21h15.33.715,PRaM,2021.2.3,Win32,59.88023952,61b8f3437b89212fae0dfadf
1,2.0783,space,1.2192,0,314,314,204,1,,,5e6e6df77fa76d000ba0f155,61b90966e8a91f603cbb368a,2021-12-14_21h15.33.715,PRaM,2021.2.3,Win32,59.88023952,61b8f3437b89212fae0dfadf
3,2.5766,space,0.9878,0,315,315,33,1,,,5e6e6df77fa76d000ba0f155,61b90966e8a91f603cbb368a,2021-12-14_21h15.33.715,PRaM,2021.2.3,Win32,59.88023952,61b8f3437b89212fae0dfadf
2,6.5702,space,4.7422,0,316,316,321,1,,,5e6e6df77fa76d000ba0f155,61b90966e8a91f603cbb368a,2021-12-14_21h15.33.715,PRaM,2021.2.3,Win32,59.88023952,61b8f3437b89212fae0dfadf
6,2.6209,space,0.9319,0,317,317,151,1,,,5e6e6df77fa76d000ba0f155,61b90966e8a91f603cbb368a,2021-12-14_21h15.33.715,PRaM,2021.2.3,Win32,59.88023952,61b8f3437b89212fae0dfadf
3,2.7228,space,0.9021,0,318,318,138,1,,,5e6e6df77fa76d000ba0f155,61b90966e8a91f603cbb368a,2021-12-14_21h15.33.715,PRaM,2021.2.3,Win32,59.88023952,61b8f3437b89212fae0dfadf
3,1.6358,space,0.0469,0,319,319,364,1,,,5e6e6df77fa76d000ba0f155,61b90966e8a91f603cbb368a,2021-12-14_21h15.33.715,PRaM,2021.2.3,Win32,59.88023952,61b8f3437b89212fae0dfadf
3,1.97,space,0.0467,0,320,320,253,1,,,5e6e6df77fa76d000ba0f155,61b90966e8a91f603cbb368a,2021-12-14_21h15.33.715,PRaM,2021.2.3,Win32,59.88023952,61b8f3437b89212fae0dfadf
6,2.0701,space,0.238,0,321,321,291,1,,,5e6e6df77fa76d000ba0f155,61b90966e8a91f603cbb368a,2021-12-14_21h15.33.715,PRaM,2021.2.3,Win32,59.88023952,61b8f3437b89212fae0dfadf
4,1.8443,space,0.0673,0,322,322,118,1,,,5e6e6df77fa76d000ba0f155,61b90966e8a91f603cbb368a,2021-12-14_21h15.33.715,PRaM,2021.2.3,Win32,59.88023952,61b8f3437b89212fae0dfadf
3,2.764,space,1.2257,0,323,323,11,1,,,5e6e6df77fa76d000ba0f155,61b90966e8a91f603cbb368a,2021-12-14_21h15.33.715,PRaM,2021.2.3,Win32,59.88023952,61b8f3437b89212fae0dfadf
1,2.5231,space,0.7349,0,324,324,195,1,,,5e6e6df77fa76d000ba0f155,61b90966e8a91f603cbb368a,2021-12-14_21h15.33.715,PRaM,2021.2.3,Win32,59.88023952,61b8f3437b89212fae0dfadf
4,4.4885,space,2.5783,0,325,325,296,1,,,5e6e6df77fa76d000ba0f155,61b90966e8a91f603cbb368a,2021-12-14_21h15.33.715,PRaM,2021.2.3,Win32,59.88023952,61b8f3437b89212fae0dfadf
3,3.401,space,1.6202,0,326,326,180,1,,,5e6e6df77fa76d000ba0f155,61b90966e8a91f603cbb368a,2021-12-14_21h15.33.715,PRaM,2021.2.3,Win32,59.88023952,61b8f3437b89212fae0dfadf
4,2.5599,space,1.4365,0,327,327,272,1,,,5e6e6df77fa76d000ba0f155,61b90966e8a91f603cbb368a,2021-12-14_21h15.33.715,PRaM,2021.2.3,Win32,59.88023952,61b8f3437b89212fae0dfadf
1,2.8292,space,1.0381,0,328,328,106,1,,,5e6e6df77fa76d000ba0f155,61b90966e8a91f603cbb368a,2021-12-14_21h15.33.715,PRaM,2021.2.3,Win32,59.88023952,61b8f3437b89212fae0dfadf
5,2.9672,space,1.3418,0,329,329,42,1,,,5e6e6df77fa76d000ba0f155,61b90966e8a91f603cbb368a,2021-12-14_21h15.33.715,PRaM,2021.2.3,Win32,59.88023952,61b8f3437b89212fae0dfadf
2,2.6287,space,0.8688,0,330,330,82,1,,,5e6e6df77fa76d000ba0f155,61b90966e8a91f603cbb368a,2021-12-14_21h15.33.715,PRaM,2021.2.3,Win32,59.88023952,61b8f3437b89212fae0dfadf
2,1.8275,space,0.5847,0,331,331,145,1,,,5e6e6df77fa76d000ba0f155,61b90966e8a91f603cbb368a,2021-12-14_21h15.33.715,PRaM,2021.2.3,Win32,59.88023952,61b8f3437b89212fae0dfadf
1,1.7806,space,0.2727,0,332,332,87,1,,,5e6e6df77fa76d000ba0f155,61b90966e8a91f603cbb368a,2021-12-14_21h15.33.715,PRaM,2021.2.3,Win32,59.88023952,61b8f3437b89212fae0dfadf
2,2.9774,space,1.2774,0,333,333,47,1,,,5e6e6df77fa76d000ba0f155,61b90966e8a91f603cbb368a,2021-12-14_21h15.33.715,PRaM,2021.2.3,Win32,59.88023952,61b8f3437b89212fae0dfadf
6,2.3632,space,0.725,0,334,334,61,1,,,5e6e6df77fa76d000ba0f155,61b90966e8a91f603cbb368a,2021-12-14_21h15.33.715,PRaM,2021.2.3,Win32,59.88023952,61b8f3437b89212fae0dfadf
5,3.5643,space,1.9049,0,335,335,278,1,,,5e6e6df77fa76d000ba0f155,61b90966e8a91f603cbb368a,2021-12-14_21h15.33.715,PRaM,2021.2.3,Win32,59.88023952,61b8f3437b89212fae0dfadf
6,2.4949,space,0.5716,0,336,336,85,1,,,5e6e6df77fa76d000ba0f155,61b90966e8a91f603cbb368a,2021-12-14_21h15.33.715,PRaM,2021.2.3,Win32,59.88023952,61b8f3437b89212fae0dfadf
3,2.1949,space,0.4246,0,337,337,224,1,,,5e6e6df77fa76d000ba0f155,61b90966e8a91f603cbb368a,2021-12-14_21h15.33.715,PRaM,2021.2.3,Win32,59.88023952,61b8f3437b89212fae0dfadf
3,3.4636,space,1.698,0,338,338,76,1,,,5e6e6df77fa76d000ba0f155,61b90966e8a91f603cbb368a,2021-12-14_21h15.33.715,PRaM,2021.2.3,Win32,59.88023952,61b8f3437b89212fae0dfadf
5,1.9218,space,0.097,0,339,339,276,1,,,5e6e6df77fa76d000ba0f155,61b90966e8a91f603cbb368a,2021-12-14_21h15.33.715,PRaM,2021.2.3,Win32,59.88023952,61b8f3437b89212fae0dfadf
5,3.2628,space,1.4697,0,340,340,154,1,,,5e6e6df77fa76d000ba0f155,61b90966e8a91f603cbb368a,2021-12-14_21h15.33.715,PRaM,2021.2.3,Win32,59.88023952,61b8f3437b89212fae0dfadf
4,3.2392,space,1.6536,0,341,341,201,1,,,5e6e6df77fa76d000ba0f155,61b90966e8a91f603cbb368a,2021-12-14_21h15.33.715,PRaM,2021.2.3,Win32,59.88023952,61b8f3437b89212fae0dfadf
4,1.686,space,0.7147,0,342,342,209,1,,,5e6e6df77fa76d000ba0f155,61b90966e8a91f603cbb368a,2021-12-14_21h15.33.715,PRaM,2021.2.3,Win32,59.88023952,61b8f3437b89212fae0dfadf
3,2.6548,space,1.0595,0,343,343,115,1,,,5e6e6df77fa76d000ba0f155,61b90966e8a91f603cbb368a,2021-12-14_21h15.33.715,PRaM,2021.2.3,Win32,59.88023952,61b8f3437b89212fae0dfadf
3,1.8615,space,0.0208,0,344,344,236,1,,,5e6e6df77fa76d000ba0f155,61b90966e8a91f603cbb368a,2021-12-14_21h15.33.715,PRaM,2021.2.3,Win32,59.88023952,61b8f3437b89212fae0dfadf
2,2.4939,space,0.7688,0,345,345,369,1,,,5e6e6df77fa76d000ba0f155,61b90966e8a91f603cbb368a,2021-12-14_21h15.33.715,PRaM,2021.2.3,Win32,59.88023952,61b8f3437b89212fae0dfadf
3,2.2536,space,0.3841,0,346,346,377,1,,,5e6e6df77fa76d000ba0f155,61b90966e8a91f603cbb368a,2021-12-14_21h15.33.715,PRaM,2021.2.3,Win32,59.88023952,61b8f3437b89212fae0dfadf
2,3.0372,space,1.4699,0,347,347,338,1,,,5e6e6df77fa76d000ba0f155,61b90966e8a91f603cbb368a,2021-12-14_21h15.33.715,PRaM,2021.2.3,Win32,59.88023952,61b8f3437b89212fae0dfadf
4,2.6275,space,2.5016,0,348,348,51,1,,,5e6e6df77fa76d000ba0f155,61b90966e8a91f603cbb368a,2021-12-14_21h15.33.715,PRaM,2021.2.3,Win32,59.88023952,61b8f3437b89212fae0dfadf
6,3.1427,space,2.0934,0,349,349,301,1,,,5e6e6df77fa76d000ba0f155,61b90966e8a91f603cbb368a,2021-12-14_21h15.33.715,PRaM,2021.2.3,Win32,59.88023952,61b8f3437b89212fae0dfadf
2,1.8773,space,0.008,0,350,350,350,1,,,5e6e6df77fa76d000ba0f155,61b90966e8a91f603cbb368a,2021-12-14_21h15.33.715,PRaM,2021.2.3,Win32,59.88023952,61b8f3437b89212fae0dfadf
3,5.1231,space,3.5575,0,351,351,146,1,,,5e6e6df77fa76d000ba0f155,61b90966e8a91f603cbb368a,2021-12-14_21h15.33.715,PRaM,2021.2.3,Win32,59.88023952,61b8f3437b89212fae0dfadf
2,1.6358,space,0.3806,0,352,352,170,1,,,5e6e6df77fa76d000ba0f155,61b90966e8a91f603cbb368a,2021-12-14_21h15.33.715,PRaM,2021.2.3,Win32,59.88023952,61b8f3437b89212fae0dfadf
3,2.1703,space,0.2893,0,353,353,112,1,,,5e6e6df77fa76d000ba0f155,61b90966e8a91f603cbb368a,2021-12-14_21h15.33.715,PRaM,2021.2.3,Win32,59.88023952,61b8f3437b89212fae0dfadf
5,2.7787,space,0.9857,0,354,354,64,1,,,5e6e6df77fa76d000ba0f155,61b90966e8a91f603cbb368a,2021-12-14_21h15.33.715,PRaM,2021.2.3,Win32,59.88023952,61b8f3437b89212fae0dfadf
3,1.9031,space,0.0508,0,355,355,152,1,,,5e6e6df77fa76d000ba0f155,61b90966e8a91f603cbb368a,2021-12-14_21h15.33.715,PRaM,2021.2.3,Win32,59.88023952,61b8f3437b89212fae0dfadf
1,3.0546,space,1.0689,0,356,356,248,1,,,5e6e6df77fa76d000ba0f155,61b90966e8a91f603cbb368a,2021-12-14_21h15.33.715,PRaM,2021.2.3,Win32,59.88023952,61b8f3437b89212fae0dfadf
5,4.2577,space,2.5396,0,357,357,16,1,,,5e6e6df77fa76d000ba0f155,61b90966e8a91f603cbb368a,2021-12-14_21h15.33.715,PRaM,2021.2.3,Win32,59.88023952,61b8f3437b89212fae0dfadf
6,1.8579,space,0.6016,0,358,358,7,1,,,5e6e6df77fa76d000ba0f155,61b90966e8a91f603cbb368a,2021-12-14_21h15.33.715,PRaM,2021.2.3,Win32,59.88023952,61b8f3437b89212fae0dfadf
2,2.2203,space,0.5514,0,359,359,71,1,,,5e6e6df77fa76d000ba0f155,61b90966e8a91f603cbb368a,2021-12-14_21h15.33.715,PRaM,2021.2.3,Win32,59.88023952,61b8f3437b89212fae0dfadf
3,2.0363,space,0.45,0,360,360,120,1,,,5e6e6df77fa76d000ba0f155,61b90966e8a91f603cbb368a,2021-12-14_21h15.33.715,PRaM,2021.2.3,Win32,59.88023952,61b8f3437b89212fae0dfadf
5,2.8381,space,1.0165,0,361,361,74,1,,,5e6e6df77fa76d000ba0f155,61b90966e8a91f603cbb368a,2021-12-14_21h15.33.715,PRaM,2021.2.3,Win32,59.88023952,61b8f3437b89212fae0dfadf
7,1.944,space,0.3341,0,362,362,17,1,,,5e6e6df77fa76d000ba0f155,61b90966e8a91f603cbb368a,2021-12-14_21h15.33.715,PRaM,2021.2.3,Win32,59.88023952,61b8f3437b89212fae0dfadf
4,2.2767,space,0.6015,0,363,363,357,1,,,5e6e6df77fa76d000ba0f155,61b90966e8a91f603cbb368a,2021-12-14_21h15.33.715,PRaM,2021.2.3,Win32,59.88023952,61b8f3437b89212fae0dfadf
2,2.0367,space,0.247,0,364,364,35,1,,,5e6e6df77fa76d000ba0f155,61b90966e8a91f603cbb368a,2021-12-14_21h15.33.715,PRaM,2021.2.3,Win32,59.88023952,61b8f3437b89212fae0dfadf
2,1.9034,space,0.4846,0,365,365,125,1,,,5e6e6df77fa76d000ba0f155,61b90966e8a91f603cbb368a,2021-12-14_21h15.33.715,PRaM,2021.2.3,Win32,59.88023952,61b8f3437b89212fae0dfadf
1,3.6563,space,1.8707,0,366,366,290,1,,,5e6e6df77fa76d000ba0f155,61b90966e8a91f603cbb368a,2021-12-14_21h15.33.715,PRaM,2021.2.3,Win32,59.88023952,61b8f3437b89212fae0dfadf
1,4.3218,space,2.6725,0,367,367,330,1,,,5e6e6df77fa76d000ba0f155,61b90966e8a91f603cbb368a,2021-12-14_21h15.33.715,PRaM,2021.2.3,Win32,59.88023952,61b8f3437b89212fae0dfadf
3,4.2547,space,2.5388,0,368,368,298,1,,,5e6e6df77fa76d000ba0f155,61b90966e8a91f603cbb368a,2021-12-14_21h15.33.715,PRaM,2021.2.3,Win32,59.88023952,61b8f3437b89212fae0dfadf
3,1.6859,space,0.0969,0,369,369,102,1,,,5e6e6df77fa76d000ba0f155,61b90966e8a91f603cbb368a,2021-12-14_21h15.33.715,PRaM,2021.2.3,Win32,59.88023952,61b8f3437b89212fae0dfadf
4,1.9843,space,0.1864,0,370,370,317,1,,,5e6e6df77fa76d000ba0f155,61b90966e8a91f603cbb368a,2021-12-14_21h15.33.715,PRaM,2021.2.3,Win32,59.88023952,61b8f3437b89212fae0dfadf
3,2.0599,space,0.2676,0,371,371,172,1,,,5e6e6df77fa76d000ba0f155,61b90966e8a91f603cbb368a,2021-12-14_21h15.33.715,PRaM,2021.2.3,Win32,59.88023952,61b8f3437b89212fae0dfadf
1,2.2503,space,0.4179,0,372,372,157,1,,,5e6e6df77fa76d000ba0f155,61b90966e8a91f603cbb368a,2021-12-14_21h15.33.715,PRaM,2021.2.3,Win32,59.88023952,61b8f3437b89212fae0dfadf
1,2.3377,space,0.5811,0,373,373,27,1,,,5e6e6df77fa76d000ba0f155,61b90966e8a91f603cbb368a,2021-12-14_21h15.33.715,PRaM,2021.2.3,Win32,59.88023952,61b8f3437b89212fae0dfadf
3,2.9277,space,1.082,0,374,374,183,1,,,5e6e6df77fa76d000ba0f155,61b90966e8a91f603cbb368a,2021-12-14_21h15.33.715,PRaM,2021.2.3,Win32,59.88023952,61b8f3437b89212fae0dfadf
2,2.7382,space,1.1024,0,375,375,322,1,,,5e6e6df77fa76d000ba0f155,61b90966e8a91f603cbb368a,2021-12-14_21h15.33.715,PRaM,2021.2.3,Win32,59.88023952,61b8f3437b89212fae0dfadf
1,2.1372,space,1.5397,0,376,376,206,1,,,5e6e6df77fa76d000ba0f155,61b90966e8a91f603cbb368a,2021-12-14_21h15.33.715,PRaM,2021.2.3,Win32,59.88023952,61b8f3437b89212fae0dfadf
2,2.486,space,0.7351,0,377,377,124,1,,,5e6e6df77fa76d000ba0f155,61b90966e8a91f603cbb368a,2021-12-14_21h15.33.715,PRaM,2021.2.3,Win32,59.88023952,61b8f3437b89212fae0dfadf
