Rating.response,Rating.rt,EndTrial.keys,EndTrial.rt,trials.thisRepN,trials.thisTrialN,trials.thisN,trials.thisIndex,trials.ran,Pos1,Pos2,participant,session,date,expName,psychopyVersion,OS,frameRate,study_id
2,18.5414,space,20.4764,0,0,0,278,1,,,5e9fd839311b8018f88c99eb,643773017e62dbf187605310,2023-04-13_05h15.10.080,PRaM,2021.2.3,Win32,58.93099181,61b8f3437b89212fae0dfadf
7,4.8873,space,3.4353,0,1,1,120,1,,,5e9fd839311b8018f88c99eb,643773017e62dbf187605310,2023-04-13_05h15.10.080,PRaM,2021.2.3,Win32,58.93099181,61b8f3437b89212fae0dfadf
6,2.6839,space,1.5702,0,2,2,351,1,,,5e9fd839311b8018f88c99eb,643773017e62dbf187605310,2023-04-13_05h15.10.080,PRaM,2021.2.3,Win32,58.93099181,61b8f3437b89212fae0dfadf
7,3.7192,space,2.1515,0,3,3,220,1,,,5e9fd839311b8018f88c99eb,643773017e62dbf187605310,2023-04-13_05h15.10.080,PRaM,2021.2.3,Win32,58.93099181,61b8f3437b89212fae0dfadf
5,4.0416,space,2.9285,0,4,4,265,1,,,5e9fd839311b8018f88c99eb,643773017e62dbf187605310,2023-04-13_05h15.10.080,PRaM,2021.2.3,Win32,58.93099181,61b8f3437b89212fae0dfadf
6,3.0418,space,1.5363,0,5,5,0,1,,,5e9fd839311b8018f88c99eb,643773017e62dbf187605310,2023-04-13_05h15.10.080,PRaM,2021.2.3,Win32,58.93099181,61b8f3437b89212fae0dfadf
,,space,0.2867,0,6,6,156,1,,,5e9fd839311b8018f88c99eb,643773017e62dbf187605310,2023-04-13_05h15.10.080,PRaM,2021.2.3,Win32,58.93099181,61b8f3437b89212fae0dfadf
6,2.9978,space,1.803,0,7,7,286,1,,,5e9fd839311b8018f88c99eb,643773017e62dbf187605310,2023-04-13_05h15.10.080,PRaM,2021.2.3,Win32,58.93099181,61b8f3437b89212fae0dfadf
3,6.6434,space,5.1851,0,8,8,54,1,,,5e9fd839311b8018f88c99eb,643773017e62dbf187605310,2023-04-13_05h15.10.080,PRaM,2021.2.3,Win32,58.93099181,61b8f3437b89212fae0dfadf
3,4.1392,space,2.5833,0,9,9,95,1,,,5e9fd839311b8018f88c99eb,643773017e62dbf187605310,2023-04-13_05h15.10.080,PRaM,2021.2.3,Win32,58.93099181,61b8f3437b89212fae0dfadf
2,4.7195,space,3.0936,0,10,10,231,1,,,5e9fd839311b8018f88c99eb,643773017e62dbf187605310,2023-04-13_05h15.10.080,PRaM,2021.2.3,Win32,58.93099181,61b8f3437b89212fae0dfadf
7,4.1815,space,2.5801,0,11,11,166,1,,,5e9fd839311b8018f88c99eb,643773017e62dbf187605310,2023-04-13_05h15.10.080,PRaM,2021.2.3,Win32,58.93099181,61b8f3437b89212fae0dfadf
5,4.4491,space,2.8205,0,12,12,77,1,,,5e9fd839311b8018f88c99eb,643773017e62dbf187605310,2023-04-13_05h15.10.080,PRaM,2021.2.3,Win32,58.93099181,61b8f3437b89212fae0dfadf
2,4.2763,space,2.6264,0,13,13,260,1,,,5e9fd839311b8018f88c99eb,643773017e62dbf187605310,2023-04-13_05h15.10.080,PRaM,2021.2.3,Win32,58.93099181,61b8f3437b89212fae0dfadf
2,3.1844,space,1.8751,0,14,14,75,1,,,5e9fd839311b8018f88c99eb,643773017e62dbf187605310,2023-04-13_05h15.10.080,PRaM,2021.2.3,Win32,58.93099181,61b8f3437b89212fae0dfadf
5,3.1753,space,1.619,0,15,15,151,1,,,5e9fd839311b8018f88c99eb,643773017e62dbf187605310,2023-04-13_05h15.10.080,PRaM,2021.2.3,Win32,58.93099181,61b8f3437b89212fae0dfadf
5,3.4564,space,2.3874,0,16,16,61,1,,,5e9fd839311b8018f88c99eb,643773017e62dbf187605310,2023-04-13_05h15.10.080,PRaM,2021.2.3,Win32,58.93099181,61b8f3437b89212fae0dfadf
5,3.8714,space,2.9045,0,17,17,33,1,,,5e9fd839311b8018f88c99eb,643773017e62dbf187605310,2023-04-13_05h15.10.080,PRaM,2021.2.3,Win32,58.93099181,61b8f3437b89212fae0dfadf
4,6.1932,space,4.8696,0,18,18,235,1,,,5e9fd839311b8018f88c99eb,643773017e62dbf187605310,2023-04-13_05h15.10.080,PRaM,2021.2.3,Win32,58.93099181,61b8f3437b89212fae0dfadf
4,3.4269,space,1.9228,0,19,19,144,1,,,5e9fd839311b8018f88c99eb,643773017e62dbf187605310,2023-04-13_05h15.10.080,PRaM,2021.2.3,Win32,58.93099181,61b8f3437b89212fae0dfadf
4,1.8834,space,0.3518,0,20,20,34,1,,,5e9fd839311b8018f88c99eb,643773017e62dbf187605310,2023-04-13_05h15.10.080,PRaM,2021.2.3,Win32,58.93099181,61b8f3437b89212fae0dfadf
5,2.183,space,0.5867,0,21,21,328,1,,,5e9fd839311b8018f88c99eb,643773017e62dbf187605310,2023-04-13_05h15.10.080,PRaM,2021.2.3,Win32,58.93099181,61b8f3437b89212fae0dfadf
7,4.8865,space,4.641,0,22,22,183,1,,,5e9fd839311b8018f88c99eb,643773017e62dbf187605310,2023-04-13_05h15.10.080,PRaM,2021.2.3,Win32,58.93099181,61b8f3437b89212fae0dfadf
7,2.7501,space,1.4103,0,23,23,155,1,,,5e9fd839311b8018f88c99eb,643773017e62dbf187605310,2023-04-13_05h15.10.080,PRaM,2021.2.3,Win32,58.93099181,61b8f3437b89212fae0dfadf
8,4.284,space,2.7357,0,24,24,132,1,,,5e9fd839311b8018f88c99eb,643773017e62dbf187605310,2023-04-13_05h15.10.080,PRaM,2021.2.3,Win32,58.93099181,61b8f3437b89212fae0dfadf
4,3.6331,space,2.016,0,25,25,76,1,,,5e9fd839311b8018f88c99eb,643773017e62dbf187605310,2023-04-13_05h15.10.080,PRaM,2021.2.3,Win32,58.93099181,61b8f3437b89212fae0dfadf
4,6.2591,space,4.6165,0,26,26,41,1,,,5e9fd839311b8018f88c99eb,643773017e62dbf187605310,2023-04-13_05h15.10.080,PRaM,2021.2.3,Win32,58.93099181,61b8f3437b89212fae0dfadf
8,5.1764,space,3.5558,0,27,27,59,1,,,5e9fd839311b8018f88c99eb,643773017e62dbf187605310,2023-04-13_05h15.10.080,PRaM,2021.2.3,Win32,58.93099181,61b8f3437b89212fae0dfadf
3,3.3816,space,1.7194,0,28,28,97,1,,,5e9fd839311b8018f88c99eb,643773017e62dbf187605310,2023-04-13_05h15.10.080,PRaM,2021.2.3,Win32,58.93099181,61b8f3437b89212fae0dfadf
7,4.0733,space,2.4133,0,29,29,115,1,,,5e9fd839311b8018f88c99eb,643773017e62dbf187605310,2023-04-13_05h15.10.080,PRaM,2021.2.3,Win32,58.93099181,61b8f3437b89212fae0dfadf
7,3.5005,space,2.1294,0,30,30,19,1,,,5e9fd839311b8018f88c99eb,643773017e62dbf187605310,2023-04-13_05h15.10.080,PRaM,2021.2.3,Win32,58.93099181,61b8f3437b89212fae0dfadf
5,3.4175,space,1.7931,0,31,31,226,1,,,5e9fd839311b8018f88c99eb,643773017e62dbf187605310,2023-04-13_05h15.10.080,PRaM,2021.2.3,Win32,58.93099181,61b8f3437b89212fae0dfadf
6,2.8557,space,1.2639,0,32,32,3,1,,,5e9fd839311b8018f88c99eb,643773017e62dbf187605310,2023-04-13_05h15.10.080,PRaM,2021.2.3,Win32,58.93099181,61b8f3437b89212fae0dfadf
7,2.6839,space,1.1956,0,33,33,8,1,,,5e9fd839311b8018f88c99eb,643773017e62dbf187605310,2023-04-13_05h15.10.080,PRaM,2021.2.3,Win32,58.93099181,61b8f3437b89212fae0dfadf
4,2.7743,space,1.1872,0,34,34,224,1,,,5e9fd839311b8018f88c99eb,643773017e62dbf187605310,2023-04-13_05h15.10.080,PRaM,2021.2.3,Win32,58.93099181,61b8f3437b89212fae0dfadf
6,2.8391,space,1.1848,0,35,35,118,1,,,5e9fd839311b8018f88c99eb,643773017e62dbf187605310,2023-04-13_05h15.10.080,PRaM,2021.2.3,Win32,58.93099181,61b8f3437b89212fae0dfadf
4,5.3296,space,3.7144,0,36,36,212,1,,,5e9fd839311b8018f88c99eb,643773017e62dbf187605310,2023-04-13_05h15.10.080,PRaM,2021.2.3,Win32,58.93099181,61b8f3437b89212fae0dfadf
5,3.1017,space,1.5884,0,37,37,218,1,,,5e9fd839311b8018f88c99eb,643773017e62dbf187605310,2023-04-13_05h15.10.080,PRaM,2021.2.3,Win32,58.93099181,61b8f3437b89212fae0dfadf
3,2.7755,space,1.1683,0,38,38,91,1,,,5e9fd839311b8018f88c99eb,643773017e62dbf187605310,2023-04-13_05h15.10.080,PRaM,2021.2.3,Win32,58.93099181,61b8f3437b89212fae0dfadf
8,4.1295,space,2.5172,0,39,39,326,1,,,5e9fd839311b8018f88c99eb,643773017e62dbf187605310,2023-04-13_05h15.10.080,PRaM,2021.2.3,Win32,58.93099181,61b8f3437b89212fae0dfadf
3,2.5091,space,0.8869,0,40,40,287,1,,,5e9fd839311b8018f88c99eb,643773017e62dbf187605310,2023-04-13_05h15.10.080,PRaM,2021.2.3,Win32,58.93099181,61b8f3437b89212fae0dfadf
2,3.2002,space,1.5509,0,41,41,292,1,,,5e9fd839311b8018f88c99eb,643773017e62dbf187605310,2023-04-13_05h15.10.080,PRaM,2021.2.3,Win32,58.93099181,61b8f3437b89212fae0dfadf
4,5.7769,space,4.1147,0,42,42,42,1,,,5e9fd839311b8018f88c99eb,643773017e62dbf187605310,2023-04-13_05h15.10.080,PRaM,2021.2.3,Win32,58.93099181,61b8f3437b89212fae0dfadf
3,2.8682,space,1.2191,0,43,43,360,1,,,5e9fd839311b8018f88c99eb,643773017e62dbf187605310,2023-04-13_05h15.10.080,PRaM,2021.2.3,Win32,58.93099181,61b8f3437b89212fae0dfadf
3,2.9134,space,1.6331,0,44,44,28,1,,,5e9fd839311b8018f88c99eb,643773017e62dbf187605310,2023-04-13_05h15.10.080,PRaM,2021.2.3,Win32,58.93099181,61b8f3437b89212fae0dfadf
4,2.5765,space,1.3077,0,45,45,14,1,,,5e9fd839311b8018f88c99eb,643773017e62dbf187605310,2023-04-13_05h15.10.080,PRaM,2021.2.3,Win32,58.93099181,61b8f3437b89212fae0dfadf
4,1.8575,space,0.3217,0,46,46,38,1,,,5e9fd839311b8018f88c99eb,643773017e62dbf187605310,2023-04-13_05h15.10.080,PRaM,2021.2.3,Win32,58.93099181,61b8f3437b89212fae0dfadf
3,3.4004,space,1.9386,0,47,47,275,1,,,5e9fd839311b8018f88c99eb,643773017e62dbf187605310,2023-04-13_05h15.10.080,PRaM,2021.2.3,Win32,58.93099181,61b8f3437b89212fae0dfadf
3,5.0859,space,3.4214,0,48,48,160,1,,,5e9fd839311b8018f88c99eb,643773017e62dbf187605310,2023-04-13_05h15.10.080,PRaM,2021.2.3,Win32,58.93099181,61b8f3437b89212fae0dfadf
8,5.5829,space,4.0646,0,49,49,168,1,,,5e9fd839311b8018f88c99eb,643773017e62dbf187605310,2023-04-13_05h15.10.080,PRaM,2021.2.3,Win32,58.93099181,61b8f3437b89212fae0dfadf
3,3.2097,space,1.5244,0,50,50,133,1,,,5e9fd839311b8018f88c99eb,643773017e62dbf187605310,2023-04-13_05h15.10.080,PRaM,2021.2.3,Win32,58.93099181,61b8f3437b89212fae0dfadf
2,4.5511,space,3.2868,0,51,51,121,1,,,5e9fd839311b8018f88c99eb,643773017e62dbf187605310,2023-04-13_05h15.10.080,PRaM,2021.2.3,Win32,58.93099181,61b8f3437b89212fae0dfadf
3,2.7703,space,1.1182,0,52,52,365,1,,,5e9fd839311b8018f88c99eb,643773017e62dbf187605310,2023-04-13_05h15.10.080,PRaM,2021.2.3,Win32,58.93099181,61b8f3437b89212fae0dfadf
4,2.56,space,0.9695,0,53,53,102,1,,,5e9fd839311b8018f88c99eb,643773017e62dbf187605310,2023-04-13_05h15.10.080,PRaM,2021.2.3,Win32,58.93099181,61b8f3437b89212fae0dfadf
3,2.0439,space,0.4371,0,54,54,204,1,,,5e9fd839311b8018f88c99eb,643773017e62dbf187605310,2023-04-13_05h15.10.080,PRaM,2021.2.3,Win32,58.93099181,61b8f3437b89212fae0dfadf
4,2.6093,space,0.9522,0,55,55,178,1,,,5e9fd839311b8018f88c99eb,643773017e62dbf187605310,2023-04-13_05h15.10.080,PRaM,2021.2.3,Win32,58.93099181,61b8f3437b89212fae0dfadf
3,2.5424,space,0.9021,0,56,56,247,1,,,5e9fd839311b8018f88c99eb,643773017e62dbf187605310,2023-04-13_05h15.10.080,PRaM,2021.2.3,Win32,58.93099181,61b8f3437b89212fae0dfadf
2,1.9574,space,0.5877,0,57,57,25,1,,,5e9fd839311b8018f88c99eb,643773017e62dbf187605310,2023-04-13_05h15.10.080,PRaM,2021.2.3,Win32,58.93099181,61b8f3437b89212fae0dfadf
5,3.3051,space,1.6741,0,58,58,301,1,,,5e9fd839311b8018f88c99eb,643773017e62dbf187605310,2023-04-13_05h15.10.080,PRaM,2021.2.3,Win32,58.93099181,61b8f3437b89212fae0dfadf
3,3.7327,space,2.098,0,59,59,148,1,,,5e9fd839311b8018f88c99eb,643773017e62dbf187605310,2023-04-13_05h15.10.080,PRaM,2021.2.3,Win32,58.93099181,61b8f3437b89212fae0dfadf
4,2.1844,space,0.5693,0,60,60,325,1,,,5e9fd839311b8018f88c99eb,643773017e62dbf187605310,2023-04-13_05h15.10.080,PRaM,2021.2.3,Win32,58.93099181,61b8f3437b89212fae0dfadf
6,4.4326,space,2.8337,0,61,61,228,1,,,5e9fd839311b8018f88c99eb,643773017e62dbf187605310,2023-04-13_05h15.10.080,PRaM,2021.2.3,Win32,58.93099181,61b8f3437b89212fae0dfadf
5,4.1819,space,2.5545,0,62,62,164,1,,,5e9fd839311b8018f88c99eb,643773017e62dbf187605310,2023-04-13_05h15.10.080,PRaM,2021.2.3,Win32,58.93099181,61b8f3437b89212fae0dfadf
2,3.2932,space,1.7006,0,63,63,57,1,,,5e9fd839311b8018f88c99eb,643773017e62dbf187605310,2023-04-13_05h15.10.080,PRaM,2021.2.3,Win32,58.93099181,61b8f3437b89212fae0dfadf
8,4.1211,space,2.5187,0,64,64,363,1,,,5e9fd839311b8018f88c99eb,643773017e62dbf187605310,2023-04-13_05h15.10.080,PRaM,2021.2.3,Win32,58.93099181,61b8f3437b89212fae0dfadf
5,4.4011,space,2.7854,0,65,65,80,1,,,5e9fd839311b8018f88c99eb,643773017e62dbf187605310,2023-04-13_05h15.10.080,PRaM,2021.2.3,Win32,58.93099181,61b8f3437b89212fae0dfadf
4,3.5906,space,1.9197,0,66,66,343,1,,,5e9fd839311b8018f88c99eb,643773017e62dbf187605310,2023-04-13_05h15.10.080,PRaM,2021.2.3,Win32,58.93099181,61b8f3437b89212fae0dfadf
3,5.0997,space,3.4842,0,67,67,234,1,,,5e9fd839311b8018f88c99eb,643773017e62dbf187605310,2023-04-13_05h15.10.080,PRaM,2021.2.3,Win32,58.93099181,61b8f3437b89212fae0dfadf
6,3.4988,space,1.8942,0,68,68,181,1,,,5e9fd839311b8018f88c99eb,643773017e62dbf187605310,2023-04-13_05h15.10.080,PRaM,2021.2.3,Win32,58.93099181,61b8f3437b89212fae0dfadf
5,2.3739,space,0.8035,0,69,69,55,1,,,5e9fd839311b8018f88c99eb,643773017e62dbf187605310,2023-04-13_05h15.10.080,PRaM,2021.2.3,Win32,58.93099181,61b8f3437b89212fae0dfadf
6,2.6268,space,0.9702,0,70,70,329,1,,,5e9fd839311b8018f88c99eb,643773017e62dbf187605310,2023-04-13_05h15.10.080,PRaM,2021.2.3,Win32,58.93099181,61b8f3437b89212fae0dfadf
4,1.8238,space,0.2305,0,71,71,20,1,,,5e9fd839311b8018f88c99eb,643773017e62dbf187605310,2023-04-13_05h15.10.080,PRaM,2021.2.3,Win32,58.93099181,61b8f3437b89212fae0dfadf
5,2.6524,space,1.0049,0,72,72,141,1,,,5e9fd839311b8018f88c99eb,643773017e62dbf187605310,2023-04-13_05h15.10.080,PRaM,2021.2.3,Win32,58.93099181,61b8f3437b89212fae0dfadf
6,1.84,space,0.2406,0,73,73,299,1,,,5e9fd839311b8018f88c99eb,643773017e62dbf187605310,2023-04-13_05h15.10.080,PRaM,2021.2.3,Win32,58.93099181,61b8f3437b89212fae0dfadf
4,2.3103,space,0.836,0,74,74,1,1,,,5e9fd839311b8018f88c99eb,643773017e62dbf187605310,2023-04-13_05h15.10.080,PRaM,2021.2.3,Win32,58.93099181,61b8f3437b89212fae0dfadf
5,2.0098,space,0.4176,0,75,75,117,1,,,5e9fd839311b8018f88c99eb,643773017e62dbf187605310,2023-04-13_05h15.10.080,PRaM,2021.2.3,Win32,58.93099181,61b8f3437b89212fae0dfadf
6,1.8771,space,0.2278,0,76,76,138,1,,,5e9fd839311b8018f88c99eb,643773017e62dbf187605310,2023-04-13_05h15.10.080,PRaM,2021.2.3,Win32,58.93099181,61b8f3437b89212fae0dfadf
5,1.7887,space,0.1353,0,77,77,37,1,,,5e9fd839311b8018f88c99eb,643773017e62dbf187605310,2023-04-13_05h15.10.080,PRaM,2021.2.3,Win32,58.93099181,61b8f3437b89212fae0dfadf
6,1.9156,space,0.2531,0,78,78,143,1,,,5e9fd839311b8018f88c99eb,643773017e62dbf187605310,2023-04-13_05h15.10.080,PRaM,2021.2.3,Win32,58.93099181,61b8f3437b89212fae0dfadf
5,2.1925,space,0.5362,0,79,79,341,1,,,5e9fd839311b8018f88c99eb,643773017e62dbf187605310,2023-04-13_05h15.10.080,PRaM,2021.2.3,Win32,58.93099181,61b8f3437b89212fae0dfadf
6,1.5617,space,1.9192,0,80,80,377,1,,,5e9fd839311b8018f88c99eb,643773017e62dbf187605310,2023-04-13_05h15.10.080,PRaM,2021.2.3,Win32,58.93099181,61b8f3437b89212fae0dfadf
6,4.1946,space,2.6529,0,81,81,323,1,,,5e9fd839311b8018f88c99eb,643773017e62dbf187605310,2023-04-13_05h15.10.080,PRaM,2021.2.3,Win32,58.93099181,61b8f3437b89212fae0dfadf
7,3.1683,space,1.5657,0,82,82,31,1,,,5e9fd839311b8018f88c99eb,643773017e62dbf187605310,2023-04-13_05h15.10.080,PRaM,2021.2.3,Win32,58.93099181,61b8f3437b89212fae0dfadf
4,2.9522,space,1.7174,0,83,83,128,1,,,5e9fd839311b8018f88c99eb,643773017e62dbf187605310,2023-04-13_05h15.10.080,PRaM,2021.2.3,Win32,58.93099181,61b8f3437b89212fae0dfadf
8,4.427,space,2.7748,0,84,84,194,1,,,5e9fd839311b8018f88c99eb,643773017e62dbf187605310,2023-04-13_05h15.10.080,PRaM,2021.2.3,Win32,58.93099181,61b8f3437b89212fae0dfadf
8,3.9146,space,2.2704,0,85,85,239,1,,,5e9fd839311b8018f88c99eb,643773017e62dbf187605310,2023-04-13_05h15.10.080,PRaM,2021.2.3,Win32,58.93099181,61b8f3437b89212fae0dfadf
3,3.4381,space,1.798,0,86,86,89,1,,,5e9fd839311b8018f88c99eb,643773017e62dbf187605310,2023-04-13_05h15.10.080,PRaM,2021.2.3,Win32,58.93099181,61b8f3437b89212fae0dfadf
8,4.0278,space,2.629,0,87,87,199,1,,,5e9fd839311b8018f88c99eb,643773017e62dbf187605310,2023-04-13_05h15.10.080,PRaM,2021.2.3,Win32,58.93099181,61b8f3437b89212fae0dfadf
8,3.4232,space,2.176,0,88,88,196,1,,,5e9fd839311b8018f88c99eb,643773017e62dbf187605310,2023-04-13_05h15.10.080,PRaM,2021.2.3,Win32,58.93099181,61b8f3437b89212fae0dfadf
8,2.1757,space,0.5051,0,89,89,22,1,,,5e9fd839311b8018f88c99eb,643773017e62dbf187605310,2023-04-13_05h15.10.080,PRaM,2021.2.3,Win32,58.93099181,61b8f3437b89212fae0dfadf
4,3.1681,space,1.7073,0,90,90,190,1,,,5e9fd839311b8018f88c99eb,643773017e62dbf187605310,2023-04-13_05h15.10.080,PRaM,2021.2.3,Win32,58.93099181,61b8f3437b89212fae0dfadf
7,3.3722,space,1.7035,0,91,91,87,1,,,5e9fd839311b8018f88c99eb,643773017e62dbf187605310,2023-04-13_05h15.10.080,PRaM,2021.2.3,Win32,58.93099181,61b8f3437b89212fae0dfadf
8,4.3187,space,2.5509,0,92,92,264,1,,,5e9fd839311b8018f88c99eb,643773017e62dbf187605310,2023-04-13_05h15.10.080,PRaM,2021.2.3,Win32,58.93099181,61b8f3437b89212fae0dfadf
,,space,1.1525,0,93,93,246,1,,,5e9fd839311b8018f88c99eb,643773017e62dbf187605310,2023-04-13_05h15.10.080,PRaM,2021.2.3,Win32,58.93099181,61b8f3437b89212fae0dfadf
8,2.7779,space,1.2741,0,94,94,372,1,,,5e9fd839311b8018f88c99eb,643773017e62dbf187605310,2023-04-13_05h15.10.080,PRaM,2021.2.3,Win32,58.93099181,61b8f3437b89212fae0dfadf
4,3.0961,space,1.4587,0,95,95,273,1,,,5e9fd839311b8018f88c99eb,643773017e62dbf187605310,2023-04-13_05h15.10.080,PRaM,2021.2.3,Win32,58.93099181,61b8f3437b89212fae0dfadf
5,2.7678,space,1.0679,0,96,96,17,1,,,5e9fd839311b8018f88c99eb,643773017e62dbf187605310,2023-04-13_05h15.10.080,PRaM,2021.2.3,Win32,58.93099181,61b8f3437b89212fae0dfadf
3,4.4838,space,2.819,0,97,97,189,1,,,5e9fd839311b8018f88c99eb,643773017e62dbf187605310,2023-04-13_05h15.10.080,PRaM,2021.2.3,Win32,58.93099181,61b8f3437b89212fae0dfadf
5,4.4118,space,2.9531,0,98,98,69,1,,,5e9fd839311b8018f88c99eb,643773017e62dbf187605310,2023-04-13_05h15.10.080,PRaM,2021.2.3,Win32,58.93099181,61b8f3437b89212fae0dfadf
6,5.0333,space,3.4008,0,99,99,313,1,,,5e9fd839311b8018f88c99eb,643773017e62dbf187605310,2023-04-13_05h15.10.080,PRaM,2021.2.3,Win32,58.93099181,61b8f3437b89212fae0dfadf
7,2.9565,space,1.9179,0,100,100,340,1,,,5e9fd839311b8018f88c99eb,643773017e62dbf187605310,2023-04-13_05h15.10.080,PRaM,2021.2.3,Win32,58.93099181,61b8f3437b89212fae0dfadf
3,3.6147,space,2.0419,0,101,101,157,1,,,5e9fd839311b8018f88c99eb,643773017e62dbf187605310,2023-04-13_05h15.10.080,PRaM,2021.2.3,Win32,58.93099181,61b8f3437b89212fae0dfadf
3,6.5692,space,4.9034,0,102,102,195,1,,,5e9fd839311b8018f88c99eb,643773017e62dbf187605310,2023-04-13_05h15.10.080,PRaM,2021.2.3,Win32,58.93099181,61b8f3437b89212fae0dfadf
4,3.5016,space,2.7685,0,103,103,250,1,,,5e9fd839311b8018f88c99eb,643773017e62dbf187605310,2023-04-13_05h15.10.080,PRaM,2021.2.3,Win32,58.93099181,61b8f3437b89212fae0dfadf
4,2.2269,space,0.7118,0,104,104,309,1,,,5e9fd839311b8018f88c99eb,643773017e62dbf187605310,2023-04-13_05h15.10.080,PRaM,2021.2.3,Win32,58.93099181,61b8f3437b89212fae0dfadf
8,3.7935,space,2.2057,0,105,105,154,1,,,5e9fd839311b8018f88c99eb,643773017e62dbf187605310,2023-04-13_05h15.10.080,PRaM,2021.2.3,Win32,58.93099181,61b8f3437b89212fae0dfadf
5,2.8113,space,1.1545,0,106,106,73,1,,,5e9fd839311b8018f88c99eb,643773017e62dbf187605310,2023-04-13_05h15.10.080,PRaM,2021.2.3,Win32,58.93099181,61b8f3437b89212fae0dfadf
6,2.8602,space,2.4037,0,107,107,356,1,,,5e9fd839311b8018f88c99eb,643773017e62dbf187605310,2023-04-13_05h15.10.080,PRaM,2021.2.3,Win32,58.93099181,61b8f3437b89212fae0dfadf
5,2.82,space,1.209,0,108,108,232,1,,,5e9fd839311b8018f88c99eb,643773017e62dbf187605310,2023-04-13_05h15.10.080,PRaM,2021.2.3,Win32,58.93099181,61b8f3437b89212fae0dfadf
6,3.4492,space,2.1671,0,109,109,49,1,,,5e9fd839311b8018f88c99eb,643773017e62dbf187605310,2023-04-13_05h15.10.080,PRaM,2021.2.3,Win32,58.93099181,61b8f3437b89212fae0dfadf
7,2.2004,space,0.5351,0,110,110,134,1,,,5e9fd839311b8018f88c99eb,643773017e62dbf187605310,2023-04-13_05h15.10.080,PRaM,2021.2.3,Win32,58.93099181,61b8f3437b89212fae0dfadf
8,2.4601,space,1.2704,0,111,111,335,1,,,5e9fd839311b8018f88c99eb,643773017e62dbf187605310,2023-04-13_05h15.10.080,PRaM,2021.2.3,Win32,58.93099181,61b8f3437b89212fae0dfadf
6,5.411,space,3.8012,0,112,112,135,1,,,5e9fd839311b8018f88c99eb,643773017e62dbf187605310,2023-04-13_05h15.10.080,PRaM,2021.2.3,Win32,58.93099181,61b8f3437b89212fae0dfadf
8,3.6928,space,2.135,0,113,113,291,1,,,5e9fd839311b8018f88c99eb,643773017e62dbf187605310,2023-04-13_05h15.10.080,PRaM,2021.2.3,Win32,58.93099181,61b8f3437b89212fae0dfadf
7,4.3552,space,2.7031,0,114,114,147,1,,,5e9fd839311b8018f88c99eb,643773017e62dbf187605310,2023-04-13_05h15.10.080,PRaM,2021.2.3,Win32,58.93099181,61b8f3437b89212fae0dfadf
5,3.635,space,2.169,0,115,115,116,1,,,5e9fd839311b8018f88c99eb,643773017e62dbf187605310,2023-04-13_05h15.10.080,PRaM,2021.2.3,Win32,58.93099181,61b8f3437b89212fae0dfadf
6,5.8129,space,4.4882,0,116,116,282,1,,,5e9fd839311b8018f88c99eb,643773017e62dbf187605310,2023-04-13_05h15.10.080,PRaM,2021.2.3,Win32,58.93099181,61b8f3437b89212fae0dfadf
4,3.8021,space,2.1856,0,117,117,267,1,,,5e9fd839311b8018f88c99eb,643773017e62dbf187605310,2023-04-13_05h15.10.080,PRaM,2021.2.3,Win32,58.93099181,61b8f3437b89212fae0dfadf
5,2.9153,space,1.2945,0,118,118,24,1,,,5e9fd839311b8018f88c99eb,643773017e62dbf187605310,2023-04-13_05h15.10.080,PRaM,2021.2.3,Win32,58.93099181,61b8f3437b89212fae0dfadf
6,2.6058,space,0.9057,0,119,119,124,1,,,5e9fd839311b8018f88c99eb,643773017e62dbf187605310,2023-04-13_05h15.10.080,PRaM,2021.2.3,Win32,58.93099181,61b8f3437b89212fae0dfadf
6,1.9993,space,0.3029,0,120,120,18,1,,,5e9fd839311b8018f88c99eb,643773017e62dbf187605310,2023-04-13_05h15.10.080,PRaM,2021.2.3,Win32,58.93099181,61b8f3437b89212fae0dfadf
5,2.5172,space,0.8861,0,121,121,50,1,,,5e9fd839311b8018f88c99eb,643773017e62dbf187605310,2023-04-13_05h15.10.080,PRaM,2021.2.3,Win32,58.93099181,61b8f3437b89212fae0dfadf
5,4.5843,space,3.1134,0,122,122,198,1,,,5e9fd839311b8018f88c99eb,643773017e62dbf187605310,2023-04-13_05h15.10.080,PRaM,2021.2.3,Win32,58.93099181,61b8f3437b89212fae0dfadf
8,2.7888,space,1.1025,0,123,123,197,1,,,5e9fd839311b8018f88c99eb,643773017e62dbf187605310,2023-04-13_05h15.10.080,PRaM,2021.2.3,Win32,58.93099181,61b8f3437b89212fae0dfadf
8,5.3512,space,3.7712,0,124,124,280,1,,,5e9fd839311b8018f88c99eb,643773017e62dbf187605310,2023-04-13_05h15.10.080,PRaM,2021.2.3,Win32,58.93099181,61b8f3437b89212fae0dfadf
7,6.9723,space,5.2874,0,125,125,100,1,,,5e9fd839311b8018f88c99eb,643773017e62dbf187605310,2023-04-13_05h15.10.080,PRaM,2021.2.3,Win32,58.93099181,61b8f3437b89212fae0dfadf
8,4.3217,space,2.7033,0,126,126,334,1,,,5e9fd839311b8018f88c99eb,643773017e62dbf187605310,2023-04-13_05h15.10.080,PRaM,2021.2.3,Win32,58.93099181,61b8f3437b89212fae0dfadf
4,3.5336,space,1.9002,0,127,127,161,1,,,5e9fd839311b8018f88c99eb,643773017e62dbf187605310,2023-04-13_05h15.10.080,PRaM,2021.2.3,Win32,58.93099181,61b8f3437b89212fae0dfadf
8,5.999,space,4.3054,0,128,128,259,1,,,5e9fd839311b8018f88c99eb,643773017e62dbf187605310,2023-04-13_05h15.10.080,PRaM,2021.2.3,Win32,58.93099181,61b8f3437b89212fae0dfadf
8,3.5537,space,1.9086,0,129,129,200,1,,,5e9fd839311b8018f88c99eb,643773017e62dbf187605310,2023-04-13_05h15.10.080,PRaM,2021.2.3,Win32,58.93099181,61b8f3437b89212fae0dfadf
9,4.1668,space,2.739,0,130,130,85,1,,,5e9fd839311b8018f88c99eb,643773017e62dbf187605310,2023-04-13_05h15.10.080,PRaM,2021.2.3,Win32,58.93099181,61b8f3437b89212fae0dfadf
7,3.5044,space,1.8349,0,131,131,187,1,,,5e9fd839311b8018f88c99eb,643773017e62dbf187605310,2023-04-13_05h15.10.080,PRaM,2021.2.3,Win32,58.93099181,61b8f3437b89212fae0dfadf
6,2.6441,space,1.0393,0,132,132,146,1,,,5e9fd839311b8018f88c99eb,643773017e62dbf187605310,2023-04-13_05h15.10.080,PRaM,2021.2.3,Win32,58.93099181,61b8f3437b89212fae0dfadf
5,2.1176,space,0.5851,0,133,133,361,1,,,5e9fd839311b8018f88c99eb,643773017e62dbf187605310,2023-04-13_05h15.10.080,PRaM,2021.2.3,Win32,58.93099181,61b8f3437b89212fae0dfadf
6,2.8523,space,1.1927,0,134,134,96,1,,,5e9fd839311b8018f88c99eb,643773017e62dbf187605310,2023-04-13_05h15.10.080,PRaM,2021.2.3,Win32,58.93099181,61b8f3437b89212fae0dfadf
5,3.1175,space,1.3258,0,135,135,304,1,,,5e9fd839311b8018f88c99eb,643773017e62dbf187605310,2023-04-13_05h15.10.080,PRaM,2021.2.3,Win32,58.93099181,61b8f3437b89212fae0dfadf
5,1.49,space,0.6691,0,136,136,248,1,,,5e9fd839311b8018f88c99eb,643773017e62dbf187605310,2023-04-13_05h15.10.080,PRaM,2021.2.3,Win32,58.93099181,61b8f3437b89212fae0dfadf
6,1.6202,space,0.0521,0,137,137,249,1,,,5e9fd839311b8018f88c99eb,643773017e62dbf187605310,2023-04-13_05h15.10.080,PRaM,2021.2.3,Win32,58.93099181,61b8f3437b89212fae0dfadf
5,1.8449,space,0.1908,0,138,138,314,1,,,5e9fd839311b8018f88c99eb,643773017e62dbf187605310,2023-04-13_05h15.10.080,PRaM,2021.2.3,Win32,58.93099181,61b8f3437b89212fae0dfadf
6,1.7465,space,0.0867,0,139,139,376,1,,,5e9fd839311b8018f88c99eb,643773017e62dbf187605310,2023-04-13_05h15.10.080,PRaM,2021.2.3,Win32,58.93099181,61b8f3437b89212fae0dfadf
6,1.6262,space,0.5689,0,140,140,344,1,,,5e9fd839311b8018f88c99eb,643773017e62dbf187605310,2023-04-13_05h15.10.080,PRaM,2021.2.3,Win32,58.93099181,61b8f3437b89212fae0dfadf
6,2.4259,space,0.8031,0,141,141,342,1,,,5e9fd839311b8018f88c99eb,643773017e62dbf187605310,2023-04-13_05h15.10.080,PRaM,2021.2.3,Win32,58.93099181,61b8f3437b89212fae0dfadf
6,2.8991,space,1.1837,0,142,142,346,1,,,5e9fd839311b8018f88c99eb,643773017e62dbf187605310,2023-04-13_05h15.10.080,PRaM,2021.2.3,Win32,58.93099181,61b8f3437b89212fae0dfadf
3,4.1569,space,2.5862,0,143,143,113,1,,,5e9fd839311b8018f88c99eb,643773017e62dbf187605310,2023-04-13_05h15.10.080,PRaM,2021.2.3,Win32,58.93099181,61b8f3437b89212fae0dfadf
4,2.9232,space,1.4998,0,144,144,11,1,,,5e9fd839311b8018f88c99eb,643773017e62dbf187605310,2023-04-13_05h15.10.080,PRaM,2021.2.3,Win32,58.93099181,61b8f3437b89212fae0dfadf
2,2.4426,space,0.8354,0,145,145,284,1,,,5e9fd839311b8018f88c99eb,643773017e62dbf187605310,2023-04-13_05h15.10.080,PRaM,2021.2.3,Win32,58.93099181,61b8f3437b89212fae0dfadf
8,3.2026,space,1.5677,0,146,146,142,1,,,5e9fd839311b8018f88c99eb,643773017e62dbf187605310,2023-04-13_05h15.10.080,PRaM,2021.2.3,Win32,58.93099181,61b8f3437b89212fae0dfadf
7,3.4205,space,1.8398,0,147,147,90,1,,,5e9fd839311b8018f88c99eb,643773017e62dbf187605310,2023-04-13_05h15.10.080,PRaM,2021.2.3,Win32,58.93099181,61b8f3437b89212fae0dfadf
5,2.1761,space,0.5535,0,148,148,370,1,,,5e9fd839311b8018f88c99eb,643773017e62dbf187605310,2023-04-13_05h15.10.080,PRaM,2021.2.3,Win32,58.93099181,61b8f3437b89212fae0dfadf
6,2.3319,space,0.649,0,149,149,311,1,,,5e9fd839311b8018f88c99eb,643773017e62dbf187605310,2023-04-13_05h15.10.080,PRaM,2021.2.3,Win32,58.93099181,61b8f3437b89212fae0dfadf
4,3.9832,space,2.353,0,150,150,203,1,,,5e9fd839311b8018f88c99eb,643773017e62dbf187605310,2023-04-13_05h15.10.080,PRaM,2021.2.3,Win32,58.93099181,61b8f3437b89212fae0dfadf
3,2.4181,space,0.8017,0,151,151,9,1,,,5e9fd839311b8018f88c99eb,643773017e62dbf187605310,2023-04-13_05h15.10.080,PRaM,2021.2.3,Win32,58.93099181,61b8f3437b89212fae0dfadf
7,3.969,space,2.3349,0,152,152,347,1,,,5e9fd839311b8018f88c99eb,643773017e62dbf187605310,2023-04-13_05h15.10.080,PRaM,2021.2.3,Win32,58.93099181,61b8f3437b89212fae0dfadf
8,3.5653,space,1.917,0,153,153,127,1,,,5e9fd839311b8018f88c99eb,643773017e62dbf187605310,2023-04-13_05h15.10.080,PRaM,2021.2.3,Win32,58.93099181,61b8f3437b89212fae0dfadf
8,4.2254,space,2.5602,0,154,154,149,1,,,5e9fd839311b8018f88c99eb,643773017e62dbf187605310,2023-04-13_05h15.10.080,PRaM,2021.2.3,Win32,58.93099181,61b8f3437b89212fae0dfadf
8,2.6897,space,0.9687,0,155,155,352,1,,,5e9fd839311b8018f88c99eb,643773017e62dbf187605310,2023-04-13_05h15.10.080,PRaM,2021.2.3,Win32,58.93099181,61b8f3437b89212fae0dfadf
6,3.6409,space,1.9536,0,156,156,185,1,,,5e9fd839311b8018f88c99eb,643773017e62dbf187605310,2023-04-13_05h15.10.080,PRaM,2021.2.3,Win32,58.93099181,61b8f3437b89212fae0dfadf
4,5.1344,space,3.4534,0,157,157,308,1,,,5e9fd839311b8018f88c99eb,643773017e62dbf187605310,2023-04-13_05h15.10.080,PRaM,2021.2.3,Win32,58.93099181,61b8f3437b89212fae0dfadf
6,5.6595,space,4.3017,0,158,158,104,1,,,5e9fd839311b8018f88c99eb,643773017e62dbf187605310,2023-04-13_05h15.10.080,PRaM,2021.2.3,Win32,58.93099181,61b8f3437b89212fae0dfadf
6,2.6086,space,1.1031,0,159,159,126,1,,,5e9fd839311b8018f88c99eb,643773017e62dbf187605310,2023-04-13_05h15.10.080,PRaM,2021.2.3,Win32,58.93099181,61b8f3437b89212fae0dfadf
3,3.2273,space,1.5764,0,160,160,290,1,,,5e9fd839311b8018f88c99eb,643773017e62dbf187605310,2023-04-13_05h15.10.080,PRaM,2021.2.3,Win32,58.93099181,61b8f3437b89212fae0dfadf
7,3.4443,space,1.9033,0,161,161,302,1,,,5e9fd839311b8018f88c99eb,643773017e62dbf187605310,2023-04-13_05h15.10.080,PRaM,2021.2.3,Win32,58.93099181,61b8f3437b89212fae0dfadf
8,3.0448,space,1.3682,0,162,162,348,1,,,5e9fd839311b8018f88c99eb,643773017e62dbf187605310,2023-04-13_05h15.10.080,PRaM,2021.2.3,Win32,58.93099181,61b8f3437b89212fae0dfadf
7,3.0175,space,1.3313,0,163,163,357,1,,,5e9fd839311b8018f88c99eb,643773017e62dbf187605310,2023-04-13_05h15.10.080,PRaM,2021.2.3,Win32,58.93099181,61b8f3437b89212fae0dfadf
2,3.1534,space,1.4837,0,164,164,67,1,,,5e9fd839311b8018f88c99eb,643773017e62dbf187605310,2023-04-13_05h15.10.080,PRaM,2021.2.3,Win32,58.93099181,61b8f3437b89212fae0dfadf
5,2.9257,space,1.2709,0,165,165,237,1,,,5e9fd839311b8018f88c99eb,643773017e62dbf187605310,2023-04-13_05h15.10.080,PRaM,2021.2.3,Win32,58.93099181,61b8f3437b89212fae0dfadf
3,3.4486,space,2.3148,0,166,166,109,1,,,5e9fd839311b8018f88c99eb,643773017e62dbf187605310,2023-04-13_05h15.10.080,PRaM,2021.2.3,Win32,58.93099181,61b8f3437b89212fae0dfadf
4,3.0193,space,1.3834,0,167,167,6,1,,,5e9fd839311b8018f88c99eb,643773017e62dbf187605310,2023-04-13_05h15.10.080,PRaM,2021.2.3,Win32,58.93099181,61b8f3437b89212fae0dfadf
8,4.8228,space,3.17,0,168,168,208,1,,,5e9fd839311b8018f88c99eb,643773017e62dbf187605310,2023-04-13_05h15.10.080,PRaM,2021.2.3,Win32,58.93099181,61b8f3437b89212fae0dfadf
7,2.8176,space,1.5699,0,169,169,23,1,,,5e9fd839311b8018f88c99eb,643773017e62dbf187605310,2023-04-13_05h15.10.080,PRaM,2021.2.3,Win32,58.93099181,61b8f3437b89212fae0dfadf
5,2.6341,space,0.9831,0,170,170,130,1,,,5e9fd839311b8018f88c99eb,643773017e62dbf187605310,2023-04-13_05h15.10.080,PRaM,2021.2.3,Win32,58.93099181,61b8f3437b89212fae0dfadf
6,3.5236,space,1.886,0,171,171,27,1,,,5e9fd839311b8018f88c99eb,643773017e62dbf187605310,2023-04-13_05h15.10.080,PRaM,2021.2.3,Win32,58.93099181,61b8f3437b89212fae0dfadf
4,2.8793,space,1.1855,0,172,172,293,1,,,5e9fd839311b8018f88c99eb,643773017e62dbf187605310,2023-04-13_05h15.10.080,PRaM,2021.2.3,Win32,58.93099181,61b8f3437b89212fae0dfadf
4,2.2334,space,0.7835,0,173,173,74,1,,,5e9fd839311b8018f88c99eb,643773017e62dbf187605310,2023-04-13_05h15.10.080,PRaM,2021.2.3,Win32,58.93099181,61b8f3437b89212fae0dfadf
7,6.6944,space,5.0379,0,174,174,86,1,,,5e9fd839311b8018f88c99eb,643773017e62dbf187605310,2023-04-13_05h15.10.080,PRaM,2021.2.3,Win32,58.93099181,61b8f3437b89212fae0dfadf
2,4.6961,space,3.0504,0,175,175,70,1,,,5e9fd839311b8018f88c99eb,643773017e62dbf187605310,2023-04-13_05h15.10.080,PRaM,2021.2.3,Win32,58.93099181,61b8f3437b89212fae0dfadf
5,3.4554,space,1.8056,0,176,176,36,1,,,5e9fd839311b8018f88c99eb,643773017e62dbf187605310,2023-04-13_05h15.10.080,PRaM,2021.2.3,Win32,58.93099181,61b8f3437b89212fae0dfadf
8,6.1125,space,4.4894,0,177,177,279,1,,,5e9fd839311b8018f88c99eb,643773017e62dbf187605310,2023-04-13_05h15.10.080,PRaM,2021.2.3,Win32,58.93099181,61b8f3437b89212fae0dfadf
3,3.1615,space,1.57,0,178,178,5,1,,,5e9fd839311b8018f88c99eb,643773017e62dbf187605310,2023-04-13_05h15.10.080,PRaM,2021.2.3,Win32,58.93099181,61b8f3437b89212fae0dfadf
4,6.0391,space,4.3959,0,179,179,2,1,,,5e9fd839311b8018f88c99eb,643773017e62dbf187605310,2023-04-13_05h15.10.080,PRaM,2021.2.3,Win32,58.93099181,61b8f3437b89212fae0dfadf
6,3.7327,space,2.9317,0,180,180,43,1,,,5e9fd839311b8018f88c99eb,643773017e62dbf187605310,2023-04-13_05h15.10.080,PRaM,2021.2.3,Win32,58.93099181,61b8f3437b89212fae0dfadf
4,2.6761,space,1.3173,0,181,181,81,1,,,5e9fd839311b8018f88c99eb,643773017e62dbf187605310,2023-04-13_05h15.10.080,PRaM,2021.2.3,Win32,58.93099181,61b8f3437b89212fae0dfadf
5,2.4944,space,0.8075,0,182,182,349,1,,,5e9fd839311b8018f88c99eb,643773017e62dbf187605310,2023-04-13_05h15.10.080,PRaM,2021.2.3,Win32,58.93099181,61b8f3437b89212fae0dfadf
2,3.2839,space,1.6045,0,183,183,210,1,,,5e9fd839311b8018f88c99eb,643773017e62dbf187605310,2023-04-13_05h15.10.080,PRaM,2021.2.3,Win32,58.93099181,61b8f3437b89212fae0dfadf
2,5.001,space,3.3683,0,184,184,230,1,,,5e9fd839311b8018f88c99eb,643773017e62dbf187605310,2023-04-13_05h15.10.080,PRaM,2021.2.3,Win32,58.93099181,61b8f3437b89212fae0dfadf
3,2.3004,space,0.6523,0,185,185,367,1,,,5e9fd839311b8018f88c99eb,643773017e62dbf187605310,2023-04-13_05h15.10.080,PRaM,2021.2.3,Win32,58.93099181,61b8f3437b89212fae0dfadf
7,3.9344,space,2.467,0,186,186,139,1,,,5e9fd839311b8018f88c99eb,643773017e62dbf187605310,2023-04-13_05h15.10.080,PRaM,2021.2.3,Win32,58.93099181,61b8f3437b89212fae0dfadf
1,4.0091,space,2.392,0,187,187,62,1,,,5e9fd839311b8018f88c99eb,643773017e62dbf187605310,2023-04-13_05h15.10.080,PRaM,2021.2.3,Win32,58.93099181,61b8f3437b89212fae0dfadf
8,4.2988,space,2.6372,0,188,188,150,1,,,5e9fd839311b8018f88c99eb,643773017e62dbf187605310,2023-04-13_05h15.10.080,PRaM,2021.2.3,Win32,58.93099181,61b8f3437b89212fae0dfadf
,,space,1.1689,0,189,189,192,1,,,5e9fd839311b8018f88c99eb,643773017e62dbf187605310,2023-04-13_05h15.10.080,PRaM,2021.2.3,Win32,58.93099181,61b8f3437b89212fae0dfadf
5,3.156,space,1.5207,0,190,190,72,1,,,5e9fd839311b8018f88c99eb,643773017e62dbf187605310,2023-04-13_05h15.10.080,PRaM,2021.2.3,Win32,58.93099181,61b8f3437b89212fae0dfadf
7,3.0282,space,1.4009,0,191,191,216,1,,,5e9fd839311b8018f88c99eb,643773017e62dbf187605310,2023-04-13_05h15.10.080,PRaM,2021.2.3,Win32,58.93099181,61b8f3437b89212fae0dfadf
8,3.3859,space,2.0335,0,192,192,255,1,,,5e9fd839311b8018f88c99eb,643773017e62dbf187605310,2023-04-13_05h15.10.080,PRaM,2021.2.3,Win32,58.93099181,61b8f3437b89212fae0dfadf
8,3.9496,space,2.2867,0,193,193,276,1,,,5e9fd839311b8018f88c99eb,643773017e62dbf187605310,2023-04-13_05h15.10.080,PRaM,2021.2.3,Win32,58.93099181,61b8f3437b89212fae0dfadf
3,4.8358,space,3.2195,0,194,194,345,1,,,5e9fd839311b8018f88c99eb,643773017e62dbf187605310,2023-04-13_05h15.10.080,PRaM,2021.2.3,Win32,58.93099181,61b8f3437b89212fae0dfadf
8,5.0845,space,3.5625,0,195,195,305,1,,,5e9fd839311b8018f88c99eb,643773017e62dbf187605310,2023-04-13_05h15.10.080,PRaM,2021.2.3,Win32,58.93099181,61b8f3437b89212fae0dfadf
3,3.1106,space,1.5006,0,196,196,289,1,,,5e9fd839311b8018f88c99eb,643773017e62dbf187605310,2023-04-13_05h15.10.080,PRaM,2021.2.3,Win32,58.93099181,61b8f3437b89212fae0dfadf
3,3.673,space,2.0168,0,197,197,131,1,,,5e9fd839311b8018f88c99eb,643773017e62dbf187605310,2023-04-13_05h15.10.080,PRaM,2021.2.3,Win32,58.93099181,61b8f3437b89212fae0dfadf
4,3.2917,space,1.6708,0,198,198,172,1,,,5e9fd839311b8018f88c99eb,643773017e62dbf187605310,2023-04-13_05h15.10.080,PRaM,2021.2.3,Win32,58.93099181,61b8f3437b89212fae0dfadf
8,3.0614,space,1.5078,0,199,199,66,1,,,5e9fd839311b8018f88c99eb,643773017e62dbf187605310,2023-04-13_05h15.10.080,PRaM,2021.2.3,Win32,58.93099181,61b8f3437b89212fae0dfadf
3,4.1002,space,2.4152,0,200,200,227,1,,,5e9fd839311b8018f88c99eb,643773017e62dbf187605310,2023-04-13_05h15.10.080,PRaM,2021.2.3,Win32,58.93099181,61b8f3437b89212fae0dfadf
3,4.4759,space,2.7889,0,201,201,258,1,,,5e9fd839311b8018f88c99eb,643773017e62dbf187605310,2023-04-13_05h15.10.080,PRaM,2021.2.3,Win32,58.93099181,61b8f3437b89212fae0dfadf
5,7.54,space,5.9039,0,202,202,10,1,,,5e9fd839311b8018f88c99eb,643773017e62dbf187605310,2023-04-13_05h15.10.080,PRaM,2021.2.3,Win32,58.93099181,61b8f3437b89212fae0dfadf
5,2.3748,space,0.67,0,203,203,47,1,,,5e9fd839311b8018f88c99eb,643773017e62dbf187605310,2023-04-13_05h15.10.080,PRaM,2021.2.3,Win32,58.93099181,61b8f3437b89212fae0dfadf
8,3.0661,space,1.518,0,204,204,337,1,,,5e9fd839311b8018f88c99eb,643773017e62dbf187605310,2023-04-13_05h15.10.080,PRaM,2021.2.3,Win32,58.93099181,61b8f3437b89212fae0dfadf
5,2.5991,space,0.9678,0,205,205,108,1,,,5e9fd839311b8018f88c99eb,643773017e62dbf187605310,2023-04-13_05h15.10.080,PRaM,2021.2.3,Win32,58.93099181,61b8f3437b89212fae0dfadf
2,3.2521,space,1.5663,0,206,206,107,1,,,5e9fd839311b8018f88c99eb,643773017e62dbf187605310,2023-04-13_05h15.10.080,PRaM,2021.2.3,Win32,58.93099181,61b8f3437b89212fae0dfadf
8,4.3768,space,2.8152,0,207,207,207,1,,,5e9fd839311b8018f88c99eb,643773017e62dbf187605310,2023-04-13_05h15.10.080,PRaM,2021.2.3,Win32,58.93099181,61b8f3437b89212fae0dfadf
5,63.3564,space,62.4297,0,208,208,332,1,,,5e9fd839311b8018f88c99eb,643773017e62dbf187605310,2023-04-13_05h15.10.080,PRaM,2021.2.3,Win32,58.93099181,61b8f3437b89212fae0dfadf
2,4.508,space,2.8876,0,209,209,243,1,,,5e9fd839311b8018f88c99eb,643773017e62dbf187605310,2023-04-13_05h15.10.080,PRaM,2021.2.3,Win32,58.93099181,61b8f3437b89212fae0dfadf
4,2.4863,space,0.8688,0,210,210,339,1,,,5e9fd839311b8018f88c99eb,643773017e62dbf187605310,2023-04-13_05h15.10.080,PRaM,2021.2.3,Win32,58.93099181,61b8f3437b89212fae0dfadf
6,2.5859,space,0.9362,0,211,211,21,1,,,5e9fd839311b8018f88c99eb,643773017e62dbf187605310,2023-04-13_05h15.10.080,PRaM,2021.2.3,Win32,58.93099181,61b8f3437b89212fae0dfadf
2,3.206,space,1.5354,0,212,212,318,1,,,5e9fd839311b8018f88c99eb,643773017e62dbf187605310,2023-04-13_05h15.10.080,PRaM,2021.2.3,Win32,58.93099181,61b8f3437b89212fae0dfadf
6,3.0222,space,1.3681,0,213,213,32,1,,,5e9fd839311b8018f88c99eb,643773017e62dbf187605310,2023-04-13_05h15.10.080,PRaM,2021.2.3,Win32,58.93099181,61b8f3437b89212fae0dfadf
5,2.96,space,1.2864,0,214,214,359,1,,,5e9fd839311b8018f88c99eb,643773017e62dbf187605310,2023-04-13_05h15.10.080,PRaM,2021.2.3,Win32,58.93099181,61b8f3437b89212fae0dfadf
8,4.5833,space,2.9155,0,215,215,221,1,,,5e9fd839311b8018f88c99eb,643773017e62dbf187605310,2023-04-13_05h15.10.080,PRaM,2021.2.3,Win32,58.93099181,61b8f3437b89212fae0dfadf
8,4.2402,space,2.601,0,216,216,180,1,,,5e9fd839311b8018f88c99eb,643773017e62dbf187605310,2023-04-13_05h15.10.080,PRaM,2021.2.3,Win32,58.93099181,61b8f3437b89212fae0dfadf
3,3.2742,space,1.5837,0,217,217,191,1,,,5e9fd839311b8018f88c99eb,643773017e62dbf187605310,2023-04-13_05h15.10.080,PRaM,2021.2.3,Win32,58.93099181,61b8f3437b89212fae0dfadf
3,3.3444,space,1.6708,0,218,218,241,1,,,5e9fd839311b8018f88c99eb,643773017e62dbf187605310,2023-04-13_05h15.10.080,PRaM,2021.2.3,Win32,58.93099181,61b8f3437b89212fae0dfadf
4,3.6834,space,2.0861,0,219,219,374,1,,,5e9fd839311b8018f88c99eb,643773017e62dbf187605310,2023-04-13_05h15.10.080,PRaM,2021.2.3,Win32,58.93099181,61b8f3437b89212fae0dfadf
8,4.4012,space,2.5878,0,220,220,310,1,,,5e9fd839311b8018f88c99eb,643773017e62dbf187605310,2023-04-13_05h15.10.080,PRaM,2021.2.3,Win32,58.93099181,61b8f3437b89212fae0dfadf
6,5.3708,space,3.7001,0,221,221,263,1,,,5e9fd839311b8018f88c99eb,643773017e62dbf187605310,2023-04-13_05h15.10.080,PRaM,2021.2.3,Win32,58.93099181,61b8f3437b89212fae0dfadf
5,2.4739,space,0.8021,0,222,222,306,1,,,5e9fd839311b8018f88c99eb,643773017e62dbf187605310,2023-04-13_05h15.10.080,PRaM,2021.2.3,Win32,58.93099181,61b8f3437b89212fae0dfadf
6,2.2457,space,0.668,0,223,223,182,1,,,5e9fd839311b8018f88c99eb,643773017e62dbf187605310,2023-04-13_05h15.10.080,PRaM,2021.2.3,Win32,58.93099181,61b8f3437b89212fae0dfadf
2,4.5942,space,3.0244,0,224,224,330,1,,,5e9fd839311b8018f88c99eb,643773017e62dbf187605310,2023-04-13_05h15.10.080,PRaM,2021.2.3,Win32,58.93099181,61b8f3437b89212fae0dfadf
3,2.3541,space,0.7862,0,225,225,266,1,,,5e9fd839311b8018f88c99eb,643773017e62dbf187605310,2023-04-13_05h15.10.080,PRaM,2021.2.3,Win32,58.93099181,61b8f3437b89212fae0dfadf
3,2.0939,space,0.5191,0,226,226,271,1,,,5e9fd839311b8018f88c99eb,643773017e62dbf187605310,2023-04-13_05h15.10.080,PRaM,2021.2.3,Win32,58.93099181,61b8f3437b89212fae0dfadf
4,2.2431,space,0.5718,0,227,227,205,1,,,5e9fd839311b8018f88c99eb,643773017e62dbf187605310,2023-04-13_05h15.10.080,PRaM,2021.2.3,Win32,58.93099181,61b8f3437b89212fae0dfadf
6,3.5699,space,1.9041,0,228,228,119,1,,,5e9fd839311b8018f88c99eb,643773017e62dbf187605310,2023-04-13_05h15.10.080,PRaM,2021.2.3,Win32,58.93099181,61b8f3437b89212fae0dfadf
5,2.2953,space,0.6351,0,229,229,209,1,,,5e9fd839311b8018f88c99eb,643773017e62dbf187605310,2023-04-13_05h15.10.080,PRaM,2021.2.3,Win32,58.93099181,61b8f3437b89212fae0dfadf
4,1.81,space,0.5187,0,230,230,179,1,,,5e9fd839311b8018f88c99eb,643773017e62dbf187605310,2023-04-13_05h15.10.080,PRaM,2021.2.3,Win32,58.93099181,61b8f3437b89212fae0dfadf
3,2.7438,space,1.0869,0,231,231,324,1,,,5e9fd839311b8018f88c99eb,643773017e62dbf187605310,2023-04-13_05h15.10.080,PRaM,2021.2.3,Win32,58.93099181,61b8f3437b89212fae0dfadf
4,2.5158,space,0.8337,0,232,232,65,1,,,5e9fd839311b8018f88c99eb,643773017e62dbf187605310,2023-04-13_05h15.10.080,PRaM,2021.2.3,Win32,58.93099181,61b8f3437b89212fae0dfadf
4,2.2839,space,0.6194,0,233,233,336,1,,,5e9fd839311b8018f88c99eb,643773017e62dbf187605310,2023-04-13_05h15.10.080,PRaM,2021.2.3,Win32,58.93099181,61b8f3437b89212fae0dfadf
3,3.0855,space,1.8697,0,234,234,225,1,,,5e9fd839311b8018f88c99eb,643773017e62dbf187605310,2023-04-13_05h15.10.080,PRaM,2021.2.3,Win32,58.93099181,61b8f3437b89212fae0dfadf
3,2.3668,space,0.687,0,235,235,215,1,,,5e9fd839311b8018f88c99eb,643773017e62dbf187605310,2023-04-13_05h15.10.080,PRaM,2021.2.3,Win32,58.93099181,61b8f3437b89212fae0dfadf
8,4.0551,space,2.4199,0,236,236,12,1,,,5e9fd839311b8018f88c99eb,643773017e62dbf187605310,2023-04-13_05h15.10.080,PRaM,2021.2.3,Win32,58.93099181,61b8f3437b89212fae0dfadf
,,space,0.9535,0,237,237,56,1,,,5e9fd839311b8018f88c99eb,643773017e62dbf187605310,2023-04-13_05h15.10.080,PRaM,2021.2.3,Win32,58.93099181,61b8f3437b89212fae0dfadf
7,3.0345,space,1.3667,0,238,238,362,1,,,5e9fd839311b8018f88c99eb,643773017e62dbf187605310,2023-04-13_05h15.10.080,PRaM,2021.2.3,Win32,58.93099181,61b8f3437b89212fae0dfadf
5,2.9655,space,1.3068,0,239,239,240,1,,,5e9fd839311b8018f88c99eb,643773017e62dbf187605310,2023-04-13_05h15.10.080,PRaM,2021.2.3,Win32,58.93099181,61b8f3437b89212fae0dfadf
7,2.9774,space,1.5689,0,240,240,39,1,,,5e9fd839311b8018f88c99eb,643773017e62dbf187605310,2023-04-13_05h15.10.080,PRaM,2021.2.3,Win32,58.93099181,61b8f3437b89212fae0dfadf
7,3.6091,space,1.9538,0,241,241,238,1,,,5e9fd839311b8018f88c99eb,643773017e62dbf187605310,2023-04-13_05h15.10.080,PRaM,2021.2.3,Win32,58.93099181,61b8f3437b89212fae0dfadf
3,3.4902,space,1.8668,0,242,242,315,1,,,5e9fd839311b8018f88c99eb,643773017e62dbf187605310,2023-04-13_05h15.10.080,PRaM,2021.2.3,Win32,58.93099181,61b8f3437b89212fae0dfadf
5,3.0091,space,1.3353,0,243,243,371,1,,,5e9fd839311b8018f88c99eb,643773017e62dbf187605310,2023-04-13_05h15.10.080,PRaM,2021.2.3,Win32,58.93099181,61b8f3437b89212fae0dfadf
2,3.7727,space,2.0208,0,244,244,211,1,,,5e9fd839311b8018f88c99eb,643773017e62dbf187605310,2023-04-13_05h15.10.080,PRaM,2021.2.3,Win32,58.93099181,61b8f3437b89212fae0dfadf
5,3.3916,space,1.8504,0,245,245,355,1,,,5e9fd839311b8018f88c99eb,643773017e62dbf187605310,2023-04-13_05h15.10.080,PRaM,2021.2.3,Win32,58.93099181,61b8f3437b89212fae0dfadf
7,5.8038,space,4.1377,0,246,246,233,1,,,5e9fd839311b8018f88c99eb,643773017e62dbf187605310,2023-04-13_05h15.10.080,PRaM,2021.2.3,Win32,58.93099181,61b8f3437b89212fae0dfadf
5,2.5554,space,0.9194,0,247,247,269,1,,,5e9fd839311b8018f88c99eb,643773017e62dbf187605310,2023-04-13_05h15.10.080,PRaM,2021.2.3,Win32,58.93099181,61b8f3437b89212fae0dfadf
6,2.4283,space,0.7781,0,248,248,44,1,,,5e9fd839311b8018f88c99eb,643773017e62dbf187605310,2023-04-13_05h15.10.080,PRaM,2021.2.3,Win32,58.93099181,61b8f3437b89212fae0dfadf
5,2.0645,space,0.4282,0,249,249,219,1,,,5e9fd839311b8018f88c99eb,643773017e62dbf187605310,2023-04-13_05h15.10.080,PRaM,2021.2.3,Win32,58.93099181,61b8f3437b89212fae0dfadf
6,2.4885,space,0.7795,0,250,250,29,1,,,5e9fd839311b8018f88c99eb,643773017e62dbf187605310,2023-04-13_05h15.10.080,PRaM,2021.2.3,Win32,58.93099181,61b8f3437b89212fae0dfadf
4,4.3547,space,2.6493,0,251,251,174,1,,,5e9fd839311b8018f88c99eb,643773017e62dbf187605310,2023-04-13_05h15.10.080,PRaM,2021.2.3,Win32,58.93099181,61b8f3437b89212fae0dfadf
3,3.286,space,1.5986,0,252,252,163,1,,,5e9fd839311b8018f88c99eb,643773017e62dbf187605310,2023-04-13_05h15.10.080,PRaM,2021.2.3,Win32,58.93099181,61b8f3437b89212fae0dfadf
3,2.3215,space,0.5768,0,253,253,294,1,,,5e9fd839311b8018f88c99eb,643773017e62dbf187605310,2023-04-13_05h15.10.080,PRaM,2021.2.3,Win32,58.93099181,61b8f3437b89212fae0dfadf
4,1.8195,space,0.1364,0,254,254,303,1,,,5e9fd839311b8018f88c99eb,643773017e62dbf187605310,2023-04-13_05h15.10.080,PRaM,2021.2.3,Win32,58.93099181,61b8f3437b89212fae0dfadf
3,1.9662,space,0.3141,0,255,255,158,1,,,5e9fd839311b8018f88c99eb,643773017e62dbf187605310,2023-04-13_05h15.10.080,PRaM,2021.2.3,Win32,58.93099181,61b8f3437b89212fae0dfadf
3,2.1127,space,0.591,0,256,256,353,1,,,5e9fd839311b8018f88c99eb,643773017e62dbf187605310,2023-04-13_05h15.10.080,PRaM,2021.2.3,Win32,58.93099181,61b8f3437b89212fae0dfadf
5,2.5305,space,0.9646,0,257,257,217,1,,,5e9fd839311b8018f88c99eb,643773017e62dbf187605310,2023-04-13_05h15.10.080,PRaM,2021.2.3,Win32,58.93099181,61b8f3437b89212fae0dfadf
3,3.089,space,1.4334,0,258,258,369,1,,,5e9fd839311b8018f88c99eb,643773017e62dbf187605310,2023-04-13_05h15.10.080,PRaM,2021.2.3,Win32,58.93099181,61b8f3437b89212fae0dfadf
4,2.5551,space,0.8731,0,259,259,206,1,,,5e9fd839311b8018f88c99eb,643773017e62dbf187605310,2023-04-13_05h15.10.080,PRaM,2021.2.3,Win32,58.93099181,61b8f3437b89212fae0dfadf
3,3.8354,space,2.1077,0,260,260,253,1,,,5e9fd839311b8018f88c99eb,643773017e62dbf187605310,2023-04-13_05h15.10.080,PRaM,2021.2.3,Win32,58.93099181,61b8f3437b89212fae0dfadf
5,2.9241,space,1.3393,0,261,261,175,1,,,5e9fd839311b8018f88c99eb,643773017e62dbf187605310,2023-04-13_05h15.10.080,PRaM,2021.2.3,Win32,58.93099181,61b8f3437b89212fae0dfadf
3,2.6765,space,2.7195,0,262,262,268,1,,,5e9fd839311b8018f88c99eb,643773017e62dbf187605310,2023-04-13_05h15.10.080,PRaM,2021.2.3,Win32,58.93099181,61b8f3437b89212fae0dfadf
3,1.8102,space,0.2373,0,263,263,201,1,,,5e9fd839311b8018f88c99eb,643773017e62dbf187605310,2023-04-13_05h15.10.080,PRaM,2021.2.3,Win32,58.93099181,61b8f3437b89212fae0dfadf
4,14.5259,space,12.9454,0,264,264,26,1,,,5e9fd839311b8018f88c99eb,643773017e62dbf187605310,2023-04-13_05h15.10.080,PRaM,2021.2.3,Win32,58.93099181,61b8f3437b89212fae0dfadf
4,2.8229,space,1.269,0,265,265,129,1,,,5e9fd839311b8018f88c99eb,643773017e62dbf187605310,2023-04-13_05h15.10.080,PRaM,2021.2.3,Win32,58.93099181,61b8f3437b89212fae0dfadf
4,2.3897,space,0.7705,0,266,266,285,1,,,5e9fd839311b8018f88c99eb,643773017e62dbf187605310,2023-04-13_05h15.10.080,PRaM,2021.2.3,Win32,58.93099181,61b8f3437b89212fae0dfadf
3,2.8902,space,1.2694,0,267,267,338,1,,,5e9fd839311b8018f88c99eb,643773017e62dbf187605310,2023-04-13_05h15.10.080,PRaM,2021.2.3,Win32,58.93099181,61b8f3437b89212fae0dfadf
3,4.5306,space,2.9045,0,268,268,88,1,,,5e9fd839311b8018f88c99eb,643773017e62dbf187605310,2023-04-13_05h15.10.080,PRaM,2021.2.3,Win32,58.93099181,61b8f3437b89212fae0dfadf
8,5.1514,space,3.4775,0,269,269,242,1,,,5e9fd839311b8018f88c99eb,643773017e62dbf187605310,2023-04-13_05h15.10.080,PRaM,2021.2.3,Win32,58.93099181,61b8f3437b89212fae0dfadf
8,5.1253,space,3.4405,0,270,270,254,1,,,5e9fd839311b8018f88c99eb,643773017e62dbf187605310,2023-04-13_05h15.10.080,PRaM,2021.2.3,Win32,58.93099181,61b8f3437b89212fae0dfadf
6,2.3087,space,0.6858,0,271,271,52,1,,,5e9fd839311b8018f88c99eb,643773017e62dbf187605310,2023-04-13_05h15.10.080,PRaM,2021.2.3,Win32,58.93099181,61b8f3437b89212fae0dfadf
5,2.6517,space,0.9858,0,272,272,364,1,,,5e9fd839311b8018f88c99eb,643773017e62dbf187605310,2023-04-13_05h15.10.080,PRaM,2021.2.3,Win32,58.93099181,61b8f3437b89212fae0dfadf
8,3.4513,space,1.7831,0,273,273,202,1,,,5e9fd839311b8018f88c99eb,643773017e62dbf187605310,2023-04-13_05h15.10.080,PRaM,2021.2.3,Win32,58.93099181,61b8f3437b89212fae0dfadf
4,3.1214,space,1.4926,0,274,274,298,1,,,5e9fd839311b8018f88c99eb,643773017e62dbf187605310,2023-04-13_05h15.10.080,PRaM,2021.2.3,Win32,58.93099181,61b8f3437b89212fae0dfadf
2,2.9016,space,1.2356,0,275,275,312,1,,,5e9fd839311b8018f88c99eb,643773017e62dbf187605310,2023-04-13_05h15.10.080,PRaM,2021.2.3,Win32,58.93099181,61b8f3437b89212fae0dfadf
4,2.1878,space,0.511,0,276,276,317,1,,,5e9fd839311b8018f88c99eb,643773017e62dbf187605310,2023-04-13_05h15.10.080,PRaM,2021.2.3,Win32,58.93099181,61b8f3437b89212fae0dfadf
1,5.2345,space,4.1552,0,277,277,188,1,,,5e9fd839311b8018f88c99eb,643773017e62dbf187605310,2023-04-13_05h15.10.080,PRaM,2021.2.3,Win32,58.93099181,61b8f3437b89212fae0dfadf
7,3.8173,space,2.1231,0,278,278,173,1,,,5e9fd839311b8018f88c99eb,643773017e62dbf187605310,2023-04-13_05h15.10.080,PRaM,2021.2.3,Win32,58.93099181,61b8f3437b89212fae0dfadf
2,3.5138,space,1.819,0,279,279,214,1,,,5e9fd839311b8018f88c99eb,643773017e62dbf187605310,2023-04-13_05h15.10.080,PRaM,2021.2.3,Win32,58.93099181,61b8f3437b89212fae0dfadf
7,3.8991,space,2.2183,0,280,280,245,1,,,5e9fd839311b8018f88c99eb,643773017e62dbf187605310,2023-04-13_05h15.10.080,PRaM,2021.2.3,Win32,58.93099181,61b8f3437b89212fae0dfadf
2,5.1921,space,3.8871,0,281,281,106,1,,,5e9fd839311b8018f88c99eb,643773017e62dbf187605310,2023-04-13_05h15.10.080,PRaM,2021.2.3,Win32,58.93099181,61b8f3437b89212fae0dfadf
8,5.065,space,3.4162,0,282,282,244,1,,,5e9fd839311b8018f88c99eb,643773017e62dbf187605310,2023-04-13_05h15.10.080,PRaM,2021.2.3,Win32,58.93099181,61b8f3437b89212fae0dfadf
8,3.1833,space,1.5128,0,283,283,136,1,,,5e9fd839311b8018f88c99eb,643773017e62dbf187605310,2023-04-13_05h15.10.080,PRaM,2021.2.3,Win32,58.93099181,61b8f3437b89212fae0dfadf
9,4.8986,space,3.2497,0,284,284,105,1,,,5e9fd839311b8018f88c99eb,643773017e62dbf187605310,2023-04-13_05h15.10.080,PRaM,2021.2.3,Win32,58.93099181,61b8f3437b89212fae0dfadf
8,5.2554,space,3.57,0,285,285,84,1,,,5e9fd839311b8018f88c99eb,643773017e62dbf187605310,2023-04-13_05h15.10.080,PRaM,2021.2.3,Win32,58.93099181,61b8f3437b89212fae0dfadf
7,3.0536,space,1.3029,0,286,286,145,1,,,5e9fd839311b8018f88c99eb,643773017e62dbf187605310,2023-04-13_05h15.10.080,PRaM,2021.2.3,Win32,58.93099181,61b8f3437b89212fae0dfadf
6,4.7227,space,3.1034,0,287,287,257,1,,,5e9fd839311b8018f88c99eb,643773017e62dbf187605310,2023-04-13_05h15.10.080,PRaM,2021.2.3,Win32,58.93099181,61b8f3437b89212fae0dfadf
2,4.6266,space,2.9804,0,288,288,103,1,,,5e9fd839311b8018f88c99eb,643773017e62dbf187605310,2023-04-13_05h15.10.080,PRaM,2021.2.3,Win32,58.93099181,61b8f3437b89212fae0dfadf
8,3.9517,space,2.4076,0,289,289,270,1,,,5e9fd839311b8018f88c99eb,643773017e62dbf187605310,2023-04-13_05h15.10.080,PRaM,2021.2.3,Win32,58.93099181,61b8f3437b89212fae0dfadf
8,5.883,space,4.4861,0,290,290,152,1,,,5e9fd839311b8018f88c99eb,643773017e62dbf187605310,2023-04-13_05h15.10.080,PRaM,2021.2.3,Win32,58.93099181,61b8f3437b89212fae0dfadf
7,5.2342,space,3.7563,0,291,291,16,1,,,5e9fd839311b8018f88c99eb,643773017e62dbf187605310,2023-04-13_05h15.10.080,PRaM,2021.2.3,Win32,58.93099181,61b8f3437b89212fae0dfadf
8,3.9525,space,2.2849,0,292,292,60,1,,,5e9fd839311b8018f88c99eb,643773017e62dbf187605310,2023-04-13_05h15.10.080,PRaM,2021.2.3,Win32,58.93099181,61b8f3437b89212fae0dfadf
7,3.5788,space,1.9037,0,293,293,331,1,,,5e9fd839311b8018f88c99eb,643773017e62dbf187605310,2023-04-13_05h15.10.080,PRaM,2021.2.3,Win32,58.93099181,61b8f3437b89212fae0dfadf
8,3.0836,space,1.4338,0,294,294,114,1,,,5e9fd839311b8018f88c99eb,643773017e62dbf187605310,2023-04-13_05h15.10.080,PRaM,2021.2.3,Win32,58.93099181,61b8f3437b89212fae0dfadf
9,4.9877,space,3.3597,0,295,295,110,1,,,5e9fd839311b8018f88c99eb,643773017e62dbf187605310,2023-04-13_05h15.10.080,PRaM,2021.2.3,Win32,58.93099181,61b8f3437b89212fae0dfadf
2,3.822,space,2.1278,0,296,296,13,1,,,5e9fd839311b8018f88c99eb,643773017e62dbf187605310,2023-04-13_05h15.10.080,PRaM,2021.2.3,Win32,58.93099181,61b8f3437b89212fae0dfadf
6,3.2524,space,1.5292,0,297,297,125,1,,,5e9fd839311b8018f88c99eb,643773017e62dbf187605310,2023-04-13_05h15.10.080,PRaM,2021.2.3,Win32,58.93099181,61b8f3437b89212fae0dfadf
5,3.2671,space,1.6335,0,298,298,256,1,,,5e9fd839311b8018f88c99eb,643773017e62dbf187605310,2023-04-13_05h15.10.080,PRaM,2021.2.3,Win32,58.93099181,61b8f3437b89212fae0dfadf
5,2.9431,space,1.2543,0,299,299,321,1,,,5e9fd839311b8018f88c99eb,643773017e62dbf187605310,2023-04-13_05h15.10.080,PRaM,2021.2.3,Win32,58.93099181,61b8f3437b89212fae0dfadf
5,2.4891,space,0.8161,0,300,300,176,1,,,5e9fd839311b8018f88c99eb,643773017e62dbf187605310,2023-04-13_05h15.10.080,PRaM,2021.2.3,Win32,58.93099181,61b8f3437b89212fae0dfadf
4,4.4491,space,2.8029,0,301,301,223,1,,,5e9fd839311b8018f88c99eb,643773017e62dbf187605310,2023-04-13_05h15.10.080,PRaM,2021.2.3,Win32,58.93099181,61b8f3437b89212fae0dfadf
6,2.6393,space,1.0471,0,302,302,123,1,,,5e9fd839311b8018f88c99eb,643773017e62dbf187605310,2023-04-13_05h15.10.080,PRaM,2021.2.3,Win32,58.93099181,61b8f3437b89212fae0dfadf
3,3.6596,space,2.3113,0,303,303,300,1,,,5e9fd839311b8018f88c99eb,643773017e62dbf187605310,2023-04-13_05h15.10.080,PRaM,2021.2.3,Win32,58.93099181,61b8f3437b89212fae0dfadf
8,5.6516,space,4.0192,0,304,304,7,1,,,5e9fd839311b8018f88c99eb,643773017e62dbf187605310,2023-04-13_05h15.10.080,PRaM,2021.2.3,Win32,58.93099181,61b8f3437b89212fae0dfadf
8,4.3817,space,2.8493,0,305,305,64,1,,,5e9fd839311b8018f88c99eb,643773017e62dbf187605310,2023-04-13_05h15.10.080,PRaM,2021.2.3,Win32,58.93099181,61b8f3437b89212fae0dfadf
7,2.4733,space,0.8012,0,306,306,320,1,,,5e9fd839311b8018f88c99eb,643773017e62dbf187605310,2023-04-13_05h15.10.080,PRaM,2021.2.3,Win32,58.93099181,61b8f3437b89212fae0dfadf
2,3.4756,space,1.821,0,307,307,295,1,,,5e9fd839311b8018f88c99eb,643773017e62dbf187605310,2023-04-13_05h15.10.080,PRaM,2021.2.3,Win32,58.93099181,61b8f3437b89212fae0dfadf
6,2.9672,space,1.3118,0,308,308,251,1,,,5e9fd839311b8018f88c99eb,643773017e62dbf187605310,2023-04-13_05h15.10.080,PRaM,2021.2.3,Win32,58.93099181,61b8f3437b89212fae0dfadf
8,3.6258,space,1.9159,0,309,309,307,1,,,5e9fd839311b8018f88c99eb,643773017e62dbf187605310,2023-04-13_05h15.10.080,PRaM,2021.2.3,Win32,58.93099181,61b8f3437b89212fae0dfadf
6,2.7644,space,1.0715,0,310,310,171,1,,,5e9fd839311b8018f88c99eb,643773017e62dbf187605310,2023-04-13_05h15.10.080,PRaM,2021.2.3,Win32,58.93099181,61b8f3437b89212fae0dfadf
8,3.4054,space,1.7057,0,311,311,277,1,,,5e9fd839311b8018f88c99eb,643773017e62dbf187605310,2023-04-13_05h15.10.080,PRaM,2021.2.3,Win32,58.93099181,61b8f3437b89212fae0dfadf
3,4.6725,space,3.0161,0,312,312,58,1,,,5e9fd839311b8018f88c99eb,643773017e62dbf187605310,2023-04-13_05h15.10.080,PRaM,2021.2.3,Win32,58.93099181,61b8f3437b89212fae0dfadf
6,2.7527,space,1.0994,0,313,313,368,1,,,5e9fd839311b8018f88c99eb,643773017e62dbf187605310,2023-04-13_05h15.10.080,PRaM,2021.2.3,Win32,58.93099181,61b8f3437b89212fae0dfadf
7,3.0882,space,1.5189,0,314,314,186,1,,,5e9fd839311b8018f88c99eb,643773017e62dbf187605310,2023-04-13_05h15.10.080,PRaM,2021.2.3,Win32,58.93099181,61b8f3437b89212fae0dfadf
5,2.7935,space,1.2603,0,315,315,169,1,,,5e9fd839311b8018f88c99eb,643773017e62dbf187605310,2023-04-13_05h15.10.080,PRaM,2021.2.3,Win32,58.93099181,61b8f3437b89212fae0dfadf
6,3.8717,space,2.1201,0,316,316,153,1,,,5e9fd839311b8018f88c99eb,643773017e62dbf187605310,2023-04-13_05h15.10.080,PRaM,2021.2.3,Win32,58.93099181,61b8f3437b89212fae0dfadf
4,3.0761,space,1.4923,0,317,317,71,1,,,5e9fd839311b8018f88c99eb,643773017e62dbf187605310,2023-04-13_05h15.10.080,PRaM,2021.2.3,Win32,58.93099181,61b8f3437b89212fae0dfadf
3,4.423,space,2.9003,0,318,318,193,1,,,5e9fd839311b8018f88c99eb,643773017e62dbf187605310,2023-04-13_05h15.10.080,PRaM,2021.2.3,Win32,58.93099181,61b8f3437b89212fae0dfadf
4,2.4493,space,2.4202,0,319,319,366,1,,,5e9fd839311b8018f88c99eb,643773017e62dbf187605310,2023-04-13_05h15.10.080,PRaM,2021.2.3,Win32,58.93099181,61b8f3437b89212fae0dfadf
5,2.8271,space,1.1497,0,320,320,94,1,,,5e9fd839311b8018f88c99eb,643773017e62dbf187605310,2023-04-13_05h15.10.080,PRaM,2021.2.3,Win32,58.93099181,61b8f3437b89212fae0dfadf
8,3.9681,space,2.3839,0,321,321,288,1,,,5e9fd839311b8018f88c99eb,643773017e62dbf187605310,2023-04-13_05h15.10.080,PRaM,2021.2.3,Win32,58.93099181,61b8f3437b89212fae0dfadf
7,2.2678,space,0.6193,0,322,322,281,1,,,5e9fd839311b8018f88c99eb,643773017e62dbf187605310,2023-04-13_05h15.10.080,PRaM,2021.2.3,Win32,58.93099181,61b8f3437b89212fae0dfadf
6,2.5118,space,0.819,0,323,323,30,1,,,5e9fd839311b8018f88c99eb,643773017e62dbf187605310,2023-04-13_05h15.10.080,PRaM,2021.2.3,Win32,58.93099181,61b8f3437b89212fae0dfadf
8,2.7367,space,1.0842,0,324,324,296,1,,,5e9fd839311b8018f88c99eb,643773017e62dbf187605310,2023-04-13_05h15.10.080,PRaM,2021.2.3,Win32,58.93099181,61b8f3437b89212fae0dfadf
8,2.8522,space,1.1185,0,325,325,99,1,,,5e9fd839311b8018f88c99eb,643773017e62dbf187605310,2023-04-13_05h15.10.080,PRaM,2021.2.3,Win32,58.93099181,61b8f3437b89212fae0dfadf
9,4.7688,space,3.1519,0,326,326,350,1,,,5e9fd839311b8018f88c99eb,643773017e62dbf187605310,2023-04-13_05h15.10.080,PRaM,2021.2.3,Win32,58.93099181,61b8f3437b89212fae0dfadf
8,3.6137,space,1.9692,0,327,327,222,1,,,5e9fd839311b8018f88c99eb,643773017e62dbf187605310,2023-04-13_05h15.10.080,PRaM,2021.2.3,Win32,58.93099181,61b8f3437b89212fae0dfadf
8,3.4411,space,1.7855,0,328,328,112,1,,,5e9fd839311b8018f88c99eb,643773017e62dbf187605310,2023-04-13_05h15.10.080,PRaM,2021.2.3,Win32,58.93099181,61b8f3437b89212fae0dfadf
3,3.1349,space,1.468,0,329,329,262,1,,,5e9fd839311b8018f88c99eb,643773017e62dbf187605310,2023-04-13_05h15.10.080,PRaM,2021.2.3,Win32,58.93099181,61b8f3437b89212fae0dfadf
6,4.1709,space,2.5509,0,330,330,92,1,,,5e9fd839311b8018f88c99eb,643773017e62dbf187605310,2023-04-13_05h15.10.080,PRaM,2021.2.3,Win32,58.93099181,61b8f3437b89212fae0dfadf
3,3.258,space,1.6526,0,331,331,165,1,,,5e9fd839311b8018f88c99eb,643773017e62dbf187605310,2023-04-13_05h15.10.080,PRaM,2021.2.3,Win32,58.93099181,61b8f3437b89212fae0dfadf
6,3.3844,space,1.9879,0,332,332,15,1,,,5e9fd839311b8018f88c99eb,643773017e62dbf187605310,2023-04-13_05h15.10.080,PRaM,2021.2.3,Win32,58.93099181,61b8f3437b89212fae0dfadf
5,2.7684,space,1.5097,0,333,333,51,1,,,5e9fd839311b8018f88c99eb,643773017e62dbf187605310,2023-04-13_05h15.10.080,PRaM,2021.2.3,Win32,58.93099181,61b8f3437b89212fae0dfadf
4,2.6278,space,0.9527,0,334,334,170,1,,,5e9fd839311b8018f88c99eb,643773017e62dbf187605310,2023-04-13_05h15.10.080,PRaM,2021.2.3,Win32,58.93099181,61b8f3437b89212fae0dfadf
5,2.1779,space,0.4904,0,335,335,322,1,,,5e9fd839311b8018f88c99eb,643773017e62dbf187605310,2023-04-13_05h15.10.080,PRaM,2021.2.3,Win32,58.93099181,61b8f3437b89212fae0dfadf
4,3.2166,space,1.5167,0,336,336,375,1,,,5e9fd839311b8018f88c99eb,643773017e62dbf187605310,2023-04-13_05h15.10.080,PRaM,2021.2.3,Win32,58.93099181,61b8f3437b89212fae0dfadf
6,3.264,space,1.5233,0,337,337,252,1,,,5e9fd839311b8018f88c99eb,643773017e62dbf187605310,2023-04-13_05h15.10.080,PRaM,2021.2.3,Win32,58.93099181,61b8f3437b89212fae0dfadf
6,2.8455,space,1.1662,0,338,338,327,1,,,5e9fd839311b8018f88c99eb,643773017e62dbf187605310,2023-04-13_05h15.10.080,PRaM,2021.2.3,Win32,58.93099181,61b8f3437b89212fae0dfadf
4,3.8929,space,2.2198,0,339,339,68,1,,,5e9fd839311b8018f88c99eb,643773017e62dbf187605310,2023-04-13_05h15.10.080,PRaM,2021.2.3,Win32,58.93099181,61b8f3437b89212fae0dfadf
5,2.4845,space,0.7854,0,340,340,40,1,,,5e9fd839311b8018f88c99eb,643773017e62dbf187605310,2023-04-13_05h15.10.080,PRaM,2021.2.3,Win32,58.93099181,61b8f3437b89212fae0dfadf
6,2.7122,space,0.952,0,341,341,274,1,,,5e9fd839311b8018f88c99eb,643773017e62dbf187605310,2023-04-13_05h15.10.080,PRaM,2021.2.3,Win32,58.93099181,61b8f3437b89212fae0dfadf
7,3.0254,space,1.3863,0,342,342,98,1,,,5e9fd839311b8018f88c99eb,643773017e62dbf187605310,2023-04-13_05h15.10.080,PRaM,2021.2.3,Win32,58.93099181,61b8f3437b89212fae0dfadf
5,3.5276,space,2.3264,0,343,343,48,1,,,5e9fd839311b8018f88c99eb,643773017e62dbf187605310,2023-04-13_05h15.10.080,PRaM,2021.2.3,Win32,58.93099181,61b8f3437b89212fae0dfadf
4,7.5781,space,5.9221,0,344,344,283,1,,,5e9fd839311b8018f88c99eb,643773017e62dbf187605310,2023-04-13_05h15.10.080,PRaM,2021.2.3,Win32,58.93099181,61b8f3437b89212fae0dfadf
5,3.694,space,2.0205,0,345,345,46,1,,,5e9fd839311b8018f88c99eb,643773017e62dbf187605310,2023-04-13_05h15.10.080,PRaM,2021.2.3,Win32,58.93099181,61b8f3437b89212fae0dfadf
5,2.7174,space,1.1796,0,346,346,79,1,,,5e9fd839311b8018f88c99eb,643773017e62dbf187605310,2023-04-13_05h15.10.080,PRaM,2021.2.3,Win32,58.93099181,61b8f3437b89212fae0dfadf
2,2.9077,space,1.1858,0,347,347,63,1,,,5e9fd839311b8018f88c99eb,643773017e62dbf187605310,2023-04-13_05h15.10.080,PRaM,2021.2.3,Win32,58.93099181,61b8f3437b89212fae0dfadf
4,2.7946,space,1.0891,0,348,348,162,1,,,5e9fd839311b8018f88c99eb,643773017e62dbf187605310,2023-04-13_05h15.10.080,PRaM,2021.2.3,Win32,58.93099181,61b8f3437b89212fae0dfadf
5,2.4769,space,0.7166,0,349,349,101,1,,,5e9fd839311b8018f88c99eb,643773017e62dbf187605310,2023-04-13_05h15.10.080,PRaM,2021.2.3,Win32,58.93099181,61b8f3437b89212fae0dfadf
6,2.3666,space,0.6689,0,350,350,140,1,,,5e9fd839311b8018f88c99eb,643773017e62dbf187605310,2023-04-13_05h15.10.080,PRaM,2021.2.3,Win32,58.93099181,61b8f3437b89212fae0dfadf
5,2.5119,space,0.803,0,351,351,184,1,,,5e9fd839311b8018f88c99eb,643773017e62dbf187605310,2023-04-13_05h15.10.080,PRaM,2021.2.3,Win32,58.93099181,61b8f3437b89212fae0dfadf
5,2.2685,space,0.5457,0,352,352,35,1,,,5e9fd839311b8018f88c99eb,643773017e62dbf187605310,2023-04-13_05h15.10.080,PRaM,2021.2.3,Win32,58.93099181,61b8f3437b89212fae0dfadf
6,2.5011,space,1.5192,0,353,353,167,1,,,5e9fd839311b8018f88c99eb,643773017e62dbf187605310,2023-04-13_05h15.10.080,PRaM,2021.2.3,Win32,58.93099181,61b8f3437b89212fae0dfadf
5,1.926,space,0.3339,0,354,354,93,1,,,5e9fd839311b8018f88c99eb,643773017e62dbf187605310,2023-04-13_05h15.10.080,PRaM,2021.2.3,Win32,58.93099181,61b8f3437b89212fae0dfadf
8,3.5138,space,3.7877,0,355,355,297,1,,,5e9fd839311b8018f88c99eb,643773017e62dbf187605310,2023-04-13_05h15.10.080,PRaM,2021.2.3,Win32,58.93099181,61b8f3437b89212fae0dfadf
8,3.8369,space,2.2695,0,356,356,319,1,,,5e9fd839311b8018f88c99eb,643773017e62dbf187605310,2023-04-13_05h15.10.080,PRaM,2021.2.3,Win32,58.93099181,61b8f3437b89212fae0dfadf
6,2.4448,space,0.8018,0,357,357,272,1,,,5e9fd839311b8018f88c99eb,643773017e62dbf187605310,2023-04-13_05h15.10.080,PRaM,2021.2.3,Win32,58.93099181,61b8f3437b89212fae0dfadf
6,2.8449,space,1.3171,0,358,358,354,1,,,5e9fd839311b8018f88c99eb,643773017e62dbf187605310,2023-04-13_05h15.10.080,PRaM,2021.2.3,Win32,58.93099181,61b8f3437b89212fae0dfadf
5,3.8018,space,2.3644,0,359,359,177,1,,,5e9fd839311b8018f88c99eb,643773017e62dbf187605310,2023-04-13_05h15.10.080,PRaM,2021.2.3,Win32,58.93099181,61b8f3437b89212fae0dfadf
7,2.8327,space,1.2558,0,360,360,159,1,,,5e9fd839311b8018f88c99eb,643773017e62dbf187605310,2023-04-13_05h15.10.080,PRaM,2021.2.3,Win32,58.93099181,61b8f3437b89212fae0dfadf
6,2.1686,space,0.6022,0,361,361,236,1,,,5e9fd839311b8018f88c99eb,643773017e62dbf187605310,2023-04-13_05h15.10.080,PRaM,2021.2.3,Win32,58.93099181,61b8f3437b89212fae0dfadf
7,4.3861,space,2.7707,0,362,362,213,1,,,5e9fd839311b8018f88c99eb,643773017e62dbf187605310,2023-04-13_05h15.10.080,PRaM,2021.2.3,Win32,58.93099181,61b8f3437b89212fae0dfadf
6,1.9866,space,0.369,0,363,363,373,1,,,5e9fd839311b8018f88c99eb,643773017e62dbf187605310,2023-04-13_05h15.10.080,PRaM,2021.2.3,Win32,58.93099181,61b8f3437b89212fae0dfadf
7,2.8653,space,1.2329,0,364,364,45,1,,,5e9fd839311b8018f88c99eb,643773017e62dbf187605310,2023-04-13_05h15.10.080,PRaM,2021.2.3,Win32,58.93099181,61b8f3437b89212fae0dfadf
5,1.9011,space,0.2696,0,365,365,83,1,,,5e9fd839311b8018f88c99eb,643773017e62dbf187605310,2023-04-13_05h15.10.080,PRaM,2021.2.3,Win32,58.93099181,61b8f3437b89212fae0dfadf
8,2.769,space,1.1712,0,366,366,53,1,,,5e9fd839311b8018f88c99eb,643773017e62dbf187605310,2023-04-13_05h15.10.080,PRaM,2021.2.3,Win32,58.93099181,61b8f3437b89212fae0dfadf
7,3.1935,space,1.5324,0,367,367,358,1,,,5e9fd839311b8018f88c99eb,643773017e62dbf187605310,2023-04-13_05h15.10.080,PRaM,2021.2.3,Win32,58.93099181,61b8f3437b89212fae0dfadf
3,3.7932,space,2.1412,0,368,368,111,1,,,5e9fd839311b8018f88c99eb,643773017e62dbf187605310,2023-04-13_05h15.10.080,PRaM,2021.2.3,Win32,58.93099181,61b8f3437b89212fae0dfadf
4,2.3749,space,0.6722,0,369,369,122,1,,,5e9fd839311b8018f88c99eb,643773017e62dbf187605310,2023-04-13_05h15.10.080,PRaM,2021.2.3,Win32,58.93099181,61b8f3437b89212fae0dfadf
4,2.5678,space,0.9355,0,370,370,316,1,,,5e9fd839311b8018f88c99eb,643773017e62dbf187605310,2023-04-13_05h15.10.080,PRaM,2021.2.3,Win32,58.93099181,61b8f3437b89212fae0dfadf
4,2.5683,space,0.9188,0,371,371,78,1,,,5e9fd839311b8018f88c99eb,643773017e62dbf187605310,2023-04-13_05h15.10.080,PRaM,2021.2.3,Win32,58.93099181,61b8f3437b89212fae0dfadf
5,3.8556,space,1.969,0,372,372,333,1,,,5e9fd839311b8018f88c99eb,643773017e62dbf187605310,2023-04-13_05h15.10.080,PRaM,2021.2.3,Win32,58.93099181,61b8f3437b89212fae0dfadf
2,5.3863,space,3.7872,0,373,373,229,1,,,5e9fd839311b8018f88c99eb,643773017e62dbf187605310,2023-04-13_05h15.10.080,PRaM,2021.2.3,Win32,58.93099181,61b8f3437b89212fae0dfadf
9,6.0694,space,4.394,0,374,374,137,1,,,5e9fd839311b8018f88c99eb,643773017e62dbf187605310,2023-04-13_05h15.10.080,PRaM,2021.2.3,Win32,58.93099181,61b8f3437b89212fae0dfadf
8,3.7156,space,2.0781,0,375,375,4,1,,,5e9fd839311b8018f88c99eb,643773017e62dbf187605310,2023-04-13_05h15.10.080,PRaM,2021.2.3,Win32,58.93099181,61b8f3437b89212fae0dfadf
5,4.8342,space,3.1866,0,376,376,261,1,,,5e9fd839311b8018f88c99eb,643773017e62dbf187605310,2023-04-13_05h15.10.080,PRaM,2021.2.3,Win32,58.93099181,61b8f3437b89212fae0dfadf
3,2.9133,space,1.3102,0,377,377,82,1,,,5e9fd839311b8018f88c99eb,643773017e62dbf187605310,2023-04-13_05h15.10.080,PRaM,2021.2.3,Win32,58.93099181,61b8f3437b89212fae0dfadf
