Rating.response,Rating.rt,EndTrial.keys,EndTrial.rt,trials.thisRepN,trials.thisTrialN,trials.thisN,trials.thisIndex,trials.ran,Pos1,Pos2,participant,session,date,expName,psychopyVersion,OS,frameRate,study_id
1,13.7117,space,14.6708,0,0,0,361,1,,,5eab2dbd0c7a950efa32c3dc,64391619fac2e454df50b468,2023-04-14_10h10.41.585,PRaM,2021.2.3,Win32,59.92329818,61b8f3437b89212fae0dfadf
6,9.0742,space,7.9053,0,1,1,239,1,,,5eab2dbd0c7a950efa32c3dc,64391619fac2e454df50b468,2023-04-14_10h10.41.585,PRaM,2021.2.3,Win32,59.92329818,61b8f3437b89212fae0dfadf
1,5.1485,space,4.3343,0,2,2,368,1,,,5eab2dbd0c7a950efa32c3dc,64391619fac2e454df50b468,2023-04-14_10h10.41.585,PRaM,2021.2.3,Win32,59.92329818,61b8f3437b89212fae0dfadf
4,4.2769,space,2.7865,0,3,3,216,1,,,5eab2dbd0c7a950efa32c3dc,64391619fac2e454df50b468,2023-04-14_10h10.41.585,PRaM,2021.2.3,Win32,59.92329818,61b8f3437b89212fae0dfadf
5,8.5042,space,6.9206,0,4,4,259,1,,,5eab2dbd0c7a950efa32c3dc,64391619fac2e454df50b468,2023-04-14_10h10.41.585,PRaM,2021.2.3,Win32,59.92329818,61b8f3437b89212fae0dfadf
1,3.8484,space,2.4167,0,5,5,9,1,,,5eab2dbd0c7a950efa32c3dc,64391619fac2e454df50b468,2023-04-14_10h10.41.585,PRaM,2021.2.3,Win32,59.92329818,61b8f3437b89212fae0dfadf
1,6.0601,space,4.3232,0,6,6,203,1,,,5eab2dbd0c7a950efa32c3dc,64391619fac2e454df50b468,2023-04-14_10h10.41.585,PRaM,2021.2.3,Win32,59.92329818,61b8f3437b89212fae0dfadf
6,4.6634,space,4.0492,0,7,7,174,1,,,5eab2dbd0c7a950efa32c3dc,64391619fac2e454df50b468,2023-04-14_10h10.41.585,PRaM,2021.2.3,Win32,59.92329818,61b8f3437b89212fae0dfadf
3,48.2879,space,46.8882,0,8,8,29,1,,,5eab2dbd0c7a950efa32c3dc,64391619fac2e454df50b468,2023-04-14_10h10.41.585,PRaM,2021.2.3,Win32,59.92329818,61b8f3437b89212fae0dfadf
4,6.8626,space,5.4379,0,9,9,191,1,,,5eab2dbd0c7a950efa32c3dc,64391619fac2e454df50b468,2023-04-14_10h10.41.585,PRaM,2021.2.3,Win32,59.92329818,61b8f3437b89212fae0dfadf
6,3.6387,space,2.5178,0,10,10,154,1,,,5eab2dbd0c7a950efa32c3dc,64391619fac2e454df50b468,2023-04-14_10h10.41.585,PRaM,2021.2.3,Win32,59.92329818,61b8f3437b89212fae0dfadf
2,3.5094,space,1.8759,0,11,11,309,1,,,5eab2dbd0c7a950efa32c3dc,64391619fac2e454df50b468,2023-04-14_10h10.41.585,PRaM,2021.2.3,Win32,59.92329818,61b8f3437b89212fae0dfadf
7,5.1092,space,3.4867,0,12,12,118,1,,,5eab2dbd0c7a950efa32c3dc,64391619fac2e454df50b468,2023-04-14_10h10.41.585,PRaM,2021.2.3,Win32,59.92329818,61b8f3437b89212fae0dfadf
7,2.8541,space,1.2952,0,13,13,38,1,,,5eab2dbd0c7a950efa32c3dc,64391619fac2e454df50b468,2023-04-14_10h10.41.585,PRaM,2021.2.3,Win32,59.92329818,61b8f3437b89212fae0dfadf
7,4.1836,space,2.7429,0,14,14,99,1,,,5eab2dbd0c7a950efa32c3dc,64391619fac2e454df50b468,2023-04-14_10h10.41.585,PRaM,2021.2.3,Win32,59.92329818,61b8f3437b89212fae0dfadf
7,6.2255,space,4.6733,0,15,15,242,1,,,5eab2dbd0c7a950efa32c3dc,64391619fac2e454df50b468,2023-04-14_10h10.41.585,PRaM,2021.2.3,Win32,59.92329818,61b8f3437b89212fae0dfadf
2,38.6911,space,37.2908,0,16,16,321,1,,,5eab2dbd0c7a950efa32c3dc,64391619fac2e454df50b468,2023-04-14_10h10.41.585,PRaM,2021.2.3,Win32,59.92329818,61b8f3437b89212fae0dfadf
6,3.0071,space,1.4572,0,17,17,186,1,,,5eab2dbd0c7a950efa32c3dc,64391619fac2e454df50b468,2023-04-14_10h10.41.585,PRaM,2021.2.3,Win32,59.92329818,61b8f3437b89212fae0dfadf
4,3.7763,space,2.1073,0,18,18,143,1,,,5eab2dbd0c7a950efa32c3dc,64391619fac2e454df50b468,2023-04-14_10h10.41.585,PRaM,2021.2.3,Win32,59.92329818,61b8f3437b89212fae0dfadf
5,5.0415,space,3.4119,0,19,19,205,1,,,5eab2dbd0c7a950efa32c3dc,64391619fac2e454df50b468,2023-04-14_10h10.41.585,PRaM,2021.2.3,Win32,59.92329818,61b8f3437b89212fae0dfadf
6,10.2098,space,8.8523,0,20,20,156,1,,,5eab2dbd0c7a950efa32c3dc,64391619fac2e454df50b468,2023-04-14_10h10.41.585,PRaM,2021.2.3,Win32,59.92329818,61b8f3437b89212fae0dfadf
4,5.1463,space,3.4426,0,21,21,194,1,,,5eab2dbd0c7a950efa32c3dc,64391619fac2e454df50b468,2023-04-14_10h10.41.585,PRaM,2021.2.3,Win32,59.92329818,61b8f3437b89212fae0dfadf
2,2.9705,space,1.3655,0,22,22,55,1,,,5eab2dbd0c7a950efa32c3dc,64391619fac2e454df50b468,2023-04-14_10h10.41.585,PRaM,2021.2.3,Win32,59.92329818,61b8f3437b89212fae0dfadf
2,4.6858,space,2.9267,0,23,23,57,1,,,5eab2dbd0c7a950efa32c3dc,64391619fac2e454df50b468,2023-04-14_10h10.41.585,PRaM,2021.2.3,Win32,59.92329818,61b8f3437b89212fae0dfadf
1,3.9192,space,2.41,0,24,24,315,1,,,5eab2dbd0c7a950efa32c3dc,64391619fac2e454df50b468,2023-04-14_10h10.41.585,PRaM,2021.2.3,Win32,59.92329818,61b8f3437b89212fae0dfadf
3,10.0043,space,8.5769,0,25,25,217,1,,,5eab2dbd0c7a950efa32c3dc,64391619fac2e454df50b468,2023-04-14_10h10.41.585,PRaM,2021.2.3,Win32,59.92329818,61b8f3437b89212fae0dfadf
5,5.77,space,3.909,0,26,26,33,1,,,5eab2dbd0c7a950efa32c3dc,64391619fac2e454df50b468,2023-04-14_10h10.41.585,PRaM,2021.2.3,Win32,59.92329818,61b8f3437b89212fae0dfadf
1,3.404,space,2.0201,0,27,27,113,1,,,5eab2dbd0c7a950efa32c3dc,64391619fac2e454df50b468,2023-04-14_10h10.41.585,PRaM,2021.2.3,Win32,59.92329818,61b8f3437b89212fae0dfadf
6,6.5917,space,4.8994,0,28,28,295,1,,,5eab2dbd0c7a950efa32c3dc,64391619fac2e454df50b468,2023-04-14_10h10.41.585,PRaM,2021.2.3,Win32,59.92329818,61b8f3437b89212fae0dfadf
3,8.1434,space,6.4524,0,29,29,238,1,,,5eab2dbd0c7a950efa32c3dc,64391619fac2e454df50b468,2023-04-14_10h10.41.585,PRaM,2021.2.3,Win32,59.92329818,61b8f3437b89212fae0dfadf
4,16.6603,space,15.2318,0,30,30,172,1,,,5eab2dbd0c7a950efa32c3dc,64391619fac2e454df50b468,2023-04-14_10h10.41.585,PRaM,2021.2.3,Win32,59.92329818,61b8f3437b89212fae0dfadf
3,13.7301,space,13.9764,0,31,31,34,1,,,5eab2dbd0c7a950efa32c3dc,64391619fac2e454df50b468,2023-04-14_10h10.41.585,PRaM,2021.2.3,Win32,59.92329818,61b8f3437b89212fae0dfadf
2,4.0606,space,2.3051,0,32,32,253,1,,,5eab2dbd0c7a950efa32c3dc,64391619fac2e454df50b468,2023-04-14_10h10.41.585,PRaM,2021.2.3,Win32,59.92329818,61b8f3437b89212fae0dfadf
5,3.4208,space,1.5693,0,33,33,311,1,,,5eab2dbd0c7a950efa32c3dc,64391619fac2e454df50b468,2023-04-14_10h10.41.585,PRaM,2021.2.3,Win32,59.92329818,61b8f3437b89212fae0dfadf
8,3.2454,space,1.5508,0,34,34,280,1,,,5eab2dbd0c7a950efa32c3dc,64391619fac2e454df50b468,2023-04-14_10h10.41.585,PRaM,2021.2.3,Win32,59.92329818,61b8f3437b89212fae0dfadf
9,2.4939,space,0.8048,0,35,35,17,1,,,5eab2dbd0c7a950efa32c3dc,64391619fac2e454df50b468,2023-04-14_10h10.41.585,PRaM,2021.2.3,Win32,59.92329818,61b8f3437b89212fae0dfadf
1,7.1978,space,5.4601,0,36,36,330,1,,,5eab2dbd0c7a950efa32c3dc,64391619fac2e454df50b468,2023-04-14_10h10.41.585,PRaM,2021.2.3,Win32,59.92329818,61b8f3437b89212fae0dfadf
2,10.3926,space,8.6746,0,37,37,170,1,,,5eab2dbd0c7a950efa32c3dc,64391619fac2e454df50b468,2023-04-14_10h10.41.585,PRaM,2021.2.3,Win32,59.92329818,61b8f3437b89212fae0dfadf
9,5.1571,space,3.5588,0,38,38,20,1,,,5eab2dbd0c7a950efa32c3dc,64391619fac2e454df50b468,2023-04-14_10h10.41.585,PRaM,2021.2.3,Win32,59.92329818,61b8f3437b89212fae0dfadf
8,3.4764,space,1.8736,0,39,39,366,1,,,5eab2dbd0c7a950efa32c3dc,64391619fac2e454df50b468,2023-04-14_10h10.41.585,PRaM,2021.2.3,Win32,59.92329818,61b8f3437b89212fae0dfadf
2,4.7401,space,3.0489,0,40,40,329,1,,,5eab2dbd0c7a950efa32c3dc,64391619fac2e454df50b468,2023-04-14_10h10.41.585,PRaM,2021.2.3,Win32,59.92329818,61b8f3437b89212fae0dfadf
2,4.2595,space,2.5648,0,41,41,133,1,,,5eab2dbd0c7a950efa32c3dc,64391619fac2e454df50b468,2023-04-14_10h10.41.585,PRaM,2021.2.3,Win32,59.92329818,61b8f3437b89212fae0dfadf
7,4.3619,space,2.6853,0,42,42,372,1,,,5eab2dbd0c7a950efa32c3dc,64391619fac2e454df50b468,2023-04-14_10h10.41.585,PRaM,2021.2.3,Win32,59.92329818,61b8f3437b89212fae0dfadf
3,4.7593,space,3.0543,0,43,43,81,1,,,5eab2dbd0c7a950efa32c3dc,64391619fac2e454df50b468,2023-04-14_10h10.41.585,PRaM,2021.2.3,Win32,59.92329818,61b8f3437b89212fae0dfadf
6,3.5772,space,1.8857,0,44,44,112,1,,,5eab2dbd0c7a950efa32c3dc,64391619fac2e454df50b468,2023-04-14_10h10.41.585,PRaM,2021.2.3,Win32,59.92329818,61b8f3437b89212fae0dfadf
6,5.9571,space,4.2921,0,45,45,236,1,,,5eab2dbd0c7a950efa32c3dc,64391619fac2e454df50b468,2023-04-14_10h10.41.585,PRaM,2021.2.3,Win32,59.92329818,61b8f3437b89212fae0dfadf
3,10.6666,space,9.5106,0,46,46,18,1,,,5eab2dbd0c7a950efa32c3dc,64391619fac2e454df50b468,2023-04-14_10h10.41.585,PRaM,2021.2.3,Win32,59.92329818,61b8f3437b89212fae0dfadf
7,6.3737,space,4.9238,0,47,47,166,1,,,5eab2dbd0c7a950efa32c3dc,64391619fac2e454df50b468,2023-04-14_10h10.41.585,PRaM,2021.2.3,Win32,59.92329818,61b8f3437b89212fae0dfadf
5,10.7403,space,9.4022,0,48,48,169,1,,,5eab2dbd0c7a950efa32c3dc,64391619fac2e454df50b468,2023-04-14_10h10.41.585,PRaM,2021.2.3,Win32,59.92329818,61b8f3437b89212fae0dfadf
3,4.5925,space,3.2509,0,49,49,58,1,,,5eab2dbd0c7a950efa32c3dc,64391619fac2e454df50b468,2023-04-14_10h10.41.585,PRaM,2021.2.3,Win32,59.92329818,61b8f3437b89212fae0dfadf
6,6.8938,space,5.1385,0,50,50,119,1,,,5eab2dbd0c7a950efa32c3dc,64391619fac2e454df50b468,2023-04-14_10h10.41.585,PRaM,2021.2.3,Win32,59.92329818,61b8f3437b89212fae0dfadf
5,9.4168,space,7.6713,0,51,51,44,1,,,5eab2dbd0c7a950efa32c3dc,64391619fac2e454df50b468,2023-04-14_10h10.41.585,PRaM,2021.2.3,Win32,59.92329818,61b8f3437b89212fae0dfadf
1,3.5872,space,2.5621,0,52,52,106,1,,,5eab2dbd0c7a950efa32c3dc,64391619fac2e454df50b468,2023-04-14_10h10.41.585,PRaM,2021.2.3,Win32,59.92329818,61b8f3437b89212fae0dfadf
1,2.4541,space,0.7683,0,53,53,375,1,,,5eab2dbd0c7a950efa32c3dc,64391619fac2e454df50b468,2023-04-14_10h10.41.585,PRaM,2021.2.3,Win32,59.92329818,61b8f3437b89212fae0dfadf
,,space,6.8126,0,54,54,184,1,,,5eab2dbd0c7a950efa32c3dc,64391619fac2e454df50b468,2023-04-14_10h10.41.585,PRaM,2021.2.3,Win32,59.92329818,61b8f3437b89212fae0dfadf
1,6.297,space,4.972,0,55,55,284,1,,,5eab2dbd0c7a950efa32c3dc,64391619fac2e454df50b468,2023-04-14_10h10.41.585,PRaM,2021.2.3,Win32,59.92329818,61b8f3437b89212fae0dfadf
2,13.8532,space,12.2511,0,56,56,163,1,,,5eab2dbd0c7a950efa32c3dc,64391619fac2e454df50b468,2023-04-14_10h10.41.585,PRaM,2021.2.3,Win32,59.92329818,61b8f3437b89212fae0dfadf
8,6.6412,space,5.0671,0,57,57,59,1,,,5eab2dbd0c7a950efa32c3dc,64391619fac2e454df50b468,2023-04-14_10h10.41.585,PRaM,2021.2.3,Win32,59.92329818,61b8f3437b89212fae0dfadf
3,12.7092,space,11.335,0,58,58,35,1,,,5eab2dbd0c7a950efa32c3dc,64391619fac2e454df50b468,2023-04-14_10h10.41.585,PRaM,2021.2.3,Win32,59.92329818,61b8f3437b89212fae0dfadf
8,3.4404,space,2.0255,0,59,59,222,1,,,5eab2dbd0c7a950efa32c3dc,64391619fac2e454df50b468,2023-04-14_10h10.41.585,PRaM,2021.2.3,Win32,59.92329818,61b8f3437b89212fae0dfadf
2,106.9125,space,105.4367,0,60,60,95,1,,,5eab2dbd0c7a950efa32c3dc,64391619fac2e454df50b468,2023-04-14_10h10.41.585,PRaM,2021.2.3,Win32,59.92329818,61b8f3437b89212fae0dfadf
6,3.9907,space,2.2899,0,61,61,343,1,,,5eab2dbd0c7a950efa32c3dc,64391619fac2e454df50b468,2023-04-14_10h10.41.585,PRaM,2021.2.3,Win32,59.92329818,61b8f3437b89212fae0dfadf
6,3.869,space,2.0344,0,62,62,369,1,,,5eab2dbd0c7a950efa32c3dc,64391619fac2e454df50b468,2023-04-14_10h10.41.585,PRaM,2021.2.3,Win32,59.92329818,61b8f3437b89212fae0dfadf
1,5.2095,space,3.5056,0,63,63,243,1,,,5eab2dbd0c7a950efa32c3dc,64391619fac2e454df50b468,2023-04-14_10h10.41.585,PRaM,2021.2.3,Win32,59.92329818,61b8f3437b89212fae0dfadf
6,3.7175,space,1.917,0,64,64,230,1,,,5eab2dbd0c7a950efa32c3dc,64391619fac2e454df50b468,2023-04-14_10h10.41.585,PRaM,2021.2.3,Win32,59.92329818,61b8f3437b89212fae0dfadf
4,4.5044,space,2.8449,0,65,65,52,1,,,5eab2dbd0c7a950efa32c3dc,64391619fac2e454df50b468,2023-04-14_10h10.41.585,PRaM,2021.2.3,Win32,59.92329818,61b8f3437b89212fae0dfadf
,,space,3.3604,0,66,66,23,1,,,5eab2dbd0c7a950efa32c3dc,64391619fac2e454df50b468,2023-04-14_10h10.41.585,PRaM,2021.2.3,Win32,59.92329818,61b8f3437b89212fae0dfadf
1,4.7317,space,3.6842,0,67,67,283,1,,,5eab2dbd0c7a950efa32c3dc,64391619fac2e454df50b468,2023-04-14_10h10.41.585,PRaM,2021.2.3,Win32,59.92329818,61b8f3437b89212fae0dfadf
4,6.9522,space,5.39,0,68,68,272,1,,,5eab2dbd0c7a950efa32c3dc,64391619fac2e454df50b468,2023-04-14_10h10.41.585,PRaM,2021.2.3,Win32,59.92329818,61b8f3437b89212fae0dfadf
7,3.3018,space,1.7511,0,69,69,85,1,,,5eab2dbd0c7a950efa32c3dc,64391619fac2e454df50b468,2023-04-14_10h10.41.585,PRaM,2021.2.3,Win32,59.92329818,61b8f3437b89212fae0dfadf
6,30.4526,space,28.9397,0,70,70,180,1,,,5eab2dbd0c7a950efa32c3dc,64391619fac2e454df50b468,2023-04-14_10h10.41.585,PRaM,2021.2.3,Win32,59.92329818,61b8f3437b89212fae0dfadf
6,3.3886,space,1.6388,0,71,71,164,1,,,5eab2dbd0c7a950efa32c3dc,64391619fac2e454df50b468,2023-04-14_10h10.41.585,PRaM,2021.2.3,Win32,59.92329818,61b8f3437b89212fae0dfadf
3,3.6859,space,2.0307,0,72,72,157,1,,,5eab2dbd0c7a950efa32c3dc,64391619fac2e454df50b468,2023-04-14_10h10.41.585,PRaM,2021.2.3,Win32,59.92329818,61b8f3437b89212fae0dfadf
1,3.1037,space,1.6242,0,73,73,218,1,,,5eab2dbd0c7a950efa32c3dc,64391619fac2e454df50b468,2023-04-14_10h10.41.585,PRaM,2021.2.3,Win32,59.92329818,61b8f3437b89212fae0dfadf
6,5.5239,space,4.0673,0,74,74,100,1,,,5eab2dbd0c7a950efa32c3dc,64391619fac2e454df50b468,2023-04-14_10h10.41.585,PRaM,2021.2.3,Win32,59.92329818,61b8f3437b89212fae0dfadf
6,3.8651,space,2.5177,0,75,75,219,1,,,5eab2dbd0c7a950efa32c3dc,64391619fac2e454df50b468,2023-04-14_10h10.41.585,PRaM,2021.2.3,Win32,59.92329818,61b8f3437b89212fae0dfadf
6,3.9967,space,2.3245,0,76,76,31,1,,,5eab2dbd0c7a950efa32c3dc,64391619fac2e454df50b468,2023-04-14_10h10.41.585,PRaM,2021.2.3,Win32,59.92329818,61b8f3437b89212fae0dfadf
4,3.1702,space,1.5567,0,77,77,70,1,,,5eab2dbd0c7a950efa32c3dc,64391619fac2e454df50b468,2023-04-14_10h10.41.585,PRaM,2021.2.3,Win32,59.92329818,61b8f3437b89212fae0dfadf
6,3.7255,space,2.051,0,78,78,168,1,,,5eab2dbd0c7a950efa32c3dc,64391619fac2e454df50b468,2023-04-14_10h10.41.585,PRaM,2021.2.3,Win32,59.92329818,61b8f3437b89212fae0dfadf
6,2.8803,space,6.1176,0,79,79,147,1,,,5eab2dbd0c7a950efa32c3dc,64391619fac2e454df50b468,2023-04-14_10h10.41.585,PRaM,2021.2.3,Win32,59.92329818,61b8f3437b89212fae0dfadf
1,5.4226,space,3.956,0,80,80,210,1,,,5eab2dbd0c7a950efa32c3dc,64391619fac2e454df50b468,2023-04-14_10h10.41.585,PRaM,2021.2.3,Win32,59.92329818,61b8f3437b89212fae0dfadf
7,4.7708,space,3.1177,0,81,81,357,1,,,5eab2dbd0c7a950efa32c3dc,64391619fac2e454df50b468,2023-04-14_10h10.41.585,PRaM,2021.2.3,Win32,59.92329818,61b8f3437b89212fae0dfadf
7,3.3846,space,1.7758,0,82,82,76,1,,,5eab2dbd0c7a950efa32c3dc,64391619fac2e454df50b468,2023-04-14_10h10.41.585,PRaM,2021.2.3,Win32,59.92329818,61b8f3437b89212fae0dfadf
1,4.6638,space,2.9866,0,83,83,312,1,,,5eab2dbd0c7a950efa32c3dc,64391619fac2e454df50b468,2023-04-14_10h10.41.585,PRaM,2021.2.3,Win32,59.92329818,61b8f3437b89212fae0dfadf
1,2.9774,space,1.5838,0,84,84,125,1,,,5eab2dbd0c7a950efa32c3dc,64391619fac2e454df50b468,2023-04-14_10h10.41.585,PRaM,2021.2.3,Win32,59.92329818,61b8f3437b89212fae0dfadf
8,8.7115,space,9.0452,0,85,85,60,1,,,5eab2dbd0c7a950efa32c3dc,64391619fac2e454df50b468,2023-04-14_10h10.41.585,PRaM,2021.2.3,Win32,59.92329818,61b8f3437b89212fae0dfadf
3,4.6719,space,3.0107,0,86,86,74,1,,,5eab2dbd0c7a950efa32c3dc,64391619fac2e454df50b468,2023-04-14_10h10.41.585,PRaM,2021.2.3,Win32,59.92329818,61b8f3437b89212fae0dfadf
2,6.2673,space,4.6295,0,87,87,183,1,,,5eab2dbd0c7a950efa32c3dc,64391619fac2e454df50b468,2023-04-14_10h10.41.585,PRaM,2021.2.3,Win32,59.92329818,61b8f3437b89212fae0dfadf
4,4.4391,space,2.7839,0,88,88,4,1,,,5eab2dbd0c7a950efa32c3dc,64391619fac2e454df50b468,2023-04-14_10h10.41.585,PRaM,2021.2.3,Win32,59.92329818,61b8f3437b89212fae0dfadf
2,6.2873,space,4.6735,0,89,89,353,1,,,5eab2dbd0c7a950efa32c3dc,64391619fac2e454df50b468,2023-04-14_10h10.41.585,PRaM,2021.2.3,Win32,59.92329818,61b8f3437b89212fae0dfadf
6,3.4002,space,1.7512,0,90,90,165,1,,,5eab2dbd0c7a950efa32c3dc,64391619fac2e454df50b468,2023-04-14_10h10.41.585,PRaM,2021.2.3,Win32,59.92329818,61b8f3437b89212fae0dfadf
7,5.9022,space,4.2749,0,91,91,278,1,,,5eab2dbd0c7a950efa32c3dc,64391619fac2e454df50b468,2023-04-14_10h10.41.585,PRaM,2021.2.3,Win32,59.92329818,61b8f3437b89212fae0dfadf
7,2.0969,space,0.434,0,92,92,324,1,,,5eab2dbd0c7a950efa32c3dc,64391619fac2e454df50b468,2023-04-14_10h10.41.585,PRaM,2021.2.3,Win32,59.92329818,61b8f3437b89212fae0dfadf
1,6.8149,space,5.5089,0,93,93,227,1,,,5eab2dbd0c7a950efa32c3dc,64391619fac2e454df50b468,2023-04-14_10h10.41.585,PRaM,2021.2.3,Win32,59.92329818,61b8f3437b89212fae0dfadf
5,15.6772,space,14.3278,0,94,94,146,1,,,5eab2dbd0c7a950efa32c3dc,64391619fac2e454df50b468,2023-04-14_10h10.41.585,PRaM,2021.2.3,Win32,59.92329818,61b8f3437b89212fae0dfadf
1,9.2888,space,7.8513,0,95,95,251,1,,,5eab2dbd0c7a950efa32c3dc,64391619fac2e454df50b468,2023-04-14_10h10.41.585,PRaM,2021.2.3,Win32,59.92329818,61b8f3437b89212fae0dfadf
6,4.3265,space,2.7053,0,96,96,195,1,,,5eab2dbd0c7a950efa32c3dc,64391619fac2e454df50b468,2023-04-14_10h10.41.585,PRaM,2021.2.3,Win32,59.92329818,61b8f3437b89212fae0dfadf
6,5.0267,space,3.3583,0,97,97,291,1,,,5eab2dbd0c7a950efa32c3dc,64391619fac2e454df50b468,2023-04-14_10h10.41.585,PRaM,2021.2.3,Win32,59.92329818,61b8f3437b89212fae0dfadf
6,3.1043,space,2.2171,0,98,98,96,1,,,5eab2dbd0c7a950efa32c3dc,64391619fac2e454df50b468,2023-04-14_10h10.41.585,PRaM,2021.2.3,Win32,59.92329818,61b8f3437b89212fae0dfadf
6,5.6775,space,4.2465,0,99,99,135,1,,,5eab2dbd0c7a950efa32c3dc,64391619fac2e454df50b468,2023-04-14_10h10.41.585,PRaM,2021.2.3,Win32,59.92329818,61b8f3437b89212fae0dfadf
1,3.0423,space,1.501,0,100,100,78,1,,,5eab2dbd0c7a950efa32c3dc,64391619fac2e454df50b468,2023-04-14_10h10.41.585,PRaM,2021.2.3,Win32,59.92329818,61b8f3437b89212fae0dfadf
5,3.6859,space,2.3196,0,101,101,187,1,,,5eab2dbd0c7a950efa32c3dc,64391619fac2e454df50b468,2023-04-14_10h10.41.585,PRaM,2021.2.3,Win32,59.92329818,61b8f3437b89212fae0dfadf
9,2.6441,space,1.1889,0,102,102,276,1,,,5eab2dbd0c7a950efa32c3dc,64391619fac2e454df50b468,2023-04-14_10h10.41.585,PRaM,2021.2.3,Win32,59.92329818,61b8f3437b89212fae0dfadf
6,12.8177,space,11.6023,0,103,103,179,1,,,5eab2dbd0c7a950efa32c3dc,64391619fac2e454df50b468,2023-04-14_10h10.41.585,PRaM,2021.2.3,Win32,59.92329818,61b8f3437b89212fae0dfadf
2,3.7213,space,2.318,0,104,104,63,1,,,5eab2dbd0c7a950efa32c3dc,64391619fac2e454df50b468,2023-04-14_10h10.41.585,PRaM,2021.2.3,Win32,59.92329818,61b8f3437b89212fae0dfadf
4,6.6388,space,4.9841,0,105,105,36,1,,,5eab2dbd0c7a950efa32c3dc,64391619fac2e454df50b468,2023-04-14_10h10.41.585,PRaM,2021.2.3,Win32,59.92329818,61b8f3437b89212fae0dfadf
3,4.9703,space,3.2935,0,106,106,265,1,,,5eab2dbd0c7a950efa32c3dc,64391619fac2e454df50b468,2023-04-14_10h10.41.585,PRaM,2021.2.3,Win32,59.92329818,61b8f3437b89212fae0dfadf
4,3.9108,space,2.8502,0,107,107,286,1,,,5eab2dbd0c7a950efa32c3dc,64391619fac2e454df50b468,2023-04-14_10h10.41.585,PRaM,2021.2.3,Win32,59.92329818,61b8f3437b89212fae0dfadf
1,3.1317,space,1.6181,0,108,108,41,1,,,5eab2dbd0c7a950efa32c3dc,64391619fac2e454df50b468,2023-04-14_10h10.41.585,PRaM,2021.2.3,Win32,59.92329818,61b8f3437b89212fae0dfadf
2,4.2803,space,2.9513,0,109,109,339,1,,,5eab2dbd0c7a950efa32c3dc,64391619fac2e454df50b468,2023-04-14_10h10.41.585,PRaM,2021.2.3,Win32,59.92329818,61b8f3437b89212fae0dfadf
6,3.0999,space,1.6753,0,110,110,256,1,,,5eab2dbd0c7a950efa32c3dc,64391619fac2e454df50b468,2023-04-14_10h10.41.585,PRaM,2021.2.3,Win32,59.92329818,61b8f3437b89212fae0dfadf
3,7.4398,space,5.8007,0,111,111,54,1,,,5eab2dbd0c7a950efa32c3dc,64391619fac2e454df50b468,2023-04-14_10h10.41.585,PRaM,2021.2.3,Win32,59.92329818,61b8f3437b89212fae0dfadf
1,3.0967,space,1.6027,0,112,112,108,1,,,5eab2dbd0c7a950efa32c3dc,64391619fac2e454df50b468,2023-04-14_10h10.41.585,PRaM,2021.2.3,Win32,59.92329818,61b8f3437b89212fae0dfadf
6,3.8461,space,2.8179,0,113,113,201,1,,,5eab2dbd0c7a950efa32c3dc,64391619fac2e454df50b468,2023-04-14_10h10.41.585,PRaM,2021.2.3,Win32,59.92329818,61b8f3437b89212fae0dfadf
5,2.7755,space,1.0778,0,114,114,167,1,,,5eab2dbd0c7a950efa32c3dc,64391619fac2e454df50b468,2023-04-14_10h10.41.585,PRaM,2021.2.3,Win32,59.92329818,61b8f3437b89212fae0dfadf
7,3.2478,space,1.587,0,115,115,325,1,,,5eab2dbd0c7a950efa32c3dc,64391619fac2e454df50b468,2023-04-14_10h10.41.585,PRaM,2021.2.3,Win32,59.92329818,61b8f3437b89212fae0dfadf
1,4.3155,space,2.8863,0,116,116,300,1,,,5eab2dbd0c7a950efa32c3dc,64391619fac2e454df50b468,2023-04-14_10h10.41.585,PRaM,2021.2.3,Win32,59.92329818,61b8f3437b89212fae0dfadf
4,4.4604,space,3.3921,0,117,117,336,1,,,5eab2dbd0c7a950efa32c3dc,64391619fac2e454df50b468,2023-04-14_10h10.41.585,PRaM,2021.2.3,Win32,59.92329818,61b8f3437b89212fae0dfadf
1,5.9405,space,5.201,0,118,118,8,1,,,5eab2dbd0c7a950efa32c3dc,64391619fac2e454df50b468,2023-04-14_10h10.41.585,PRaM,2021.2.3,Win32,59.92329818,61b8f3437b89212fae0dfadf
8,8.4969,space,7.0914,0,119,119,255,1,,,5eab2dbd0c7a950efa32c3dc,64391619fac2e454df50b468,2023-04-14_10h10.41.585,PRaM,2021.2.3,Win32,59.92329818,61b8f3437b89212fae0dfadf
3,12.8753,space,11.5066,0,120,120,2,1,,,5eab2dbd0c7a950efa32c3dc,64391619fac2e454df50b468,2023-04-14_10h10.41.585,PRaM,2021.2.3,Win32,59.92329818,61b8f3437b89212fae0dfadf
6,2.7458,space,1.4546,0,121,121,142,1,,,5eab2dbd0c7a950efa32c3dc,64391619fac2e454df50b468,2023-04-14_10h10.41.585,PRaM,2021.2.3,Win32,59.92329818,61b8f3437b89212fae0dfadf
5,5.4304,space,4.0509,0,122,122,26,1,,,5eab2dbd0c7a950efa32c3dc,64391619fac2e454df50b468,2023-04-14_10h10.41.585,PRaM,2021.2.3,Win32,59.92329818,61b8f3437b89212fae0dfadf
5,8.3569,space,7.1373,0,123,123,318,1,,,5eab2dbd0c7a950efa32c3dc,64391619fac2e454df50b468,2023-04-14_10h10.41.585,PRaM,2021.2.3,Win32,59.92329818,61b8f3437b89212fae0dfadf
7,14.1202,space,12.4843,0,124,124,102,1,,,5eab2dbd0c7a950efa32c3dc,64391619fac2e454df50b468,2023-04-14_10h10.41.585,PRaM,2021.2.3,Win32,59.92329818,61b8f3437b89212fae0dfadf
6,2.8633,space,1.3826,0,125,125,301,1,,,5eab2dbd0c7a950efa32c3dc,64391619fac2e454df50b468,2023-04-14_10h10.41.585,PRaM,2021.2.3,Win32,59.92329818,61b8f3437b89212fae0dfadf
7,3.3535,space,1.7,0,126,126,274,1,,,5eab2dbd0c7a950efa32c3dc,64391619fac2e454df50b468,2023-04-14_10h10.41.585,PRaM,2021.2.3,Win32,59.92329818,61b8f3437b89212fae0dfadf
9,6.2591,space,4.6843,0,127,127,53,1,,,5eab2dbd0c7a950efa32c3dc,64391619fac2e454df50b468,2023-04-14_10h10.41.585,PRaM,2021.2.3,Win32,59.92329818,61b8f3437b89212fae0dfadf
4,7.8501,space,6.5008,0,128,128,262,1,,,5eab2dbd0c7a950efa32c3dc,64391619fac2e454df50b468,2023-04-14_10h10.41.585,PRaM,2021.2.3,Win32,59.92329818,61b8f3437b89212fae0dfadf
6,2.6636,space,1.3672,0,129,129,271,1,,,5eab2dbd0c7a950efa32c3dc,64391619fac2e454df50b468,2023-04-14_10h10.41.585,PRaM,2021.2.3,Win32,59.92329818,61b8f3437b89212fae0dfadf
2,8.4284,space,6.8079,0,130,130,144,1,,,5eab2dbd0c7a950efa32c3dc,64391619fac2e454df50b468,2023-04-14_10h10.41.585,PRaM,2021.2.3,Win32,59.92329818,61b8f3437b89212fae0dfadf
2,12.0705,space,10.6106,0,131,131,39,1,,,5eab2dbd0c7a950efa32c3dc,64391619fac2e454df50b468,2023-04-14_10h10.41.585,PRaM,2021.2.3,Win32,59.92329818,61b8f3437b89212fae0dfadf
4,2.6385,space,1.2011,0,132,132,116,1,,,5eab2dbd0c7a950efa32c3dc,64391619fac2e454df50b468,2023-04-14_10h10.41.585,PRaM,2021.2.3,Win32,59.92329818,61b8f3437b89212fae0dfadf
6,34.6447,space,33.2356,0,133,133,202,1,,,5eab2dbd0c7a950efa32c3dc,64391619fac2e454df50b468,2023-04-14_10h10.41.585,PRaM,2021.2.3,Win32,59.92329818,61b8f3437b89212fae0dfadf
3,15.9096,space,14.5679,0,134,134,233,1,,,5eab2dbd0c7a950efa32c3dc,64391619fac2e454df50b468,2023-04-14_10h10.41.585,PRaM,2021.2.3,Win32,59.92329818,61b8f3437b89212fae0dfadf
1,5.767,space,4.3342,0,135,135,214,1,,,5eab2dbd0c7a950efa32c3dc,64391619fac2e454df50b468,2023-04-14_10h10.41.585,PRaM,2021.2.3,Win32,59.92329818,61b8f3437b89212fae0dfadf
2,56.5705,space,55.3849,0,136,136,153,1,,,5eab2dbd0c7a950efa32c3dc,64391619fac2e454df50b468,2023-04-14_10h10.41.585,PRaM,2021.2.3,Win32,59.92329818,61b8f3437b89212fae0dfadf
5,41.4901,space,40.0737,0,137,137,124,1,,,5eab2dbd0c7a950efa32c3dc,64391619fac2e454df50b468,2023-04-14_10h10.41.585,PRaM,2021.2.3,Win32,59.92329818,61b8f3437b89212fae0dfadf
7,3.6215,space,2.1588,0,138,138,340,1,,,5eab2dbd0c7a950efa32c3dc,64391619fac2e454df50b468,2023-04-14_10h10.41.585,PRaM,2021.2.3,Win32,59.92329818,61b8f3437b89212fae0dfadf
7,2.0097,space,0.2673,0,139,139,294,1,,,5eab2dbd0c7a950efa32c3dc,64391619fac2e454df50b468,2023-04-14_10h10.41.585,PRaM,2021.2.3,Win32,59.92329818,61b8f3437b89212fae0dfadf
8,2.4178,space,1.0909,0,140,140,115,1,,,5eab2dbd0c7a950efa32c3dc,64391619fac2e454df50b468,2023-04-14_10h10.41.585,PRaM,2021.2.3,Win32,59.92329818,61b8f3437b89212fae0dfadf
6,4.7208,space,2.9924,0,141,141,213,1,,,5eab2dbd0c7a950efa32c3dc,64391619fac2e454df50b468,2023-04-14_10h10.41.585,PRaM,2021.2.3,Win32,59.92329818,61b8f3437b89212fae0dfadf
6,2.4442,space,0.7503,0,142,142,105,1,,,5eab2dbd0c7a950efa32c3dc,64391619fac2e454df50b468,2023-04-14_10h10.41.585,PRaM,2021.2.3,Win32,59.92329818,61b8f3437b89212fae0dfadf
1,4.6835,space,3.0678,0,143,143,235,1,,,5eab2dbd0c7a950efa32c3dc,64391619fac2e454df50b468,2023-04-14_10h10.41.585,PRaM,2021.2.3,Win32,59.92329818,61b8f3437b89212fae0dfadf
4,2.3606,space,0.7056,0,144,144,241,1,,,5eab2dbd0c7a950efa32c3dc,64391619fac2e454df50b468,2023-04-14_10h10.41.585,PRaM,2021.2.3,Win32,59.92329818,61b8f3437b89212fae0dfadf
7,3.2423,space,1.5606,0,145,145,64,1,,,5eab2dbd0c7a950efa32c3dc,64391619fac2e454df50b468,2023-04-14_10h10.41.585,PRaM,2021.2.3,Win32,59.92329818,61b8f3437b89212fae0dfadf
5,3.8699,space,2.1169,0,146,146,206,1,,,5eab2dbd0c7a950efa32c3dc,64391619fac2e454df50b468,2023-04-14_10h10.41.585,PRaM,2021.2.3,Win32,59.92329818,61b8f3437b89212fae0dfadf
6,5.0401,space,4.0008,0,147,147,69,1,,,5eab2dbd0c7a950efa32c3dc,64391619fac2e454df50b468,2023-04-14_10h10.41.585,PRaM,2021.2.3,Win32,59.92329818,61b8f3437b89212fae0dfadf
8,5.7202,space,4.0016,0,148,148,16,1,,,5eab2dbd0c7a950efa32c3dc,64391619fac2e454df50b468,2023-04-14_10h10.41.585,PRaM,2021.2.3,Win32,59.92329818,61b8f3437b89212fae0dfadf
9,3.4557,space,2.0347,0,149,149,207,1,,,5eab2dbd0c7a950efa32c3dc,64391619fac2e454df50b468,2023-04-14_10h10.41.585,PRaM,2021.2.3,Win32,59.92329818,61b8f3437b89212fae0dfadf
6,6.169,space,4.7429,0,150,150,46,1,,,5eab2dbd0c7a950efa32c3dc,64391619fac2e454df50b468,2023-04-14_10h10.41.585,PRaM,2021.2.3,Win32,59.92329818,61b8f3437b89212fae0dfadf
4,3.3038,space,2.884,0,151,151,252,1,,,5eab2dbd0c7a950efa32c3dc,64391619fac2e454df50b468,2023-04-14_10h10.41.585,PRaM,2021.2.3,Win32,59.92329818,61b8f3437b89212fae0dfadf
5,1.7474,space,0.0223,0,152,152,341,1,,,5eab2dbd0c7a950efa32c3dc,64391619fac2e454df50b468,2023-04-14_10h10.41.585,PRaM,2021.2.3,Win32,59.92329818,61b8f3437b89212fae0dfadf
4,2.672,space,0.9342,0,153,153,79,1,,,5eab2dbd0c7a950efa32c3dc,64391619fac2e454df50b468,2023-04-14_10h10.41.585,PRaM,2021.2.3,Win32,59.92329818,61b8f3437b89212fae0dfadf
6,8.6495,space,6.8402,0,154,154,93,1,,,5eab2dbd0c7a950efa32c3dc,64391619fac2e454df50b468,2023-04-14_10h10.41.585,PRaM,2021.2.3,Win32,59.92329818,61b8f3437b89212fae0dfadf
4,73.9411,space,72.6205,0,155,155,103,1,,,5eab2dbd0c7a950efa32c3dc,64391619fac2e454df50b468,2023-04-14_10h10.41.585,PRaM,2021.2.3,Win32,59.92329818,61b8f3437b89212fae0dfadf
2,18.9611,space,17.4717,0,156,156,122,1,,,5eab2dbd0c7a950efa32c3dc,64391619fac2e454df50b468,2023-04-14_10h10.41.585,PRaM,2021.2.3,Win32,59.92329818,61b8f3437b89212fae0dfadf
6,3.305,space,1.8047,0,157,157,141,1,,,5eab2dbd0c7a950efa32c3dc,64391619fac2e454df50b468,2023-04-14_10h10.41.585,PRaM,2021.2.3,Win32,59.92329818,61b8f3437b89212fae0dfadf
1,4.3133,space,2.845,0,158,158,10,1,,,5eab2dbd0c7a950efa32c3dc,64391619fac2e454df50b468,2023-04-14_10h10.41.585,PRaM,2021.2.3,Win32,59.92329818,61b8f3437b89212fae0dfadf
6,3.6788,space,2.1495,0,159,159,152,1,,,5eab2dbd0c7a950efa32c3dc,64391619fac2e454df50b468,2023-04-14_10h10.41.585,PRaM,2021.2.3,Win32,59.92329818,61b8f3437b89212fae0dfadf
6,32.923,space,31.4375,0,160,160,358,1,,,5eab2dbd0c7a950efa32c3dc,64391619fac2e454df50b468,2023-04-14_10h10.41.585,PRaM,2021.2.3,Win32,59.92329818,61b8f3437b89212fae0dfadf
7,32.1356,space,30.8348,0,161,161,80,1,,,5eab2dbd0c7a950efa32c3dc,64391619fac2e454df50b468,2023-04-14_10h10.41.585,PRaM,2021.2.3,Win32,59.92329818,61b8f3437b89212fae0dfadf
4,10.0283,space,8.5965,0,162,162,71,1,,,5eab2dbd0c7a950efa32c3dc,64391619fac2e454df50b468,2023-04-14_10h10.41.585,PRaM,2021.2.3,Win32,59.92329818,61b8f3437b89212fae0dfadf
8,4.5914,space,3.2199,0,163,163,114,1,,,5eab2dbd0c7a950efa32c3dc,64391619fac2e454df50b468,2023-04-14_10h10.41.585,PRaM,2021.2.3,Win32,59.92329818,61b8f3437b89212fae0dfadf
8,5.4902,space,4.0843,0,164,164,192,1,,,5eab2dbd0c7a950efa32c3dc,64391619fac2e454df50b468,2023-04-14_10h10.41.585,PRaM,2021.2.3,Win32,59.92329818,61b8f3437b89212fae0dfadf
7,7.4459,space,5.9701,0,165,165,342,1,,,5eab2dbd0c7a950efa32c3dc,64391619fac2e454df50b468,2023-04-14_10h10.41.585,PRaM,2021.2.3,Win32,59.92329818,61b8f3437b89212fae0dfadf
7,3.4815,space,2.0675,0,166,166,198,1,,,5eab2dbd0c7a950efa32c3dc,64391619fac2e454df50b468,2023-04-14_10h10.41.585,PRaM,2021.2.3,Win32,59.92329818,61b8f3437b89212fae0dfadf
4,4.447,space,3.6741,0,167,167,220,1,,,5eab2dbd0c7a950efa32c3dc,64391619fac2e454df50b468,2023-04-14_10h10.41.585,PRaM,2021.2.3,Win32,59.92329818,61b8f3437b89212fae0dfadf
2,8.9841,space,7.6172,0,168,168,287,1,,,5eab2dbd0c7a950efa32c3dc,64391619fac2e454df50b468,2023-04-14_10h10.41.585,PRaM,2021.2.3,Win32,59.92329818,61b8f3437b89212fae0dfadf
2,11.11,space,9.6886,0,169,169,175,1,,,5eab2dbd0c7a950efa32c3dc,64391619fac2e454df50b468,2023-04-14_10h10.41.585,PRaM,2021.2.3,Win32,59.92329818,61b8f3437b89212fae0dfadf
4,3.4963,space,1.5131,0,170,170,377,1,,,5eab2dbd0c7a950efa32c3dc,64391619fac2e454df50b468,2023-04-14_10h10.41.585,PRaM,2021.2.3,Win32,59.92329818,61b8f3437b89212fae0dfadf
2,24.1744,space,22.4845,0,171,171,92,1,,,5eab2dbd0c7a950efa32c3dc,64391619fac2e454df50b468,2023-04-14_10h10.41.585,PRaM,2021.2.3,Win32,59.92329818,61b8f3437b89212fae0dfadf
3,5.3727,space,3.6948,0,172,172,15,1,,,5eab2dbd0c7a950efa32c3dc,64391619fac2e454df50b468,2023-04-14_10h10.41.585,PRaM,2021.2.3,Win32,59.92329818,61b8f3437b89212fae0dfadf
6,3.198,space,1.8674,0,173,173,348,1,,,5eab2dbd0c7a950efa32c3dc,64391619fac2e454df50b468,2023-04-14_10h10.41.585,PRaM,2021.2.3,Win32,59.92329818,61b8f3437b89212fae0dfadf
6,3.7674,space,2.3512,0,174,174,136,1,,,5eab2dbd0c7a950efa32c3dc,64391619fac2e454df50b468,2023-04-14_10h10.41.585,PRaM,2021.2.3,Win32,59.92329818,61b8f3437b89212fae0dfadf
6,2.6537,space,0.9676,0,175,175,40,1,,,5eab2dbd0c7a950efa32c3dc,64391619fac2e454df50b468,2023-04-14_10h10.41.585,PRaM,2021.2.3,Win32,59.92329818,61b8f3437b89212fae0dfadf
4,2.5388,space,0.8171,0,176,176,65,1,,,5eab2dbd0c7a950efa32c3dc,64391619fac2e454df50b468,2023-04-14_10h10.41.585,PRaM,2021.2.3,Win32,59.92329818,61b8f3437b89212fae0dfadf
5,5.6869,space,3.9267,0,177,177,101,1,,,5eab2dbd0c7a950efa32c3dc,64391619fac2e454df50b468,2023-04-14_10h10.41.585,PRaM,2021.2.3,Win32,59.92329818,61b8f3437b89212fae0dfadf
4,3.7196,space,1.9442,0,178,178,48,1,,,5eab2dbd0c7a950efa32c3dc,64391619fac2e454df50b468,2023-04-14_10h10.41.585,PRaM,2021.2.3,Win32,59.92329818,61b8f3437b89212fae0dfadf
6,2.3388,space,0.7023,0,179,179,7,1,,,5eab2dbd0c7a950efa32c3dc,64391619fac2e454df50b468,2023-04-14_10h10.41.585,PRaM,2021.2.3,Win32,59.92329818,61b8f3437b89212fae0dfadf
4,2.6443,space,0.9109,0,180,180,148,1,,,5eab2dbd0c7a950efa32c3dc,64391619fac2e454df50b468,2023-04-14_10h10.41.585,PRaM,2021.2.3,Win32,59.92329818,61b8f3437b89212fae0dfadf
7,2.6431,space,0.9445,0,181,181,86,1,,,5eab2dbd0c7a950efa32c3dc,64391619fac2e454df50b468,2023-04-14_10h10.41.585,PRaM,2021.2.3,Win32,59.92329818,61b8f3437b89212fae0dfadf
3,5.7771,space,4.0876,0,182,182,374,1,,,5eab2dbd0c7a950efa32c3dc,64391619fac2e454df50b468,2023-04-14_10h10.41.585,PRaM,2021.2.3,Win32,59.92329818,61b8f3437b89212fae0dfadf
1,2.6777,space,0.9429,0,183,183,190,1,,,5eab2dbd0c7a950efa32c3dc,64391619fac2e454df50b468,2023-04-14_10h10.41.585,PRaM,2021.2.3,Win32,59.92329818,61b8f3437b89212fae0dfadf
6,3.0259,space,1.3347,0,184,184,304,1,,,5eab2dbd0c7a950efa32c3dc,64391619fac2e454df50b468,2023-04-14_10h10.41.585,PRaM,2021.2.3,Win32,59.92329818,61b8f3437b89212fae0dfadf
2,2.7954,space,0.9431,0,185,185,289,1,,,5eab2dbd0c7a950efa32c3dc,64391619fac2e454df50b468,2023-04-14_10h10.41.585,PRaM,2021.2.3,Win32,59.92329818,61b8f3437b89212fae0dfadf
2,2.4873,space,0.6457,0,186,186,11,1,,,5eab2dbd0c7a950efa32c3dc,64391619fac2e454df50b468,2023-04-14_10h10.41.585,PRaM,2021.2.3,Win32,59.92329818,61b8f3437b89212fae0dfadf
2,10.4564,space,8.985,0,187,187,87,1,,,5eab2dbd0c7a950efa32c3dc,64391619fac2e454df50b468,2023-04-14_10h10.41.585,PRaM,2021.2.3,Win32,59.92329818,61b8f3437b89212fae0dfadf
1,5.7379,space,4.2934,0,188,188,109,1,,,5eab2dbd0c7a950efa32c3dc,64391619fac2e454df50b468,2023-04-14_10h10.41.585,PRaM,2021.2.3,Win32,59.92329818,61b8f3437b89212fae0dfadf
9,3.3147,space,1.8833,0,189,189,323,1,,,5eab2dbd0c7a950efa32c3dc,64391619fac2e454df50b468,2023-04-14_10h10.41.585,PRaM,2021.2.3,Win32,59.92329818,61b8f3437b89212fae0dfadf
2,3.2326,space,1.518,0,190,190,98,1,,,5eab2dbd0c7a950efa32c3dc,64391619fac2e454df50b468,2023-04-14_10h10.41.585,PRaM,2021.2.3,Win32,59.92329818,61b8f3437b89212fae0dfadf
3,9.5014,space,7.8552,0,191,191,257,1,,,5eab2dbd0c7a950efa32c3dc,64391619fac2e454df50b468,2023-04-14_10h10.41.585,PRaM,2021.2.3,Win32,59.92329818,61b8f3437b89212fae0dfadf
4,24.9905,space,23.3136,0,192,192,19,1,,,5eab2dbd0c7a950efa32c3dc,64391619fac2e454df50b468,2023-04-14_10h10.41.585,PRaM,2021.2.3,Win32,59.92329818,61b8f3437b89212fae0dfadf
4,13.9067,space,12.1084,0,193,193,160,1,,,5eab2dbd0c7a950efa32c3dc,64391619fac2e454df50b468,2023-04-14_10h10.41.585,PRaM,2021.2.3,Win32,59.92329818,61b8f3437b89212fae0dfadf
7,2.8764,space,1.1563,0,194,194,137,1,,,5eab2dbd0c7a950efa32c3dc,64391619fac2e454df50b468,2023-04-14_10h10.41.585,PRaM,2021.2.3,Win32,59.92329818,61b8f3437b89212fae0dfadf
6,4.012,space,2.2731,0,195,195,221,1,,,5eab2dbd0c7a950efa32c3dc,64391619fac2e454df50b468,2023-04-14_10h10.41.585,PRaM,2021.2.3,Win32,59.92329818,61b8f3437b89212fae0dfadf
7,4.0379,space,2.4191,0,196,196,140,1,,,5eab2dbd0c7a950efa32c3dc,64391619fac2e454df50b468,2023-04-14_10h10.41.585,PRaM,2021.2.3,Win32,59.92329818,61b8f3437b89212fae0dfadf
4,6.1215,space,4.4465,0,197,197,290,1,,,5eab2dbd0c7a950efa32c3dc,64391619fac2e454df50b468,2023-04-14_10h10.41.585,PRaM,2021.2.3,Win32,59.92329818,61b8f3437b89212fae0dfadf
2,3.9201,space,2.2176,0,198,198,360,1,,,5eab2dbd0c7a950efa32c3dc,64391619fac2e454df50b468,2023-04-14_10h10.41.585,PRaM,2021.2.3,Win32,59.92329818,61b8f3437b89212fae0dfadf
5,9.7597,space,8.0178,0,199,199,145,1,,,5eab2dbd0c7a950efa32c3dc,64391619fac2e454df50b468,2023-04-14_10h10.41.585,PRaM,2021.2.3,Win32,59.92329818,61b8f3437b89212fae0dfadf
6,4.488,space,2.9833,0,200,200,117,1,,,5eab2dbd0c7a950efa32c3dc,64391619fac2e454df50b468,2023-04-14_10h10.41.585,PRaM,2021.2.3,Win32,59.92329818,61b8f3437b89212fae0dfadf
2,6.1699,space,4.4894,0,201,201,232,1,,,5eab2dbd0c7a950efa32c3dc,64391619fac2e454df50b468,2023-04-14_10h10.41.585,PRaM,2021.2.3,Win32,59.92329818,61b8f3437b89212fae0dfadf
9,5.6038,space,3.9684,0,202,202,197,1,,,5eab2dbd0c7a950efa32c3dc,64391619fac2e454df50b468,2023-04-14_10h10.41.585,PRaM,2021.2.3,Win32,59.92329818,61b8f3437b89212fae0dfadf
9,7.6502,space,5.9937,0,203,203,225,1,,,5eab2dbd0c7a950efa32c3dc,64391619fac2e454df50b468,2023-04-14_10h10.41.585,PRaM,2021.2.3,Win32,59.92329818,61b8f3437b89212fae0dfadf
7,2.8712,space,1.1189,0,204,204,310,1,,,5eab2dbd0c7a950efa32c3dc,64391619fac2e454df50b468,2023-04-14_10h10.41.585,PRaM,2021.2.3,Win32,59.92329818,61b8f3437b89212fae0dfadf
4,93.2183,space,91.7412,0,205,205,181,1,,,5eab2dbd0c7a950efa32c3dc,64391619fac2e454df50b468,2023-04-14_10h10.41.585,PRaM,2021.2.3,Win32,59.92329818,61b8f3437b89212fae0dfadf
2,2.5872,space,0.8501,0,206,206,250,1,,,5eab2dbd0c7a950efa32c3dc,64391619fac2e454df50b468,2023-04-14_10h10.41.585,PRaM,2021.2.3,Win32,59.92329818,61b8f3437b89212fae0dfadf
4,4.0002,space,2.3052,0,207,207,246,1,,,5eab2dbd0c7a950efa32c3dc,64391619fac2e454df50b468,2023-04-14_10h10.41.585,PRaM,2021.2.3,Win32,59.92329818,61b8f3437b89212fae0dfadf
2,4.1227,space,2.4283,0,208,208,266,1,,,5eab2dbd0c7a950efa32c3dc,64391619fac2e454df50b468,2023-04-14_10h10.41.585,PRaM,2021.2.3,Win32,59.92329818,61b8f3437b89212fae0dfadf
4,4.2613,space,3.0281,0,209,209,273,1,,,5eab2dbd0c7a950efa32c3dc,64391619fac2e454df50b468,2023-04-14_10h10.41.585,PRaM,2021.2.3,Win32,59.92329818,61b8f3437b89212fae0dfadf
7,4.8554,space,3.6189,0,210,210,269,1,,,5eab2dbd0c7a950efa32c3dc,64391619fac2e454df50b468,2023-04-14_10h10.41.585,PRaM,2021.2.3,Win32,59.92329818,61b8f3437b89212fae0dfadf
6,6.6052,space,4.8757,0,211,211,6,1,,,5eab2dbd0c7a950efa32c3dc,64391619fac2e454df50b468,2023-04-14_10h10.41.585,PRaM,2021.2.3,Win32,59.92329818,61b8f3437b89212fae0dfadf
5,4.9989,space,3.2759,0,212,212,303,1,,,5eab2dbd0c7a950efa32c3dc,64391619fac2e454df50b468,2023-04-14_10h10.41.585,PRaM,2021.2.3,Win32,59.92329818,61b8f3437b89212fae0dfadf
6,2.2709,space,0.4921,0,213,213,25,1,,,5eab2dbd0c7a950efa32c3dc,64391619fac2e454df50b468,2023-04-14_10h10.41.585,PRaM,2021.2.3,Win32,59.92329818,61b8f3437b89212fae0dfadf
6,4.867,space,3.0509,0,214,214,62,1,,,5eab2dbd0c7a950efa32c3dc,64391619fac2e454df50b468,2023-04-14_10h10.41.585,PRaM,2021.2.3,Win32,59.92329818,61b8f3437b89212fae0dfadf
4,3.0659,space,1.2933,0,215,215,77,1,,,5eab2dbd0c7a950efa32c3dc,64391619fac2e454df50b468,2023-04-14_10h10.41.585,PRaM,2021.2.3,Win32,59.92329818,61b8f3437b89212fae0dfadf
6,17.524,space,15.9841,0,216,216,47,1,,,5eab2dbd0c7a950efa32c3dc,64391619fac2e454df50b468,2023-04-14_10h10.41.585,PRaM,2021.2.3,Win32,59.92329818,61b8f3437b89212fae0dfadf
6,3.0438,space,1.3007,0,217,217,327,1,,,5eab2dbd0c7a950efa32c3dc,64391619fac2e454df50b468,2023-04-14_10h10.41.585,PRaM,2021.2.3,Win32,59.92329818,61b8f3437b89212fae0dfadf
6,3.8909,space,2.118,0,218,218,37,1,,,5eab2dbd0c7a950efa32c3dc,64391619fac2e454df50b468,2023-04-14_10h10.41.585,PRaM,2021.2.3,Win32,59.92329818,61b8f3437b89212fae0dfadf
9,3.2264,space,1.7175,0,219,219,208,1,,,5eab2dbd0c7a950efa32c3dc,64391619fac2e454df50b468,2023-04-14_10h10.41.585,PRaM,2021.2.3,Win32,59.92329818,61b8f3437b89212fae0dfadf
8,3.8382,space,2.1504,0,220,220,196,1,,,5eab2dbd0c7a950efa32c3dc,64391619fac2e454df50b468,2023-04-14_10h10.41.585,PRaM,2021.2.3,Win32,59.92329818,61b8f3437b89212fae0dfadf
2,2.6537,space,0.9828,0,221,221,188,1,,,5eab2dbd0c7a950efa32c3dc,64391619fac2e454df50b468,2023-04-14_10h10.41.585,PRaM,2021.2.3,Win32,59.92329818,61b8f3437b89212fae0dfadf
4,2.7837,space,1.0846,0,222,222,50,1,,,5eab2dbd0c7a950efa32c3dc,64391619fac2e454df50b468,2023-04-14_10h10.41.585,PRaM,2021.2.3,Win32,59.92329818,61b8f3437b89212fae0dfadf
6,3.3297,space,1.6009,0,223,223,159,1,,,5eab2dbd0c7a950efa32c3dc,64391619fac2e454df50b468,2023-04-14_10h10.41.585,PRaM,2021.2.3,Win32,59.92329818,61b8f3437b89212fae0dfadf
6,2.382,space,0.6242,0,224,224,328,1,,,5eab2dbd0c7a950efa32c3dc,64391619fac2e454df50b468,2023-04-14_10h10.41.585,PRaM,2021.2.3,Win32,59.92329818,61b8f3437b89212fae0dfadf
4,3.2706,space,1.4781,0,225,225,376,1,,,5eab2dbd0c7a950efa32c3dc,64391619fac2e454df50b468,2023-04-14_10h10.41.585,PRaM,2021.2.3,Win32,59.92329818,61b8f3437b89212fae0dfadf
3,3.4337,space,1.6675,0,226,226,121,1,,,5eab2dbd0c7a950efa32c3dc,64391619fac2e454df50b468,2023-04-14_10h10.41.585,PRaM,2021.2.3,Win32,59.92329818,61b8f3437b89212fae0dfadf
7,14.939,space,13.1853,0,227,227,326,1,,,5eab2dbd0c7a950efa32c3dc,64391619fac2e454df50b468,2023-04-14_10h10.41.585,PRaM,2021.2.3,Win32,59.92329818,61b8f3437b89212fae0dfadf
4,2.5209,space,0.9308,0,228,228,308,1,,,5eab2dbd0c7a950efa32c3dc,64391619fac2e454df50b468,2023-04-14_10h10.41.585,PRaM,2021.2.3,Win32,59.92329818,61b8f3437b89212fae0dfadf
6,24.0387,space,22.3621,0,229,229,42,1,,,5eab2dbd0c7a950efa32c3dc,64391619fac2e454df50b468,2023-04-14_10h10.41.585,PRaM,2021.2.3,Win32,59.92329818,61b8f3437b89212fae0dfadf
6,3.2427,space,1.5107,0,230,230,88,1,,,5eab2dbd0c7a950efa32c3dc,64391619fac2e454df50b468,2023-04-14_10h10.41.585,PRaM,2021.2.3,Win32,59.92329818,61b8f3437b89212fae0dfadf
4,3.4166,space,1.6171,0,231,231,104,1,,,5eab2dbd0c7a950efa32c3dc,64391619fac2e454df50b468,2023-04-14_10h10.41.585,PRaM,2021.2.3,Win32,59.92329818,61b8f3437b89212fae0dfadf
5,7.8356,space,6.1669,0,232,232,371,1,,,5eab2dbd0c7a950efa32c3dc,64391619fac2e454df50b468,2023-04-14_10h10.41.585,PRaM,2021.2.3,Win32,59.92329818,61b8f3437b89212fae0dfadf
4,4.1901,space,2.3683,0,233,233,68,1,,,5eab2dbd0c7a950efa32c3dc,64391619fac2e454df50b468,2023-04-14_10h10.41.585,PRaM,2021.2.3,Win32,59.92329818,61b8f3437b89212fae0dfadf
3,6.3432,space,4.9388,0,234,234,66,1,,,5eab2dbd0c7a950efa32c3dc,64391619fac2e454df50b468,2023-04-14_10h10.41.585,PRaM,2021.2.3,Win32,59.92329818,61b8f3437b89212fae0dfadf
6,2.6827,space,0.91,0,235,235,282,1,,,5eab2dbd0c7a950efa32c3dc,64391619fac2e454df50b468,2023-04-14_10h10.41.585,PRaM,2021.2.3,Win32,59.92329818,61b8f3437b89212fae0dfadf
2,4.6654,space,2.8671,0,236,236,204,1,,,5eab2dbd0c7a950efa32c3dc,64391619fac2e454df50b468,2023-04-14_10h10.41.585,PRaM,2021.2.3,Win32,59.92329818,61b8f3437b89212fae0dfadf
4,3.1271,space,1.7867,0,237,237,349,1,,,5eab2dbd0c7a950efa32c3dc,64391619fac2e454df50b468,2023-04-14_10h10.41.585,PRaM,2021.2.3,Win32,59.92329818,61b8f3437b89212fae0dfadf
6,6.4786,space,4.7835,0,238,238,279,1,,,5eab2dbd0c7a950efa32c3dc,64391619fac2e454df50b468,2023-04-14_10h10.41.585,PRaM,2021.2.3,Win32,59.92329818,61b8f3437b89212fae0dfadf
4,5.5147,space,3.7951,0,239,239,264,1,,,5eab2dbd0c7a950efa32c3dc,64391619fac2e454df50b468,2023-04-14_10h10.41.585,PRaM,2021.2.3,Win32,59.92329818,61b8f3437b89212fae0dfadf
4,36.4077,space,34.6852,0,240,240,314,1,,,5eab2dbd0c7a950efa32c3dc,64391619fac2e454df50b468,2023-04-14_10h10.41.585,PRaM,2021.2.3,Win32,59.92329818,61b8f3437b89212fae0dfadf
,,space,1.059,0,241,241,24,1,,,5eab2dbd0c7a950efa32c3dc,64391619fac2e454df50b468,2023-04-14_10h10.41.585,PRaM,2021.2.3,Win32,59.92329818,61b8f3437b89212fae0dfadf
7,4.9849,space,3.2751,0,242,242,297,1,,,5eab2dbd0c7a950efa32c3dc,64391619fac2e454df50b468,2023-04-14_10h10.41.585,PRaM,2021.2.3,Win32,59.92329818,61b8f3437b89212fae0dfadf
2,4.1481,space,2.5441,0,243,243,248,1,,,5eab2dbd0c7a950efa32c3dc,64391619fac2e454df50b468,2023-04-14_10h10.41.585,PRaM,2021.2.3,Win32,59.92329818,61b8f3437b89212fae0dfadf
5,3.4612,space,1.7619,0,244,244,258,1,,,5eab2dbd0c7a950efa32c3dc,64391619fac2e454df50b468,2023-04-14_10h10.41.585,PRaM,2021.2.3,Win32,59.92329818,61b8f3437b89212fae0dfadf
4,4.0337,space,2.4007,0,245,245,362,1,,,5eab2dbd0c7a950efa32c3dc,64391619fac2e454df50b468,2023-04-14_10h10.41.585,PRaM,2021.2.3,Win32,59.92329818,61b8f3437b89212fae0dfadf
6,2.1637,space,0.3835,0,246,246,200,1,,,5eab2dbd0c7a950efa32c3dc,64391619fac2e454df50b468,2023-04-14_10h10.41.585,PRaM,2021.2.3,Win32,59.92329818,61b8f3437b89212fae0dfadf
6,3.3796,space,1.6841,0,247,247,209,1,,,5eab2dbd0c7a950efa32c3dc,64391619fac2e454df50b468,2023-04-14_10h10.41.585,PRaM,2021.2.3,Win32,59.92329818,61b8f3437b89212fae0dfadf
6,2.0484,space,0.2506,0,248,248,365,1,,,5eab2dbd0c7a950efa32c3dc,64391619fac2e454df50b468,2023-04-14_10h10.41.585,PRaM,2021.2.3,Win32,59.92329818,61b8f3437b89212fae0dfadf
8,2.0124,space,0.3084,0,249,249,335,1,,,5eab2dbd0c7a950efa32c3dc,64391619fac2e454df50b468,2023-04-14_10h10.41.585,PRaM,2021.2.3,Win32,59.92329818,61b8f3437b89212fae0dfadf
8,2.1365,space,0.5007,0,250,250,84,1,,,5eab2dbd0c7a950efa32c3dc,64391619fac2e454df50b468,2023-04-14_10h10.41.585,PRaM,2021.2.3,Win32,59.92329818,61b8f3437b89212fae0dfadf
6,4.441,space,3.2842,0,251,251,32,1,,,5eab2dbd0c7a950efa32c3dc,64391619fac2e454df50b468,2023-04-14_10h10.41.585,PRaM,2021.2.3,Win32,59.92329818,61b8f3437b89212fae0dfadf
4,6.1643,space,4.8383,0,252,252,131,1,,,5eab2dbd0c7a950efa32c3dc,64391619fac2e454df50b468,2023-04-14_10h10.41.585,PRaM,2021.2.3,Win32,59.92329818,61b8f3437b89212fae0dfadf
6,3.9482,space,2.5337,0,253,253,51,1,,,5eab2dbd0c7a950efa32c3dc,64391619fac2e454df50b468,2023-04-14_10h10.41.585,PRaM,2021.2.3,Win32,59.92329818,61b8f3437b89212fae0dfadf
4,2.8434,space,1.2662,0,254,254,263,1,,,5eab2dbd0c7a950efa32c3dc,64391619fac2e454df50b468,2023-04-14_10h10.41.585,PRaM,2021.2.3,Win32,59.92329818,61b8f3437b89212fae0dfadf
4,33.8924,space,33.8793,0,255,255,94,1,,,5eab2dbd0c7a950efa32c3dc,64391619fac2e454df50b468,2023-04-14_10h10.41.585,PRaM,2021.2.3,Win32,59.92329818,61b8f3437b89212fae0dfadf
4,4.9953,space,32.6682,0,256,256,193,1,,,5eab2dbd0c7a950efa32c3dc,64391619fac2e454df50b468,2023-04-14_10h10.41.585,PRaM,2021.2.3,Win32,59.92329818,61b8f3437b89212fae0dfadf
6,5.3518,space,3.8961,0,257,257,158,1,,,5eab2dbd0c7a950efa32c3dc,64391619fac2e454df50b468,2023-04-14_10h10.41.585,PRaM,2021.2.3,Win32,59.92329818,61b8f3437b89212fae0dfadf
6,20.225,space,18.6844,0,258,258,306,1,,,5eab2dbd0c7a950efa32c3dc,64391619fac2e454df50b468,2023-04-14_10h10.41.585,PRaM,2021.2.3,Win32,59.92329818,61b8f3437b89212fae0dfadf
4,58.5429,space,57.0458,0,259,259,128,1,,,5eab2dbd0c7a950efa32c3dc,64391619fac2e454df50b468,2023-04-14_10h10.41.585,PRaM,2021.2.3,Win32,59.92329818,61b8f3437b89212fae0dfadf
3,2.4704,space,1.1191,0,260,260,359,1,,,5eab2dbd0c7a950efa32c3dc,64391619fac2e454df50b468,2023-04-14_10h10.41.585,PRaM,2021.2.3,Win32,59.92329818,61b8f3437b89212fae0dfadf
6,4.7895,space,3.0882,0,261,261,317,1,,,5eab2dbd0c7a950efa32c3dc,64391619fac2e454df50b468,2023-04-14_10h10.41.585,PRaM,2021.2.3,Win32,59.92329818,61b8f3437b89212fae0dfadf
7,2.3368,space,0.8233,0,262,262,228,1,,,5eab2dbd0c7a950efa32c3dc,64391619fac2e454df50b468,2023-04-14_10h10.41.585,PRaM,2021.2.3,Win32,59.92329818,61b8f3437b89212fae0dfadf
7,2.8809,space,1.0832,0,263,263,240,1,,,5eab2dbd0c7a950efa32c3dc,64391619fac2e454df50b468,2023-04-14_10h10.41.585,PRaM,2021.2.3,Win32,59.92329818,61b8f3437b89212fae0dfadf
6,3.6627,space,1.8344,0,264,264,22,1,,,5eab2dbd0c7a950efa32c3dc,64391619fac2e454df50b468,2023-04-14_10h10.41.585,PRaM,2021.2.3,Win32,59.92329818,61b8f3437b89212fae0dfadf
6,2.1377,space,0.3029,0,265,265,370,1,,,5eab2dbd0c7a950efa32c3dc,64391619fac2e454df50b468,2023-04-14_10h10.41.585,PRaM,2021.2.3,Win32,59.92329818,61b8f3437b89212fae0dfadf
4,2.7943,space,0.9672,0,266,266,91,1,,,5eab2dbd0c7a950efa32c3dc,64391619fac2e454df50b468,2023-04-14_10h10.41.585,PRaM,2021.2.3,Win32,59.92329818,61b8f3437b89212fae0dfadf
7,2.6831,space,1.2509,0,267,267,134,1,,,5eab2dbd0c7a950efa32c3dc,64391619fac2e454df50b468,2023-04-14_10h10.41.585,PRaM,2021.2.3,Win32,59.92329818,61b8f3437b89212fae0dfadf
9,3.3312,space,1.5717,0,268,268,320,1,,,5eab2dbd0c7a950efa32c3dc,64391619fac2e454df50b468,2023-04-14_10h10.41.585,PRaM,2021.2.3,Win32,59.92329818,61b8f3437b89212fae0dfadf
6,4.7692,space,3.3843,0,269,269,316,1,,,5eab2dbd0c7a950efa32c3dc,64391619fac2e454df50b468,2023-04-14_10h10.41.585,PRaM,2021.2.3,Win32,59.92329818,61b8f3437b89212fae0dfadf
6,8.427,space,7.1343,0,270,270,173,1,,,5eab2dbd0c7a950efa32c3dc,64391619fac2e454df50b468,2023-04-14_10h10.41.585,PRaM,2021.2.3,Win32,59.92329818,61b8f3437b89212fae0dfadf
5,3.937,space,2.2437,0,271,271,296,1,,,5eab2dbd0c7a950efa32c3dc,64391619fac2e454df50b468,2023-04-14_10h10.41.585,PRaM,2021.2.3,Win32,59.92329818,61b8f3437b89212fae0dfadf
4,3.1564,space,1.9834,0,272,272,332,1,,,5eab2dbd0c7a950efa32c3dc,64391619fac2e454df50b468,2023-04-14_10h10.41.585,PRaM,2021.2.3,Win32,59.92329818,61b8f3437b89212fae0dfadf
6,2.4992,space,1.148,0,273,273,127,1,,,5eab2dbd0c7a950efa32c3dc,64391619fac2e454df50b468,2023-04-14_10h10.41.585,PRaM,2021.2.3,Win32,59.92329818,61b8f3437b89212fae0dfadf
4,3.0351,space,2.0168,0,274,274,322,1,,,5eab2dbd0c7a950efa32c3dc,64391619fac2e454df50b468,2023-04-14_10h10.41.585,PRaM,2021.2.3,Win32,59.92329818,61b8f3437b89212fae0dfadf
4,9.6355,space,8.4372,0,275,275,111,1,,,5eab2dbd0c7a950efa32c3dc,64391619fac2e454df50b468,2023-04-14_10h10.41.585,PRaM,2021.2.3,Win32,59.92329818,61b8f3437b89212fae0dfadf
4,2.0788,space,0.572,0,276,276,212,1,,,5eab2dbd0c7a950efa32c3dc,64391619fac2e454df50b468,2023-04-14_10h10.41.585,PRaM,2021.2.3,Win32,59.92329818,61b8f3437b89212fae0dfadf
6,2.2155,space,0.7335,0,277,277,267,1,,,5eab2dbd0c7a950efa32c3dc,64391619fac2e454df50b468,2023-04-14_10h10.41.585,PRaM,2021.2.3,Win32,59.92329818,61b8f3437b89212fae0dfadf
7,58.8665,space,57.5782,0,278,278,3,1,,,5eab2dbd0c7a950efa32c3dc,64391619fac2e454df50b468,2023-04-14_10h10.41.585,PRaM,2021.2.3,Win32,59.92329818,61b8f3437b89212fae0dfadf
4,25.0305,space,25.0256,0,279,279,356,1,,,5eab2dbd0c7a950efa32c3dc,64391619fac2e454df50b468,2023-04-14_10h10.41.585,PRaM,2021.2.3,Win32,59.92329818,61b8f3437b89212fae0dfadf
6,42.5143,space,41.1435,0,280,280,350,1,,,5eab2dbd0c7a950efa32c3dc,64391619fac2e454df50b468,2023-04-14_10h10.41.585,PRaM,2021.2.3,Win32,59.92329818,61b8f3437b89212fae0dfadf
7,2.8944,space,1.5475,0,281,281,270,1,,,5eab2dbd0c7a950efa32c3dc,64391619fac2e454df50b468,2023-04-14_10h10.41.585,PRaM,2021.2.3,Win32,59.92329818,61b8f3437b89212fae0dfadf
6,44.9883,space,43.6508,0,282,282,344,1,,,5eab2dbd0c7a950efa32c3dc,64391619fac2e454df50b468,2023-04-14_10h10.41.585,PRaM,2021.2.3,Win32,59.92329818,61b8f3437b89212fae0dfadf
7,11.2935,space,9.7388,0,283,283,132,1,,,5eab2dbd0c7a950efa32c3dc,64391619fac2e454df50b468,2023-04-14_10h10.41.585,PRaM,2021.2.3,Win32,59.92329818,61b8f3437b89212fae0dfadf
9,5.3139,space,3.9342,0,284,284,61,1,,,5eab2dbd0c7a950efa32c3dc,64391619fac2e454df50b468,2023-04-14_10h10.41.585,PRaM,2021.2.3,Win32,59.92329818,61b8f3437b89212fae0dfadf
7,15.1641,space,13.7583,0,285,285,351,1,,,5eab2dbd0c7a950efa32c3dc,64391619fac2e454df50b468,2023-04-14_10h10.41.585,PRaM,2021.2.3,Win32,59.92329818,61b8f3437b89212fae0dfadf
3,3.5966,space,2.1177,0,286,286,354,1,,,5eab2dbd0c7a950efa32c3dc,64391619fac2e454df50b468,2023-04-14_10h10.41.585,PRaM,2021.2.3,Win32,59.92329818,61b8f3437b89212fae0dfadf
6,2.6232,space,0.9024,0,287,287,178,1,,,5eab2dbd0c7a950efa32c3dc,64391619fac2e454df50b468,2023-04-14_10h10.41.585,PRaM,2021.2.3,Win32,59.92329818,61b8f3437b89212fae0dfadf
4,2.8089,space,1.0928,0,288,288,254,1,,,5eab2dbd0c7a950efa32c3dc,64391619fac2e454df50b468,2023-04-14_10h10.41.585,PRaM,2021.2.3,Win32,59.92329818,61b8f3437b89212fae0dfadf
4,3.3878,space,1.934,0,289,289,73,1,,,5eab2dbd0c7a950efa32c3dc,64391619fac2e454df50b468,2023-04-14_10h10.41.585,PRaM,2021.2.3,Win32,59.92329818,61b8f3437b89212fae0dfadf
3,3.8224,space,2.2266,0,290,290,13,1,,,5eab2dbd0c7a950efa32c3dc,64391619fac2e454df50b468,2023-04-14_10h10.41.585,PRaM,2021.2.3,Win32,59.92329818,61b8f3437b89212fae0dfadf
1,2.3706,space,0.9542,0,291,291,67,1,,,5eab2dbd0c7a950efa32c3dc,64391619fac2e454df50b468,2023-04-14_10h10.41.585,PRaM,2021.2.3,Win32,59.92329818,61b8f3437b89212fae0dfadf
3,3.5176,space,1.8067,0,292,292,45,1,,,5eab2dbd0c7a950efa32c3dc,64391619fac2e454df50b468,2023-04-14_10h10.41.585,PRaM,2021.2.3,Win32,59.92329818,61b8f3437b89212fae0dfadf
4,2.3808,space,0.6778,0,293,293,337,1,,,5eab2dbd0c7a950efa32c3dc,64391619fac2e454df50b468,2023-04-14_10h10.41.585,PRaM,2021.2.3,Win32,59.92329818,61b8f3437b89212fae0dfadf
6,6.2736,space,4.5107,0,294,294,120,1,,,5eab2dbd0c7a950efa32c3dc,64391619fac2e454df50b468,2023-04-14_10h10.41.585,PRaM,2021.2.3,Win32,59.92329818,61b8f3437b89212fae0dfadf
4,3.0067,space,1.4672,0,295,295,21,1,,,5eab2dbd0c7a950efa32c3dc,64391619fac2e454df50b468,2023-04-14_10h10.41.585,PRaM,2021.2.3,Win32,59.92329818,61b8f3437b89212fae0dfadf
4,3.9077,space,2.1344,0,296,296,171,1,,,5eab2dbd0c7a950efa32c3dc,64391619fac2e454df50b468,2023-04-14_10h10.41.585,PRaM,2021.2.3,Win32,59.92329818,61b8f3437b89212fae0dfadf
6,18.2565,space,16.5178,0,297,297,150,1,,,5eab2dbd0c7a950efa32c3dc,64391619fac2e454df50b468,2023-04-14_10h10.41.585,PRaM,2021.2.3,Win32,59.92329818,61b8f3437b89212fae0dfadf
3,2.6491,space,1.3172,0,298,298,89,1,,,5eab2dbd0c7a950efa32c3dc,64391619fac2e454df50b468,2023-04-14_10h10.41.585,PRaM,2021.2.3,Win32,59.92329818,61b8f3437b89212fae0dfadf
2,3.5449,space,1.8842,0,299,299,49,1,,,5eab2dbd0c7a950efa32c3dc,64391619fac2e454df50b468,2023-04-14_10h10.41.585,PRaM,2021.2.3,Win32,59.92329818,61b8f3437b89212fae0dfadf
2,2.7728,space,0.953,0,300,300,129,1,,,5eab2dbd0c7a950efa32c3dc,64391619fac2e454df50b468,2023-04-14_10h10.41.585,PRaM,2021.2.3,Win32,59.92329818,61b8f3437b89212fae0dfadf
7,2.4923,space,0.8012,0,301,301,139,1,,,5eab2dbd0c7a950efa32c3dc,64391619fac2e454df50b468,2023-04-14_10h10.41.585,PRaM,2021.2.3,Win32,59.92329818,61b8f3437b89212fae0dfadf
4,3.688,space,1.8898,0,302,302,185,1,,,5eab2dbd0c7a950efa32c3dc,64391619fac2e454df50b468,2023-04-14_10h10.41.585,PRaM,2021.2.3,Win32,59.92329818,61b8f3437b89212fae0dfadf
7,2.6208,space,0.9007,0,303,303,334,1,,,5eab2dbd0c7a950efa32c3dc,64391619fac2e454df50b468,2023-04-14_10h10.41.585,PRaM,2021.2.3,Win32,59.92329818,61b8f3437b89212fae0dfadf
5,2.8986,space,1.2224,0,304,304,298,1,,,5eab2dbd0c7a950efa32c3dc,64391619fac2e454df50b468,2023-04-14_10h10.41.585,PRaM,2021.2.3,Win32,59.92329818,61b8f3437b89212fae0dfadf
6,2.4215,space,0.624,0,305,305,346,1,,,5eab2dbd0c7a950efa32c3dc,64391619fac2e454df50b468,2023-04-14_10h10.41.585,PRaM,2021.2.3,Win32,59.92329818,61b8f3437b89212fae0dfadf
5,3.2447,space,1.4664,0,306,306,367,1,,,5eab2dbd0c7a950efa32c3dc,64391619fac2e454df50b468,2023-04-14_10h10.41.585,PRaM,2021.2.3,Win32,59.92329818,61b8f3437b89212fae0dfadf
7,3.0511,space,1.2879,0,307,307,244,1,,,5eab2dbd0c7a950efa32c3dc,64391619fac2e454df50b468,2023-04-14_10h10.41.585,PRaM,2021.2.3,Win32,59.92329818,61b8f3437b89212fae0dfadf
4,3.0517,space,1.349,0,308,308,373,1,,,5eab2dbd0c7a950efa32c3dc,64391619fac2e454df50b468,2023-04-14_10h10.41.585,PRaM,2021.2.3,Win32,59.92329818,61b8f3437b89212fae0dfadf
2,3.4956,space,1.7358,0,309,309,1,1,,,5eab2dbd0c7a950efa32c3dc,64391619fac2e454df50b468,2023-04-14_10h10.41.585,PRaM,2021.2.3,Win32,59.92329818,61b8f3437b89212fae0dfadf
1,2.5311,space,0.7198,0,310,310,275,1,,,5eab2dbd0c7a950efa32c3dc,64391619fac2e454df50b468,2023-04-14_10h10.41.585,PRaM,2021.2.3,Win32,59.92329818,61b8f3437b89212fae0dfadf
6,4.2981,space,2.5684,0,311,311,12,1,,,5eab2dbd0c7a950efa32c3dc,64391619fac2e454df50b468,2023-04-14_10h10.41.585,PRaM,2021.2.3,Win32,59.92329818,61b8f3437b89212fae0dfadf
5,5.3676,space,3.6127,0,312,312,28,1,,,5eab2dbd0c7a950efa32c3dc,64391619fac2e454df50b468,2023-04-14_10h10.41.585,PRaM,2021.2.3,Win32,59.92329818,61b8f3437b89212fae0dfadf
4,10.0397,space,8.3741,0,313,313,138,1,,,5eab2dbd0c7a950efa32c3dc,64391619fac2e454df50b468,2023-04-14_10h10.41.585,PRaM,2021.2.3,Win32,59.92329818,61b8f3437b89212fae0dfadf
6,8.6041,space,6.8711,0,314,314,14,1,,,5eab2dbd0c7a950efa32c3dc,64391619fac2e454df50b468,2023-04-14_10h10.41.585,PRaM,2021.2.3,Win32,59.92329818,61b8f3437b89212fae0dfadf
6,3.7435,space,1.9534,0,315,315,27,1,,,5eab2dbd0c7a950efa32c3dc,64391619fac2e454df50b468,2023-04-14_10h10.41.585,PRaM,2021.2.3,Win32,59.92329818,61b8f3437b89212fae0dfadf
3,2.5538,space,0.7507,0,316,316,215,1,,,5eab2dbd0c7a950efa32c3dc,64391619fac2e454df50b468,2023-04-14_10h10.41.585,PRaM,2021.2.3,Win32,59.92329818,61b8f3437b89212fae0dfadf
9,5.2284,space,3.4841,0,317,317,83,1,,,5eab2dbd0c7a950efa32c3dc,64391619fac2e454df50b468,2023-04-14_10h10.41.585,PRaM,2021.2.3,Win32,59.92329818,61b8f3437b89212fae0dfadf
9,1.971,space,0.2067,0,318,318,331,1,,,5eab2dbd0c7a950efa32c3dc,64391619fac2e454df50b468,2023-04-14_10h10.41.585,PRaM,2021.2.3,Win32,59.92329818,61b8f3437b89212fae0dfadf
2,4.4517,space,2.7004,0,319,319,338,1,,,5eab2dbd0c7a950efa32c3dc,64391619fac2e454df50b468,2023-04-14_10h10.41.585,PRaM,2021.2.3,Win32,59.92329818,61b8f3437b89212fae0dfadf
6,3.5155,space,2.0175,0,320,320,237,1,,,5eab2dbd0c7a950efa32c3dc,64391619fac2e454df50b468,2023-04-14_10h10.41.585,PRaM,2021.2.3,Win32,59.92329818,61b8f3437b89212fae0dfadf
9,4.9182,space,3.1778,0,321,321,363,1,,,5eab2dbd0c7a950efa32c3dc,64391619fac2e454df50b468,2023-04-14_10h10.41.585,PRaM,2021.2.3,Win32,59.92329818,61b8f3437b89212fae0dfadf
6,4.8976,space,3.1336,0,322,322,0,1,,,5eab2dbd0c7a950efa32c3dc,64391619fac2e454df50b468,2023-04-14_10h10.41.585,PRaM,2021.2.3,Win32,59.92329818,61b8f3437b89212fae0dfadf
3,2.4043,space,0.6884,0,323,323,161,1,,,5eab2dbd0c7a950efa32c3dc,64391619fac2e454df50b468,2023-04-14_10h10.41.585,PRaM,2021.2.3,Win32,59.92329818,61b8f3437b89212fae0dfadf
6,2.7507,space,0.9343,0,324,324,149,1,,,5eab2dbd0c7a950efa32c3dc,64391619fac2e454df50b468,2023-04-14_10h10.41.585,PRaM,2021.2.3,Win32,59.92329818,61b8f3437b89212fae0dfadf
6,68.0949,space,66.4695,0,325,325,355,1,,,5eab2dbd0c7a950efa32c3dc,64391619fac2e454df50b468,2023-04-14_10h10.41.585,PRaM,2021.2.3,Win32,59.92329818,61b8f3437b89212fae0dfadf
6,2.3726,space,0.5931,0,326,326,72,1,,,5eab2dbd0c7a950efa32c3dc,64391619fac2e454df50b468,2023-04-14_10h10.41.585,PRaM,2021.2.3,Win32,59.92329818,61b8f3437b89212fae0dfadf
3,2.8532,space,1.194,0,327,327,189,1,,,5eab2dbd0c7a950efa32c3dc,64391619fac2e454df50b468,2023-04-14_10h10.41.585,PRaM,2021.2.3,Win32,59.92329818,61b8f3437b89212fae0dfadf
6,16.7606,space,15.3516,0,328,328,288,1,,,5eab2dbd0c7a950efa32c3dc,64391619fac2e454df50b468,2023-04-14_10h10.41.585,PRaM,2021.2.3,Win32,59.92329818,61b8f3437b89212fae0dfadf
4,53.0566,space,51.5853,0,329,329,293,1,,,5eab2dbd0c7a950efa32c3dc,64391619fac2e454df50b468,2023-04-14_10h10.41.585,PRaM,2021.2.3,Win32,59.92329818,61b8f3437b89212fae0dfadf
3,3.0424,space,1.4077,0,330,330,5,1,,,5eab2dbd0c7a950efa32c3dc,64391619fac2e454df50b468,2023-04-14_10h10.41.585,PRaM,2021.2.3,Win32,59.92329818,61b8f3437b89212fae0dfadf
1,2.131,space,0.4453,0,331,331,247,1,,,5eab2dbd0c7a950efa32c3dc,64391619fac2e454df50b468,2023-04-14_10h10.41.585,PRaM,2021.2.3,Win32,59.92329818,61b8f3437b89212fae0dfadf
7,3.1989,space,1.503,0,332,332,302,1,,,5eab2dbd0c7a950efa32c3dc,64391619fac2e454df50b468,2023-04-14_10h10.41.585,PRaM,2021.2.3,Win32,59.92329818,61b8f3437b89212fae0dfadf
3,1.9876,space,0.2511,0,333,333,231,1,,,5eab2dbd0c7a950efa32c3dc,64391619fac2e454df50b468,2023-04-14_10h10.41.585,PRaM,2021.2.3,Win32,59.92329818,61b8f3437b89212fae0dfadf
4,3.1547,space,1.5402,0,334,334,97,1,,,5eab2dbd0c7a950efa32c3dc,64391619fac2e454df50b468,2023-04-14_10h10.41.585,PRaM,2021.2.3,Win32,59.92329818,61b8f3437b89212fae0dfadf
6,2.4172,space,0.7603,0,335,335,162,1,,,5eab2dbd0c7a950efa32c3dc,64391619fac2e454df50b468,2023-04-14_10h10.41.585,PRaM,2021.2.3,Win32,59.92329818,61b8f3437b89212fae0dfadf
8,2.5089,space,1.1671,0,336,336,277,1,,,5eab2dbd0c7a950efa32c3dc,64391619fac2e454df50b468,2023-04-14_10h10.41.585,PRaM,2021.2.3,Win32,59.92329818,61b8f3437b89212fae0dfadf
6,11.5344,space,9.818,0,337,337,333,1,,,5eab2dbd0c7a950efa32c3dc,64391619fac2e454df50b468,2023-04-14_10h10.41.585,PRaM,2021.2.3,Win32,59.92329818,61b8f3437b89212fae0dfadf
4,5.0273,space,3.5763,0,338,338,176,1,,,5eab2dbd0c7a950efa32c3dc,64391619fac2e454df50b468,2023-04-14_10h10.41.585,PRaM,2021.2.3,Win32,59.92329818,61b8f3437b89212fae0dfadf
6,3.3374,space,1.7185,0,339,339,223,1,,,5eab2dbd0c7a950efa32c3dc,64391619fac2e454df50b468,2023-04-14_10h10.41.585,PRaM,2021.2.3,Win32,59.92329818,61b8f3437b89212fae0dfadf
6,1.806,space,0.1054,0,340,340,307,1,,,5eab2dbd0c7a950efa32c3dc,64391619fac2e454df50b468,2023-04-14_10h10.41.585,PRaM,2021.2.3,Win32,59.92329818,61b8f3437b89212fae0dfadf
6,10.5646,space,9.1177,0,341,341,249,1,,,5eab2dbd0c7a950efa32c3dc,64391619fac2e454df50b468,2023-04-14_10h10.41.585,PRaM,2021.2.3,Win32,59.92329818,61b8f3437b89212fae0dfadf
6,2.4414,space,0.8841,0,342,342,30,1,,,5eab2dbd0c7a950efa32c3dc,64391619fac2e454df50b468,2023-04-14_10h10.41.585,PRaM,2021.2.3,Win32,59.92329818,61b8f3437b89212fae0dfadf
7,2.7795,space,1.2991,0,343,343,110,1,,,5eab2dbd0c7a950efa32c3dc,64391619fac2e454df50b468,2023-04-14_10h10.41.585,PRaM,2021.2.3,Win32,59.92329818,61b8f3437b89212fae0dfadf
5,6.7104,space,4.9844,0,344,344,90,1,,,5eab2dbd0c7a950efa32c3dc,64391619fac2e454df50b468,2023-04-14_10h10.41.585,PRaM,2021.2.3,Win32,59.92329818,61b8f3437b89212fae0dfadf
8,6.0206,space,4.634,0,345,345,75,1,,,5eab2dbd0c7a950efa32c3dc,64391619fac2e454df50b468,2023-04-14_10h10.41.585,PRaM,2021.2.3,Win32,59.92329818,61b8f3437b89212fae0dfadf
6,5.0363,space,3.3591,0,346,346,177,1,,,5eab2dbd0c7a950efa32c3dc,64391619fac2e454df50b468,2023-04-14_10h10.41.585,PRaM,2021.2.3,Win32,59.92329818,61b8f3437b89212fae0dfadf
9,6.7932,space,5.3889,0,347,347,56,1,,,5eab2dbd0c7a950efa32c3dc,64391619fac2e454df50b468,2023-04-14_10h10.41.585,PRaM,2021.2.3,Win32,59.92329818,61b8f3437b89212fae0dfadf
4,8.8206,space,37.6565,0,348,348,345,1,,,5eab2dbd0c7a950efa32c3dc,64391619fac2e454df50b468,2023-04-14_10h10.41.585,PRaM,2021.2.3,Win32,59.92329818,61b8f3437b89212fae0dfadf
3,2.2134,space,0.554,0,349,349,229,1,,,5eab2dbd0c7a950efa32c3dc,64391619fac2e454df50b468,2023-04-14_10h10.41.585,PRaM,2021.2.3,Win32,59.92329818,61b8f3437b89212fae0dfadf
3,1.9588,space,0.4218,0,350,350,245,1,,,5eab2dbd0c7a950efa32c3dc,64391619fac2e454df50b468,2023-04-14_10h10.41.585,PRaM,2021.2.3,Win32,59.92329818,61b8f3437b89212fae0dfadf
6,3.2853,space,1.8174,0,351,351,319,1,,,5eab2dbd0c7a950efa32c3dc,64391619fac2e454df50b468,2023-04-14_10h10.41.585,PRaM,2021.2.3,Win32,59.92329818,61b8f3437b89212fae0dfadf
1,2.2675,space,0.6333,0,352,352,107,1,,,5eab2dbd0c7a950efa32c3dc,64391619fac2e454df50b468,2023-04-14_10h10.41.585,PRaM,2021.2.3,Win32,59.92329818,61b8f3437b89212fae0dfadf
3,3.1454,space,1.5091,0,353,353,126,1,,,5eab2dbd0c7a950efa32c3dc,64391619fac2e454df50b468,2023-04-14_10h10.41.585,PRaM,2021.2.3,Win32,59.92329818,61b8f3437b89212fae0dfadf
6,2.8448,space,1.2077,0,354,354,268,1,,,5eab2dbd0c7a950efa32c3dc,64391619fac2e454df50b468,2023-04-14_10h10.41.585,PRaM,2021.2.3,Win32,59.92329818,61b8f3437b89212fae0dfadf
4,4.9353,space,3.3511,0,355,355,226,1,,,5eab2dbd0c7a950efa32c3dc,64391619fac2e454df50b468,2023-04-14_10h10.41.585,PRaM,2021.2.3,Win32,59.92329818,61b8f3437b89212fae0dfadf
5,5.1602,space,3.7738,0,356,356,182,1,,,5eab2dbd0c7a950efa32c3dc,64391619fac2e454df50b468,2023-04-14_10h10.41.585,PRaM,2021.2.3,Win32,59.92329818,61b8f3437b89212fae0dfadf
4,3.11,space,1.7087,0,357,357,299,1,,,5eab2dbd0c7a950efa32c3dc,64391619fac2e454df50b468,2023-04-14_10h10.41.585,PRaM,2021.2.3,Win32,59.92329818,61b8f3437b89212fae0dfadf
6,2.6704,space,1.1461,0,358,358,123,1,,,5eab2dbd0c7a950efa32c3dc,64391619fac2e454df50b468,2023-04-14_10h10.41.585,PRaM,2021.2.3,Win32,59.92329818,61b8f3437b89212fae0dfadf
3,11.4682,space,10.1798,0,359,359,130,1,,,5eab2dbd0c7a950efa32c3dc,64391619fac2e454df50b468,2023-04-14_10h10.41.585,PRaM,2021.2.3,Win32,59.92329818,61b8f3437b89212fae0dfadf
6,8.4536,space,7.1843,0,360,360,211,1,,,5eab2dbd0c7a950efa32c3dc,64391619fac2e454df50b468,2023-04-14_10h10.41.585,PRaM,2021.2.3,Win32,59.92329818,61b8f3437b89212fae0dfadf
6,3.8192,space,2.3083,0,361,361,364,1,,,5eab2dbd0c7a950efa32c3dc,64391619fac2e454df50b468,2023-04-14_10h10.41.585,PRaM,2021.2.3,Win32,59.92329818,61b8f3437b89212fae0dfadf
7,4.0034,space,2.334,0,362,362,151,1,,,5eab2dbd0c7a950efa32c3dc,64391619fac2e454df50b468,2023-04-14_10h10.41.585,PRaM,2021.2.3,Win32,59.92329818,61b8f3437b89212fae0dfadf
6,2.2107,space,0.9176,0,363,363,313,1,,,5eab2dbd0c7a950efa32c3dc,64391619fac2e454df50b468,2023-04-14_10h10.41.585,PRaM,2021.2.3,Win32,59.92329818,61b8f3437b89212fae0dfadf
6,5.1744,space,3.6343,0,364,364,260,1,,,5eab2dbd0c7a950efa32c3dc,64391619fac2e454df50b468,2023-04-14_10h10.41.585,PRaM,2021.2.3,Win32,59.92329818,61b8f3437b89212fae0dfadf
6,2.9813,space,1.3005,0,365,365,199,1,,,5eab2dbd0c7a950efa32c3dc,64391619fac2e454df50b468,2023-04-14_10h10.41.585,PRaM,2021.2.3,Win32,59.92329818,61b8f3437b89212fae0dfadf
6,2.656,space,1.0942,0,366,366,292,1,,,5eab2dbd0c7a950efa32c3dc,64391619fac2e454df50b468,2023-04-14_10h10.41.585,PRaM,2021.2.3,Win32,59.92329818,61b8f3437b89212fae0dfadf
6,2.8888,space,1.1921,0,367,367,43,1,,,5eab2dbd0c7a950efa32c3dc,64391619fac2e454df50b468,2023-04-14_10h10.41.585,PRaM,2021.2.3,Win32,59.92329818,61b8f3437b89212fae0dfadf
7,3.0295,space,1.4056,0,368,368,347,1,,,5eab2dbd0c7a950efa32c3dc,64391619fac2e454df50b468,2023-04-14_10h10.41.585,PRaM,2021.2.3,Win32,59.92329818,61b8f3437b89212fae0dfadf
4,3.0113,space,1.5619,0,369,369,82,1,,,5eab2dbd0c7a950efa32c3dc,64391619fac2e454df50b468,2023-04-14_10h10.41.585,PRaM,2021.2.3,Win32,59.92329818,61b8f3437b89212fae0dfadf
7,2.6537,space,1.1627,0,370,370,285,1,,,5eab2dbd0c7a950efa32c3dc,64391619fac2e454df50b468,2023-04-14_10h10.41.585,PRaM,2021.2.3,Win32,59.92329818,61b8f3437b89212fae0dfadf
4,2.5242,space,0.8763,0,371,371,224,1,,,5eab2dbd0c7a950efa32c3dc,64391619fac2e454df50b468,2023-04-14_10h10.41.585,PRaM,2021.2.3,Win32,59.92329818,61b8f3437b89212fae0dfadf
4,6.7816,space,5.0845,0,372,372,155,1,,,5eab2dbd0c7a950efa32c3dc,64391619fac2e454df50b468,2023-04-14_10h10.41.585,PRaM,2021.2.3,Win32,59.92329818,61b8f3437b89212fae0dfadf
6,2.7206,space,1.0333,0,373,373,281,1,,,5eab2dbd0c7a950efa32c3dc,64391619fac2e454df50b468,2023-04-14_10h10.41.585,PRaM,2021.2.3,Win32,59.92329818,61b8f3437b89212fae0dfadf
4,4.7979,space,3.2238,0,374,374,261,1,,,5eab2dbd0c7a950efa32c3dc,64391619fac2e454df50b468,2023-04-14_10h10.41.585,PRaM,2021.2.3,Win32,59.92329818,61b8f3437b89212fae0dfadf
6,2.8199,space,1.0748,0,375,375,352,1,,,5eab2dbd0c7a950efa32c3dc,64391619fac2e454df50b468,2023-04-14_10h10.41.585,PRaM,2021.2.3,Win32,59.92329818,61b8f3437b89212fae0dfadf
4,2.9268,space,1.2279,0,376,376,234,1,,,5eab2dbd0c7a950efa32c3dc,64391619fac2e454df50b468,2023-04-14_10h10.41.585,PRaM,2021.2.3,Win32,59.92329818,61b8f3437b89212fae0dfadf
6,2.3257,space,0.6507,0,377,377,305,1,,,5eab2dbd0c7a950efa32c3dc,64391619fac2e454df50b468,2023-04-14_10h10.41.585,PRaM,2021.2.3,Win32,59.92329818,61b8f3437b89212fae0dfadf
