Rating.response,Rating.rt,EndTrial.keys,EndTrial.rt,trials.thisRepN,trials.thisTrialN,trials.thisN,trials.thisIndex,trials.ran,Pos1,Pos2,participant,session,date,expName,psychopyVersion,OS,frameRate,study_id
6,7.5275,space,11.1679,0,0,0,4,1,,,5ecda7f6509c241275db7396,6437731be3ac9e36ca3c3ce3,2023-04-12_22h15.35.992,PRaM,2021.2.3,Win32,59.79788315,61b8f3437b89212fae0dfadf
9,6.1481,space,4.9691,0,1,1,372,1,,,5ecda7f6509c241275db7396,6437731be3ac9e36ca3c3ce3,2023-04-12_22h15.35.992,PRaM,2021.2.3,Win32,59.79788315,61b8f3437b89212fae0dfadf
4,4.8238,space,3.6645,0,2,2,239,1,,,5ecda7f6509c241275db7396,6437731be3ac9e36ca3c3ce3,2023-04-12_22h15.35.992,PRaM,2021.2.3,Win32,59.79788315,61b8f3437b89212fae0dfadf
8,2.6803,space,1.4014,0,3,3,197,1,,,5ecda7f6509c241275db7396,6437731be3ac9e36ca3c3ce3,2023-04-12_22h15.35.992,PRaM,2021.2.3,Win32,59.79788315,61b8f3437b89212fae0dfadf
1,4.8092,space,3.6872,0,4,4,8,1,,,5ecda7f6509c241275db7396,6437731be3ac9e36ca3c3ce3,2023-04-12_22h15.35.992,PRaM,2021.2.3,Win32,59.79788315,61b8f3437b89212fae0dfadf
4,4.4884,space,3.2673,0,5,5,134,1,,,5ecda7f6509c241275db7396,6437731be3ac9e36ca3c3ce3,2023-04-12_22h15.35.992,PRaM,2021.2.3,Win32,59.79788315,61b8f3437b89212fae0dfadf
1,3.8345,space,2.2006,0,6,6,250,1,,,5ecda7f6509c241275db7396,6437731be3ac9e36ca3c3ce3,2023-04-12_22h15.35.992,PRaM,2021.2.3,Win32,59.79788315,61b8f3437b89212fae0dfadf
9,4.6489,space,3.1994,0,7,7,207,1,,,5ecda7f6509c241275db7396,6437731be3ac9e36ca3c3ce3,2023-04-12_22h15.35.992,PRaM,2021.2.3,Win32,59.79788315,61b8f3437b89212fae0dfadf
1,4.2816,space,3.0336,0,8,8,67,1,,,5ecda7f6509c241275db7396,6437731be3ac9e36ca3c3ce3,2023-04-12_22h15.35.992,PRaM,2021.2.3,Win32,59.79788315,61b8f3437b89212fae0dfadf
1,8.2993,space,6.7536,0,9,9,332,1,,,5ecda7f6509c241275db7396,6437731be3ac9e36ca3c3ce3,2023-04-12_22h15.35.992,PRaM,2021.2.3,Win32,59.79788315,61b8f3437b89212fae0dfadf
1,2.8544,space,1.2699,0,10,10,162,1,,,5ecda7f6509c241275db7396,6437731be3ac9e36ca3c3ce3,2023-04-12_22h15.35.992,PRaM,2021.2.3,Win32,59.79788315,61b8f3437b89212fae0dfadf
1,3.4125,space,3.8075,0,11,11,195,1,,,5ecda7f6509c241275db7396,6437731be3ac9e36ca3c3ce3,2023-04-12_22h15.35.992,PRaM,2021.2.3,Win32,59.79788315,61b8f3437b89212fae0dfadf
4,7.0054,space,8.0879,0,12,12,221,1,,,5ecda7f6509c241275db7396,6437731be3ac9e36ca3c3ce3,2023-04-12_22h15.35.992,PRaM,2021.2.3,Win32,59.79788315,61b8f3437b89212fae0dfadf
1,7.3116,space,5.7834,0,13,13,201,1,,,5ecda7f6509c241275db7396,6437731be3ac9e36ca3c3ce3,2023-04-12_22h15.35.992,PRaM,2021.2.3,Win32,59.79788315,61b8f3437b89212fae0dfadf
6,5.6896,space,5.1879,0,14,14,105,1,,,5ecda7f6509c241275db7396,6437731be3ac9e36ca3c3ce3,2023-04-12_22h15.35.992,PRaM,2021.2.3,Win32,59.79788315,61b8f3437b89212fae0dfadf
6,2.6005,space,0.9897,0,15,15,117,1,,,5ecda7f6509c241275db7396,6437731be3ac9e36ca3c3ce3,2023-04-12_22h15.35.992,PRaM,2021.2.3,Win32,59.79788315,61b8f3437b89212fae0dfadf
4,27.6323,space,30.2594,0,16,16,267,1,,,5ecda7f6509c241275db7396,6437731be3ac9e36ca3c3ce3,2023-04-12_22h15.35.992,PRaM,2021.2.3,Win32,59.79788315,61b8f3437b89212fae0dfadf
3,16.0923,space,14.5318,0,17,17,249,1,,,5ecda7f6509c241275db7396,6437731be3ac9e36ca3c3ce3,2023-04-12_22h15.35.992,PRaM,2021.2.3,Win32,59.79788315,61b8f3437b89212fae0dfadf
2,6.3384,space,4.7354,0,18,18,266,1,,,5ecda7f6509c241275db7396,6437731be3ac9e36ca3c3ce3,2023-04-12_22h15.35.992,PRaM,2021.2.3,Win32,59.79788315,61b8f3437b89212fae0dfadf
1,2.9126,space,1.3384,0,19,19,206,1,,,5ecda7f6509c241275db7396,6437731be3ac9e36ca3c3ce3,2023-04-12_22h15.35.992,PRaM,2021.2.3,Win32,59.79788315,61b8f3437b89212fae0dfadf
3,5.4131,space,7.2174,0,20,20,365,1,,,5ecda7f6509c241275db7396,6437731be3ac9e36ca3c3ce3,2023-04-12_22h15.35.992,PRaM,2021.2.3,Win32,59.79788315,61b8f3437b89212fae0dfadf
6,3.8029,space,2.5365,0,21,21,140,1,,,5ecda7f6509c241275db7396,6437731be3ac9e36ca3c3ce3,2023-04-12_22h15.35.992,PRaM,2021.2.3,Win32,59.79788315,61b8f3437b89212fae0dfadf
3,7.4858,space,5.9422,0,22,22,178,1,,,5ecda7f6509c241275db7396,6437731be3ac9e36ca3c3ce3,2023-04-12_22h15.35.992,PRaM,2021.2.3,Win32,59.79788315,61b8f3437b89212fae0dfadf
2,6.3474,space,5.0176,0,23,23,174,1,,,5ecda7f6509c241275db7396,6437731be3ac9e36ca3c3ce3,2023-04-12_22h15.35.992,PRaM,2021.2.3,Win32,59.79788315,61b8f3437b89212fae0dfadf
1,6.4824,space,5.2525,0,24,24,355,1,,,5ecda7f6509c241275db7396,6437731be3ac9e36ca3c3ce3,2023-04-12_22h15.35.992,PRaM,2021.2.3,Win32,59.79788315,61b8f3437b89212fae0dfadf
6,5.1367,space,3.6939,0,25,25,256,1,,,5ecda7f6509c241275db7396,6437731be3ac9e36ca3c3ce3,2023-04-12_22h15.35.992,PRaM,2021.2.3,Win32,59.79788315,61b8f3437b89212fae0dfadf
9,6.9489,space,5.4346,0,26,26,53,1,,,5ecda7f6509c241275db7396,6437731be3ac9e36ca3c3ce3,2023-04-12_22h15.35.992,PRaM,2021.2.3,Win32,59.79788315,61b8f3437b89212fae0dfadf
1,3.5145,space,1.9037,0,27,27,9,1,,,5ecda7f6509c241275db7396,6437731be3ac9e36ca3c3ce3,2023-04-12_22h15.35.992,PRaM,2021.2.3,Win32,59.79788315,61b8f3437b89212fae0dfadf
1,2.3878,space,0.7513,0,28,28,28,1,,,5ecda7f6509c241275db7396,6437731be3ac9e36ca3c3ce3,2023-04-12_22h15.35.992,PRaM,2021.2.3,Win32,59.79788315,61b8f3437b89212fae0dfadf
1,10.6073,space,8.9046,0,29,29,309,1,,,5ecda7f6509c241275db7396,6437731be3ac9e36ca3c3ce3,2023-04-12_22h15.35.992,PRaM,2021.2.3,Win32,59.79788315,61b8f3437b89212fae0dfadf
5,7.1079,space,5.7657,0,30,30,339,1,,,5ecda7f6509c241275db7396,6437731be3ac9e36ca3c3ce3,2023-04-12_22h15.35.992,PRaM,2021.2.3,Win32,59.79788315,61b8f3437b89212fae0dfadf
6,4.1867,space,2.8188,0,31,31,90,1,,,5ecda7f6509c241275db7396,6437731be3ac9e36ca3c3ce3,2023-04-12_22h15.35.992,PRaM,2021.2.3,Win32,59.79788315,61b8f3437b89212fae0dfadf
7,4.0335,space,2.4581,0,32,32,180,1,,,5ecda7f6509c241275db7396,6437731be3ac9e36ca3c3ce3,2023-04-12_22h15.35.992,PRaM,2021.2.3,Win32,59.79788315,61b8f3437b89212fae0dfadf
4,10.4842,space,8.9323,0,33,33,200,1,,,5ecda7f6509c241275db7396,6437731be3ac9e36ca3c3ce3,2023-04-12_22h15.35.992,PRaM,2021.2.3,Win32,59.79788315,61b8f3437b89212fae0dfadf
1,5.1385,space,4.3631,0,34,34,73,1,,,5ecda7f6509c241275db7396,6437731be3ac9e36ca3c3ce3,2023-04-12_22h15.35.992,PRaM,2021.2.3,Win32,59.79788315,61b8f3437b89212fae0dfadf
8,3.895,space,2.5259,0,35,35,137,1,,,5ecda7f6509c241275db7396,6437731be3ac9e36ca3c3ce3,2023-04-12_22h15.35.992,PRaM,2021.2.3,Win32,59.79788315,61b8f3437b89212fae0dfadf
1,3.344,space,1.8015,0,36,36,176,1,,,5ecda7f6509c241275db7396,6437731be3ac9e36ca3c3ce3,2023-04-12_22h15.35.992,PRaM,2021.2.3,Win32,59.79788315,61b8f3437b89212fae0dfadf
6,4.0012,space,2.3513,0,37,37,72,1,,,5ecda7f6509c241275db7396,6437731be3ac9e36ca3c3ce3,2023-04-12_22h15.35.992,PRaM,2021.2.3,Win32,59.79788315,61b8f3437b89212fae0dfadf
7,2.8815,space,1.4006,0,38,38,114,1,,,5ecda7f6509c241275db7396,6437731be3ac9e36ca3c3ce3,2023-04-12_22h15.35.992,PRaM,2021.2.3,Win32,59.79788315,61b8f3437b89212fae0dfadf
1,5.7687,space,4.3195,0,39,39,241,1,,,5ecda7f6509c241275db7396,6437731be3ac9e36ca3c3ce3,2023-04-12_22h15.35.992,PRaM,2021.2.3,Win32,59.79788315,61b8f3437b89212fae0dfadf
1,5.3634,space,3.851,0,40,40,22,1,,,5ecda7f6509c241275db7396,6437731be3ac9e36ca3c3ce3,2023-04-12_22h15.35.992,PRaM,2021.2.3,Win32,59.79788315,61b8f3437b89212fae0dfadf
7,5.8163,space,4.8334,0,41,41,278,1,,,5ecda7f6509c241275db7396,6437731be3ac9e36ca3c3ce3,2023-04-12_22h15.35.992,PRaM,2021.2.3,Win32,59.79788315,61b8f3437b89212fae0dfadf
1,4.4014,space,3.0175,0,42,42,34,1,,,5ecda7f6509c241275db7396,6437731be3ac9e36ca3c3ce3,2023-04-12_22h15.35.992,PRaM,2021.2.3,Win32,59.79788315,61b8f3437b89212fae0dfadf
6,3.2834,space,3.2668,0,43,43,302,1,,,5ecda7f6509c241275db7396,6437731be3ac9e36ca3c3ce3,2023-04-12_22h15.35.992,PRaM,2021.2.3,Win32,59.79788315,61b8f3437b89212fae0dfadf
1,3.7008,space,2.2364,0,44,44,41,1,,,5ecda7f6509c241275db7396,6437731be3ac9e36ca3c3ce3,2023-04-12_22h15.35.992,PRaM,2021.2.3,Win32,59.79788315,61b8f3437b89212fae0dfadf
1,5.2019,space,3.7461,0,45,45,282,1,,,5ecda7f6509c241275db7396,6437731be3ac9e36ca3c3ce3,2023-04-12_22h15.35.992,PRaM,2021.2.3,Win32,59.79788315,61b8f3437b89212fae0dfadf
2,7.8653,space,6.2832,0,46,46,351,1,,,5ecda7f6509c241275db7396,6437731be3ac9e36ca3c3ce3,2023-04-12_22h15.35.992,PRaM,2021.2.3,Win32,59.79788315,61b8f3437b89212fae0dfadf
1,2.9513,space,1.3166,0,47,47,189,1,,,5ecda7f6509c241275db7396,6437731be3ac9e36ca3c3ce3,2023-04-12_22h15.35.992,PRaM,2021.2.3,Win32,59.79788315,61b8f3437b89212fae0dfadf
2,4.8361,space,3.1511,0,48,48,246,1,,,5ecda7f6509c241275db7396,6437731be3ac9e36ca3c3ce3,2023-04-12_22h15.35.992,PRaM,2021.2.3,Win32,59.79788315,61b8f3437b89212fae0dfadf
7,7.3322,space,5.7664,0,49,49,264,1,,,5ecda7f6509c241275db7396,6437731be3ac9e36ca3c3ce3,2023-04-12_22h15.35.992,PRaM,2021.2.3,Win32,59.79788315,61b8f3437b89212fae0dfadf
1,9.3047,space,7.6667,0,50,50,148,1,,,5ecda7f6509c241275db7396,6437731be3ac9e36ca3c3ce3,2023-04-12_22h15.35.992,PRaM,2021.2.3,Win32,59.79788315,61b8f3437b89212fae0dfadf
7,5.9554,space,4.35,0,51,51,88,1,,,5ecda7f6509c241275db7396,6437731be3ac9e36ca3c3ce3,2023-04-12_22h15.35.992,PRaM,2021.2.3,Win32,59.79788315,61b8f3437b89212fae0dfadf
3,7.7186,space,6.6999,0,52,52,123,1,,,5ecda7f6509c241275db7396,6437731be3ac9e36ca3c3ce3,2023-04-12_22h15.35.992,PRaM,2021.2.3,Win32,59.79788315,61b8f3437b89212fae0dfadf
1,2.9742,space,2.7798,0,53,53,251,1,,,5ecda7f6509c241275db7396,6437731be3ac9e36ca3c3ce3,2023-04-12_22h15.35.992,PRaM,2021.2.3,Win32,59.79788315,61b8f3437b89212fae0dfadf
3,7.8786,space,6.2499,0,54,54,139,1,,,5ecda7f6509c241275db7396,6437731be3ac9e36ca3c3ce3,2023-04-12_22h15.35.992,PRaM,2021.2.3,Win32,59.79788315,61b8f3437b89212fae0dfadf
1,3.5994,space,2.0345,0,55,55,91,1,,,5ecda7f6509c241275db7396,6437731be3ac9e36ca3c3ce3,2023-04-12_22h15.35.992,PRaM,2021.2.3,Win32,59.79788315,61b8f3437b89212fae0dfadf
2,5.8631,space,4.1988,0,56,56,344,1,,,5ecda7f6509c241275db7396,6437731be3ac9e36ca3c3ce3,2023-04-12_22h15.35.992,PRaM,2021.2.3,Win32,59.79788315,61b8f3437b89212fae0dfadf
4,4.9922,space,3.8877,0,57,57,167,1,,,5ecda7f6509c241275db7396,6437731be3ac9e36ca3c3ce3,2023-04-12_22h15.35.992,PRaM,2021.2.3,Win32,59.79788315,61b8f3437b89212fae0dfadf
1,3.4647,space,2.6871,0,58,58,193,1,,,5ecda7f6509c241275db7396,6437731be3ac9e36ca3c3ce3,2023-04-12_22h15.35.992,PRaM,2021.2.3,Win32,59.79788315,61b8f3437b89212fae0dfadf
7,3.1074,space,1.5179,0,59,59,102,1,,,5ecda7f6509c241275db7396,6437731be3ac9e36ca3c3ce3,2023-04-12_22h15.35.992,PRaM,2021.2.3,Win32,59.79788315,61b8f3437b89212fae0dfadf
6,7.0659,space,5.6674,0,60,60,208,1,,,5ecda7f6509c241275db7396,6437731be3ac9e36ca3c3ce3,2023-04-12_22h15.35.992,PRaM,2021.2.3,Win32,59.79788315,61b8f3437b89212fae0dfadf
8,3.0161,space,1.4516,0,61,61,196,1,,,5ecda7f6509c241275db7396,6437731be3ac9e36ca3c3ce3,2023-04-12_22h15.35.992,PRaM,2021.2.3,Win32,59.79788315,61b8f3437b89212fae0dfadf
1,5.5547,space,3.9339,0,62,62,116,1,,,5ecda7f6509c241275db7396,6437731be3ac9e36ca3c3ce3,2023-04-12_22h15.35.992,PRaM,2021.2.3,Win32,59.79788315,61b8f3437b89212fae0dfadf
4,4.8947,space,3.7949,0,63,63,13,1,,,5ecda7f6509c241275db7396,6437731be3ac9e36ca3c3ce3,2023-04-12_22h15.35.992,PRaM,2021.2.3,Win32,59.79788315,61b8f3437b89212fae0dfadf
4,9.6517,space,8.3162,0,64,64,119,1,,,5ecda7f6509c241275db7396,6437731be3ac9e36ca3c3ce3,2023-04-12_22h15.35.992,PRaM,2021.2.3,Win32,59.79788315,61b8f3437b89212fae0dfadf
1,8.4352,space,7.0812,0,65,65,361,1,,,5ecda7f6509c241275db7396,6437731be3ac9e36ca3c3ce3,2023-04-12_22h15.35.992,PRaM,2021.2.3,Win32,59.79788315,61b8f3437b89212fae0dfadf
6,3.7519,space,2.2012,0,66,66,165,1,,,5ecda7f6509c241275db7396,6437731be3ac9e36ca3c3ce3,2023-04-12_22h15.35.992,PRaM,2021.2.3,Win32,59.79788315,61b8f3437b89212fae0dfadf
7,3.649,space,2.0818,0,67,67,297,1,,,5ecda7f6509c241275db7396,6437731be3ac9e36ca3c3ce3,2023-04-12_22h15.35.992,PRaM,2021.2.3,Win32,59.79788315,61b8f3437b89212fae0dfadf
1,6.377,space,4.8519,0,68,68,2,1,,,5ecda7f6509c241275db7396,6437731be3ac9e36ca3c3ce3,2023-04-12_22h15.35.992,PRaM,2021.2.3,Win32,59.79788315,61b8f3437b89212fae0dfadf
6,4.6365,space,3.0185,0,69,69,219,1,,,5ecda7f6509c241275db7396,6437731be3ac9e36ca3c3ce3,2023-04-12_22h15.35.992,PRaM,2021.2.3,Win32,59.79788315,61b8f3437b89212fae0dfadf
5,6.4662,space,4.9872,0,70,70,244,1,,,5ecda7f6509c241275db7396,6437731be3ac9e36ca3c3ce3,2023-04-12_22h15.35.992,PRaM,2021.2.3,Win32,59.79788315,61b8f3437b89212fae0dfadf
1,3.1429,space,1.5331,0,71,71,82,1,,,5ecda7f6509c241275db7396,6437731be3ac9e36ca3c3ce3,2023-04-12_22h15.35.992,PRaM,2021.2.3,Win32,59.79788315,61b8f3437b89212fae0dfadf
4,4.4331,space,2.8177,0,72,72,242,1,,,5ecda7f6509c241275db7396,6437731be3ac9e36ca3c3ce3,2023-04-12_22h15.35.992,PRaM,2021.2.3,Win32,59.79788315,61b8f3437b89212fae0dfadf
5,3.6804,space,1.9859,0,73,73,179,1,,,5ecda7f6509c241275db7396,6437731be3ac9e36ca3c3ce3,2023-04-12_22h15.35.992,PRaM,2021.2.3,Win32,59.79788315,61b8f3437b89212fae0dfadf
1,6.5321,space,4.8527,0,74,74,357,1,,,5ecda7f6509c241275db7396,6437731be3ac9e36ca3c3ce3,2023-04-12_22h15.35.992,PRaM,2021.2.3,Win32,59.79788315,61b8f3437b89212fae0dfadf
7,4.0498,space,2.351,0,75,75,323,1,,,5ecda7f6509c241275db7396,6437731be3ac9e36ca3c3ce3,2023-04-12_22h15.35.992,PRaM,2021.2.3,Win32,59.79788315,61b8f3437b89212fae0dfadf
1,3.0376,space,1.6174,0,76,76,35,1,,,5ecda7f6509c241275db7396,6437731be3ac9e36ca3c3ce3,2023-04-12_22h15.35.992,PRaM,2021.2.3,Win32,59.79788315,61b8f3437b89212fae0dfadf
1,2.4142,space,0.7398,0,77,77,89,1,,,5ecda7f6509c241275db7396,6437731be3ac9e36ca3c3ce3,2023-04-12_22h15.35.992,PRaM,2021.2.3,Win32,59.79788315,61b8f3437b89212fae0dfadf
4,7.2147,space,5.534,0,78,78,168,1,,,5ecda7f6509c241275db7396,6437731be3ac9e36ca3c3ce3,2023-04-12_22h15.35.992,PRaM,2021.2.3,Win32,59.79788315,61b8f3437b89212fae0dfadf
6,3.9487,space,3.0683,0,79,79,350,1,,,5ecda7f6509c241275db7396,6437731be3ac9e36ca3c3ce3,2023-04-12_22h15.35.992,PRaM,2021.2.3,Win32,59.79788315,61b8f3437b89212fae0dfadf
7,4.1297,space,2.4917,0,80,80,66,1,,,5ecda7f6509c241275db7396,6437731be3ac9e36ca3c3ce3,2023-04-12_22h15.35.992,PRaM,2021.2.3,Win32,59.79788315,61b8f3437b89212fae0dfadf
1,4.6528,space,2.9845,0,81,81,27,1,,,5ecda7f6509c241275db7396,6437731be3ac9e36ca3c3ce3,2023-04-12_22h15.35.992,PRaM,2021.2.3,Win32,59.79788315,61b8f3437b89212fae0dfadf
6,4.1831,space,2.5703,0,82,82,238,1,,,5ecda7f6509c241275db7396,6437731be3ac9e36ca3c3ce3,2023-04-12_22h15.35.992,PRaM,2021.2.3,Win32,59.79788315,61b8f3437b89212fae0dfadf
4,7.8851,space,6.2162,0,83,83,263,1,,,5ecda7f6509c241275db7396,6437731be3ac9e36ca3c3ce3,2023-04-12_22h15.35.992,PRaM,2021.2.3,Win32,59.79788315,61b8f3437b89212fae0dfadf
1,8.486,space,6.8525,0,84,84,92,1,,,5ecda7f6509c241275db7396,6437731be3ac9e36ca3c3ce3,2023-04-12_22h15.35.992,PRaM,2021.2.3,Win32,59.79788315,61b8f3437b89212fae0dfadf
1,3.2384,space,1.7075,0,85,85,106,1,,,5ecda7f6509c241275db7396,6437731be3ac9e36ca3c3ce3,2023-04-12_22h15.35.992,PRaM,2021.2.3,Win32,59.79788315,61b8f3437b89212fae0dfadf
1,2.0224,space,0.367,0,86,86,322,1,,,5ecda7f6509c241275db7396,6437731be3ac9e36ca3c3ce3,2023-04-12_22h15.35.992,PRaM,2021.2.3,Win32,59.79788315,61b8f3437b89212fae0dfadf
7,4.4276,space,2.7208,0,87,87,42,1,,,5ecda7f6509c241275db7396,6437731be3ac9e36ca3c3ce3,2023-04-12_22h15.35.992,PRaM,2021.2.3,Win32,59.79788315,61b8f3437b89212fae0dfadf
7,9.2392,space,7.5622,0,88,88,38,1,,,5ecda7f6509c241275db7396,6437731be3ac9e36ca3c3ce3,2023-04-12_22h15.35.992,PRaM,2021.2.3,Win32,59.79788315,61b8f3437b89212fae0dfadf
6,2.5714,space,0.9301,0,89,89,154,1,,,5ecda7f6509c241275db7396,6437731be3ac9e36ca3c3ce3,2023-04-12_22h15.35.992,PRaM,2021.2.3,Win32,59.79788315,61b8f3437b89212fae0dfadf
5,5.3741,space,3.6697,0,90,90,280,1,,,5ecda7f6509c241275db7396,6437731be3ac9e36ca3c3ce3,2023-04-12_22h15.35.992,PRaM,2021.2.3,Win32,59.79788315,61b8f3437b89212fae0dfadf
3,8.1394,space,6.8931,0,91,91,63,1,,,5ecda7f6509c241275db7396,6437731be3ac9e36ca3c3ce3,2023-04-12_22h15.35.992,PRaM,2021.2.3,Win32,59.79788315,61b8f3437b89212fae0dfadf
1,4.6722,space,3.5052,0,92,92,360,1,,,5ecda7f6509c241275db7396,6437731be3ac9e36ca3c3ce3,2023-04-12_22h15.35.992,PRaM,2021.2.3,Win32,59.79788315,61b8f3437b89212fae0dfadf
7,5.615,space,3.9589,0,93,93,298,1,,,5ecda7f6509c241275db7396,6437731be3ac9e36ca3c3ce3,2023-04-12_22h15.35.992,PRaM,2021.2.3,Win32,59.79788315,61b8f3437b89212fae0dfadf
1,10.639,space,9.1985,0,94,94,310,1,,,5ecda7f6509c241275db7396,6437731be3ac9e36ca3c3ce3,2023-04-12_22h15.35.992,PRaM,2021.2.3,Win32,59.79788315,61b8f3437b89212fae0dfadf
1,4.155,space,5.6019,0,95,95,331,1,,,5ecda7f6509c241275db7396,6437731be3ac9e36ca3c3ce3,2023-04-12_22h15.35.992,PRaM,2021.2.3,Win32,59.79788315,61b8f3437b89212fae0dfadf
4,9.0636,space,7.4368,0,96,96,186,1,,,5ecda7f6509c241275db7396,6437731be3ac9e36ca3c3ce3,2023-04-12_22h15.35.992,PRaM,2021.2.3,Win32,59.79788315,61b8f3437b89212fae0dfadf
6,6.9992,space,5.5027,0,97,97,51,1,,,5ecda7f6509c241275db7396,6437731be3ac9e36ca3c3ce3,2023-04-12_22h15.35.992,PRaM,2021.2.3,Win32,59.79788315,61b8f3437b89212fae0dfadf
1,4.121,space,3.0012,0,98,98,374,1,,,5ecda7f6509c241275db7396,6437731be3ac9e36ca3c3ce3,2023-04-12_22h15.35.992,PRaM,2021.2.3,Win32,59.79788315,61b8f3437b89212fae0dfadf
4,5.2344,space,3.5339,0,99,99,43,1,,,5ecda7f6509c241275db7396,6437731be3ac9e36ca3c3ce3,2023-04-12_22h15.35.992,PRaM,2021.2.3,Win32,59.79788315,61b8f3437b89212fae0dfadf
3,7.5758,space,5.9666,0,100,100,18,1,,,5ecda7f6509c241275db7396,6437731be3ac9e36ca3c3ce3,2023-04-12_22h15.35.992,PRaM,2021.2.3,Win32,59.79788315,61b8f3437b89212fae0dfadf
4,4.9269,space,3.948,0,101,101,69,1,,,5ecda7f6509c241275db7396,6437731be3ac9e36ca3c3ce3,2023-04-12_22h15.35.992,PRaM,2021.2.3,Win32,59.79788315,61b8f3437b89212fae0dfadf
7,3.4352,space,2.0344,0,102,102,17,1,,,5ecda7f6509c241275db7396,6437731be3ac9e36ca3c3ce3,2023-04-12_22h15.35.992,PRaM,2021.2.3,Win32,59.79788315,61b8f3437b89212fae0dfadf
2,4.1858,space,2.4843,0,103,103,296,1,,,5ecda7f6509c241275db7396,6437731be3ac9e36ca3c3ce3,2023-04-12_22h15.35.992,PRaM,2021.2.3,Win32,59.79788315,61b8f3437b89212fae0dfadf
4,4.412,space,3.5868,0,104,104,156,1,,,5ecda7f6509c241275db7396,6437731be3ac9e36ca3c3ce3,2023-04-12_22h15.35.992,PRaM,2021.2.3,Win32,59.79788315,61b8f3437b89212fae0dfadf
1,2.9167,space,1.2514,0,105,105,237,1,,,5ecda7f6509c241275db7396,6437731be3ac9e36ca3c3ce3,2023-04-12_22h15.35.992,PRaM,2021.2.3,Win32,59.79788315,61b8f3437b89212fae0dfadf
1,3.005,space,1.5683,0,106,106,70,1,,,5ecda7f6509c241275db7396,6437731be3ac9e36ca3c3ce3,2023-04-12_22h15.35.992,PRaM,2021.2.3,Win32,59.79788315,61b8f3437b89212fae0dfadf
1,2.2719,space,0.7524,0,107,107,163,1,,,5ecda7f6509c241275db7396,6437731be3ac9e36ca3c3ce3,2023-04-12_22h15.35.992,PRaM,2021.2.3,Win32,59.79788315,61b8f3437b89212fae0dfadf
1,1.9772,space,0.3508,0,108,108,128,1,,,5ecda7f6509c241275db7396,6437731be3ac9e36ca3c3ce3,2023-04-12_22h15.35.992,PRaM,2021.2.3,Win32,59.79788315,61b8f3437b89212fae0dfadf
1,1.9068,space,0.4013,0,109,109,377,1,,,5ecda7f6509c241275db7396,6437731be3ac9e36ca3c3ce3,2023-04-12_22h15.35.992,PRaM,2021.2.3,Win32,59.79788315,61b8f3437b89212fae0dfadf
7,4.0958,space,2.3869,0,110,110,342,1,,,5ecda7f6509c241275db7396,6437731be3ac9e36ca3c3ce3,2023-04-12_22h15.35.992,PRaM,2021.2.3,Win32,59.79788315,61b8f3437b89212fae0dfadf
3,7.2005,space,5.8028,0,111,111,375,1,,,5ecda7f6509c241275db7396,6437731be3ac9e36ca3c3ce3,2023-04-12_22h15.35.992,PRaM,2021.2.3,Win32,59.79788315,61b8f3437b89212fae0dfadf
1,4.0826,space,3.2136,0,112,112,133,1,,,5ecda7f6509c241275db7396,6437731be3ac9e36ca3c3ce3,2023-04-12_22h15.35.992,PRaM,2021.2.3,Win32,59.79788315,61b8f3437b89212fae0dfadf
1,25.6222,space,23.9517,0,113,113,175,1,,,5ecda7f6509c241275db7396,6437731be3ac9e36ca3c3ce3,2023-04-12_22h15.35.992,PRaM,2021.2.3,Win32,59.79788315,61b8f3437b89212fae0dfadf
6,3.6318,space,1.9673,0,114,114,281,1,,,5ecda7f6509c241275db7396,6437731be3ac9e36ca3c3ce3,2023-04-12_22h15.35.992,PRaM,2021.2.3,Win32,59.79788315,61b8f3437b89212fae0dfadf
6,11.5137,space,9.9545,0,115,115,85,1,,,5ecda7f6509c241275db7396,6437731be3ac9e36ca3c3ce3,2023-04-12_22h15.35.992,PRaM,2021.2.3,Win32,59.79788315,61b8f3437b89212fae0dfadf
1,4.0785,space,2.4339,0,116,116,97,1,,,5ecda7f6509c241275db7396,6437731be3ac9e36ca3c3ce3,2023-04-12_22h15.35.992,PRaM,2021.2.3,Win32,59.79788315,61b8f3437b89212fae0dfadf
6,8.1246,space,6.4668,0,117,117,0,1,,,5ecda7f6509c241275db7396,6437731be3ac9e36ca3c3ce3,2023-04-12_22h15.35.992,PRaM,2021.2.3,Win32,59.79788315,61b8f3437b89212fae0dfadf
8,4.104,space,2.4087,0,118,118,222,1,,,5ecda7f6509c241275db7396,6437731be3ac9e36ca3c3ce3,2023-04-12_22h15.35.992,PRaM,2021.2.3,Win32,59.79788315,61b8f3437b89212fae0dfadf
1,3.5155,space,1.9923,0,119,119,245,1,,,5ecda7f6509c241275db7396,6437731be3ac9e36ca3c3ce3,2023-04-12_22h15.35.992,PRaM,2021.2.3,Win32,59.79788315,61b8f3437b89212fae0dfadf
2,4.53,space,5.1558,0,120,120,223,1,,,5ecda7f6509c241275db7396,6437731be3ac9e36ca3c3ce3,2023-04-12_22h15.35.992,PRaM,2021.2.3,Win32,59.79788315,61b8f3437b89212fae0dfadf
1,4.3742,space,2.6705,0,121,121,204,1,,,5ecda7f6509c241275db7396,6437731be3ac9e36ca3c3ce3,2023-04-12_22h15.35.992,PRaM,2021.2.3,Win32,59.79788315,61b8f3437b89212fae0dfadf
1,2.2605,space,1.0868,0,122,122,111,1,,,5ecda7f6509c241275db7396,6437731be3ac9e36ca3c3ce3,2023-04-12_22h15.35.992,PRaM,2021.2.3,Win32,59.79788315,61b8f3437b89212fae0dfadf
1,9.1552,space,8.5489,0,123,123,284,1,,,5ecda7f6509c241275db7396,6437731be3ac9e36ca3c3ce3,2023-04-12_22h15.35.992,PRaM,2021.2.3,Win32,59.79788315,61b8f3437b89212fae0dfadf
1,2.9614,space,1.2379,0,124,124,103,1,,,5ecda7f6509c241275db7396,6437731be3ac9e36ca3c3ce3,2023-04-12_22h15.35.992,PRaM,2021.2.3,Win32,59.79788315,61b8f3437b89212fae0dfadf
1,2.6086,space,3.2533,0,125,125,131,1,,,5ecda7f6509c241275db7396,6437731be3ac9e36ca3c3ce3,2023-04-12_22h15.35.992,PRaM,2021.2.3,Win32,59.79788315,61b8f3437b89212fae0dfadf
9,4.3888,space,2.7174,0,126,126,279,1,,,5ecda7f6509c241275db7396,6437731be3ac9e36ca3c3ce3,2023-04-12_22h15.35.992,PRaM,2021.2.3,Win32,59.79788315,61b8f3437b89212fae0dfadf
3,7.2373,space,5.5913,0,127,127,336,1,,,5ecda7f6509c241275db7396,6437731be3ac9e36ca3c3ce3,2023-04-12_22h15.35.992,PRaM,2021.2.3,Win32,59.79788315,61b8f3437b89212fae0dfadf
1,9.2471,space,7.6383,0,128,128,130,1,,,5ecda7f6509c241275db7396,6437731be3ac9e36ca3c3ce3,2023-04-12_22h15.35.992,PRaM,2021.2.3,Win32,59.79788315,61b8f3437b89212fae0dfadf
1,4.3996,space,2.9708,0,129,129,354,1,,,5ecda7f6509c241275db7396,6437731be3ac9e36ca3c3ce3,2023-04-12_22h15.35.992,PRaM,2021.2.3,Win32,59.79788315,61b8f3437b89212fae0dfadf
1,4.2876,space,2.6838,0,130,130,58,1,,,5ecda7f6509c241275db7396,6437731be3ac9e36ca3c3ce3,2023-04-12_22h15.35.992,PRaM,2021.2.3,Win32,59.79788315,61b8f3437b89212fae0dfadf
1,2.634,space,24.1981,0,131,131,47,1,,,5ecda7f6509c241275db7396,6437731be3ac9e36ca3c3ce3,2023-04-12_22h15.35.992,PRaM,2021.2.3,Win32,59.79788315,61b8f3437b89212fae0dfadf
2,10.4228,space,8.9323,0,132,132,240,1,,,5ecda7f6509c241275db7396,6437731be3ac9e36ca3c3ce3,2023-04-12_22h15.35.992,PRaM,2021.2.3,Win32,59.79788315,61b8f3437b89212fae0dfadf
1,136.411,space,136.9954,0,133,133,260,1,,,5ecda7f6509c241275db7396,6437731be3ac9e36ca3c3ce3,2023-04-12_22h15.35.992,PRaM,2021.2.3,Win32,59.79788315,61b8f3437b89212fae0dfadf
1,2.6202,space,1.3345,0,134,134,94,1,,,5ecda7f6509c241275db7396,6437731be3ac9e36ca3c3ce3,2023-04-12_22h15.35.992,PRaM,2021.2.3,Win32,59.79788315,61b8f3437b89212fae0dfadf
1,3.6192,space,1.9844,0,135,135,184,1,,,5ecda7f6509c241275db7396,6437731be3ac9e36ca3c3ce3,2023-04-12_22h15.35.992,PRaM,2021.2.3,Win32,59.79788315,61b8f3437b89212fae0dfadf
1,8.3239,space,6.6528,0,136,136,36,1,,,5ecda7f6509c241275db7396,6437731be3ac9e36ca3c3ce3,2023-04-12_22h15.35.992,PRaM,2021.2.3,Win32,59.79788315,61b8f3437b89212fae0dfadf
1,3.1884,space,1.9502,0,137,137,144,1,,,5ecda7f6509c241275db7396,6437731be3ac9e36ca3c3ce3,2023-04-12_22h15.35.992,PRaM,2021.2.3,Win32,59.79788315,61b8f3437b89212fae0dfadf
1,2.1719,space,1.4413,0,138,138,203,1,,,5ecda7f6509c241275db7396,6437731be3ac9e36ca3c3ce3,2023-04-12_22h15.35.992,PRaM,2021.2.3,Win32,59.79788315,61b8f3437b89212fae0dfadf
2,4.4215,space,2.7346,0,139,139,338,1,,,5ecda7f6509c241275db7396,6437731be3ac9e36ca3c3ce3,2023-04-12_22h15.35.992,PRaM,2021.2.3,Win32,59.79788315,61b8f3437b89212fae0dfadf
2,4.804,space,3.2894,0,140,140,170,1,,,5ecda7f6509c241275db7396,6437731be3ac9e36ca3c3ce3,2023-04-12_22h15.35.992,PRaM,2021.2.3,Win32,59.79788315,61b8f3437b89212fae0dfadf
1,3.6499,space,2.0885,0,141,141,212,1,,,5ecda7f6509c241275db7396,6437731be3ac9e36ca3c3ce3,2023-04-12_22h15.35.992,PRaM,2021.2.3,Win32,59.79788315,61b8f3437b89212fae0dfadf
6,5.2828,space,3.626,0,142,142,230,1,,,5ecda7f6509c241275db7396,6437731be3ac9e36ca3c3ce3,2023-04-12_22h15.35.992,PRaM,2021.2.3,Win32,59.79788315,61b8f3437b89212fae0dfadf
1,18.7131,space,17.9297,0,143,143,49,1,,,5ecda7f6509c241275db7396,6437731be3ac9e36ca3c3ce3,2023-04-12_22h15.35.992,PRaM,2021.2.3,Win32,59.79788315,61b8f3437b89212fae0dfadf
6,4.3665,space,2.704,0,144,144,348,1,,,5ecda7f6509c241275db7396,6437731be3ac9e36ca3c3ce3,2023-04-12_22h15.35.992,PRaM,2021.2.3,Win32,59.79788315,61b8f3437b89212fae0dfadf
8,27.0671,space,25.58,0,145,145,127,1,,,5ecda7f6509c241275db7396,6437731be3ac9e36ca3c3ce3,2023-04-12_22h15.35.992,PRaM,2021.2.3,Win32,59.79788315,61b8f3437b89212fae0dfadf
8,2.2063,space,3.0846,0,146,146,325,1,,,5ecda7f6509c241275db7396,6437731be3ac9e36ca3c3ce3,2023-04-12_22h15.35.992,PRaM,2021.2.3,Win32,59.79788315,61b8f3437b89212fae0dfadf
1,4.0918,space,2.4043,0,147,147,227,1,,,5ecda7f6509c241275db7396,6437731be3ac9e36ca3c3ce3,2023-04-12_22h15.35.992,PRaM,2021.2.3,Win32,59.79788315,61b8f3437b89212fae0dfadf
5,5.5547,space,3.9546,0,148,148,112,1,,,5ecda7f6509c241275db7396,6437731be3ac9e36ca3c3ce3,2023-04-12_22h15.35.992,PRaM,2021.2.3,Win32,59.79788315,61b8f3437b89212fae0dfadf
2,25.6311,space,24.3778,0,149,149,169,1,,,5ecda7f6509c241275db7396,6437731be3ac9e36ca3c3ce3,2023-04-12_22h15.35.992,PRaM,2021.2.3,Win32,59.79788315,61b8f3437b89212fae0dfadf
2,5.9043,space,4.285,0,150,150,48,1,,,5ecda7f6509c241275db7396,6437731be3ac9e36ca3c3ce3,2023-04-12_22h15.35.992,PRaM,2021.2.3,Win32,59.79788315,61b8f3437b89212fae0dfadf
2,4.1798,space,2.4397,0,151,151,194,1,,,5ecda7f6509c241275db7396,6437731be3ac9e36ca3c3ce3,2023-04-12_22h15.35.992,PRaM,2021.2.3,Win32,59.79788315,61b8f3437b89212fae0dfadf
1,3.1171,space,2.1686,0,152,152,343,1,,,5ecda7f6509c241275db7396,6437731be3ac9e36ca3c3ce3,2023-04-12_22h15.35.992,PRaM,2021.2.3,Win32,59.79788315,61b8f3437b89212fae0dfadf
1,3.3,space,1.6468,0,153,153,234,1,,,5ecda7f6509c241275db7396,6437731be3ac9e36ca3c3ce3,2023-04-12_22h15.35.992,PRaM,2021.2.3,Win32,59.79788315,61b8f3437b89212fae0dfadf
1,2.6608,space,2.2777,0,154,154,272,1,,,5ecda7f6509c241275db7396,6437731be3ac9e36ca3c3ce3,2023-04-12_22h15.35.992,PRaM,2021.2.3,Win32,59.79788315,61b8f3437b89212fae0dfadf
1,2.4595,space,0.9676,0,155,155,191,1,,,5ecda7f6509c241275db7396,6437731be3ac9e36ca3c3ce3,2023-04-12_22h15.35.992,PRaM,2021.2.3,Win32,59.79788315,61b8f3437b89212fae0dfadf
7,4.9413,space,3.656,0,156,156,255,1,,,5ecda7f6509c241275db7396,6437731be3ac9e36ca3c3ce3,2023-04-12_22h15.35.992,PRaM,2021.2.3,Win32,59.79788315,61b8f3437b89212fae0dfadf
5,5.3869,space,3.7388,0,157,157,6,1,,,5ecda7f6509c241275db7396,6437731be3ac9e36ca3c3ce3,2023-04-12_22h15.35.992,PRaM,2021.2.3,Win32,59.79788315,61b8f3437b89212fae0dfadf
4,7.2196,space,5.5339,0,158,158,81,1,,,5ecda7f6509c241275db7396,6437731be3ac9e36ca3c3ce3,2023-04-12_22h15.35.992,PRaM,2021.2.3,Win32,59.79788315,61b8f3437b89212fae0dfadf
2,3.3528,space,1.7261,0,159,159,314,1,,,5ecda7f6509c241275db7396,6437731be3ac9e36ca3c3ce3,2023-04-12_22h15.35.992,PRaM,2021.2.3,Win32,59.79788315,61b8f3437b89212fae0dfadf
1,35.5193,space,36.0569,0,160,160,185,1,,,5ecda7f6509c241275db7396,6437731be3ac9e36ca3c3ce3,2023-04-12_22h15.35.992,PRaM,2021.2.3,Win32,59.79788315,61b8f3437b89212fae0dfadf
4,4.3416,space,3.8516,0,161,161,346,1,,,5ecda7f6509c241275db7396,6437731be3ac9e36ca3c3ce3,2023-04-12_22h15.35.992,PRaM,2021.2.3,Win32,59.79788315,61b8f3437b89212fae0dfadf
7,4.7985,space,3.169,0,162,162,149,1,,,5ecda7f6509c241275db7396,6437731be3ac9e36ca3c3ce3,2023-04-12_22h15.35.992,PRaM,2021.2.3,Win32,59.79788315,61b8f3437b89212fae0dfadf
6,3.1635,space,1.5736,0,163,163,86,1,,,5ecda7f6509c241275db7396,6437731be3ac9e36ca3c3ce3,2023-04-12_22h15.35.992,PRaM,2021.2.3,Win32,59.79788315,61b8f3437b89212fae0dfadf
8,5.0229,space,3.4271,0,164,164,326,1,,,5ecda7f6509c241275db7396,6437731be3ac9e36ca3c3ce3,2023-04-12_22h15.35.992,PRaM,2021.2.3,Win32,59.79788315,61b8f3437b89212fae0dfadf
6,3.2583,space,1.6195,0,165,165,159,1,,,5ecda7f6509c241275db7396,6437731be3ac9e36ca3c3ce3,2023-04-12_22h15.35.992,PRaM,2021.2.3,Win32,59.79788315,61b8f3437b89212fae0dfadf
1,3.4214,space,2.4693,0,166,166,202,1,,,5ecda7f6509c241275db7396,6437731be3ac9e36ca3c3ce3,2023-04-12_22h15.35.992,PRaM,2021.2.3,Win32,59.79788315,61b8f3437b89212fae0dfadf
3,24.2442,space,26.1455,0,167,167,313,1,,,5ecda7f6509c241275db7396,6437731be3ac9e36ca3c3ce3,2023-04-12_22h15.35.992,PRaM,2021.2.3,Win32,59.79788315,61b8f3437b89212fae0dfadf
5,4.3902,space,2.7012,0,168,168,209,1,,,5ecda7f6509c241275db7396,6437731be3ac9e36ca3c3ce3,2023-04-12_22h15.35.992,PRaM,2021.2.3,Win32,59.79788315,61b8f3437b89212fae0dfadf
2,8.3405,space,6.6559,0,169,169,40,1,,,5ecda7f6509c241275db7396,6437731be3ac9e36ca3c3ce3,2023-04-12_22h15.35.992,PRaM,2021.2.3,Win32,59.79788315,61b8f3437b89212fae0dfadf
5,5.9558,space,4.3402,0,170,170,273,1,,,5ecda7f6509c241275db7396,6437731be3ac9e36ca3c3ce3,2023-04-12_22h15.35.992,PRaM,2021.2.3,Win32,59.79788315,61b8f3437b89212fae0dfadf
9,2.8333,space,1.1513,0,171,171,61,1,,,5ecda7f6509c241275db7396,6437731be3ac9e36ca3c3ce3,2023-04-12_22h15.35.992,PRaM,2021.2.3,Win32,59.79788315,61b8f3437b89212fae0dfadf
1,2.7907,space,1.0539,0,172,172,268,1,,,5ecda7f6509c241275db7396,6437731be3ac9e36ca3c3ce3,2023-04-12_22h15.35.992,PRaM,2021.2.3,Win32,59.79788315,61b8f3437b89212fae0dfadf
2,4.8004,space,3.2678,0,173,173,57,1,,,5ecda7f6509c241275db7396,6437731be3ac9e36ca3c3ce3,2023-04-12_22h15.35.992,PRaM,2021.2.3,Win32,59.79788315,61b8f3437b89212fae0dfadf
1,4.1513,space,2.5092,0,174,174,182,1,,,5ecda7f6509c241275db7396,6437731be3ac9e36ca3c3ce3,2023-04-12_22h15.35.992,PRaM,2021.2.3,Win32,59.79788315,61b8f3437b89212fae0dfadf
1,8.3308,space,6.6658,0,175,175,275,1,,,5ecda7f6509c241275db7396,6437731be3ac9e36ca3c3ce3,2023-04-12_22h15.35.992,PRaM,2021.2.3,Win32,59.79788315,61b8f3437b89212fae0dfadf
1,4.1839,space,2.5335,0,176,176,65,1,,,5ecda7f6509c241275db7396,6437731be3ac9e36ca3c3ce3,2023-04-12_22h15.35.992,PRaM,2021.2.3,Win32,59.79788315,61b8f3437b89212fae0dfadf
8,4.1299,space,2.5011,0,177,177,136,1,,,5ecda7f6509c241275db7396,6437731be3ac9e36ca3c3ce3,2023-04-12_22h15.35.992,PRaM,2021.2.3,Win32,59.79788315,61b8f3437b89212fae0dfadf
1,6.7676,space,5.3342,0,178,178,37,1,,,5ecda7f6509c241275db7396,6437731be3ac9e36ca3c3ce3,2023-04-12_22h15.35.992,PRaM,2021.2.3,Win32,59.79788315,61b8f3437b89212fae0dfadf
4,8.1139,space,6.5727,0,179,179,349,1,,,5ecda7f6509c241275db7396,6437731be3ac9e36ca3c3ce3,2023-04-12_22h15.35.992,PRaM,2021.2.3,Win32,59.79788315,61b8f3437b89212fae0dfadf
1,3.1224,space,14.8768,0,180,180,253,1,,,5ecda7f6509c241275db7396,6437731be3ac9e36ca3c3ce3,2023-04-12_22h15.35.992,PRaM,2021.2.3,Win32,59.79788315,61b8f3437b89212fae0dfadf
2,37.7964,space,39.2429,0,181,181,33,1,,,5ecda7f6509c241275db7396,6437731be3ac9e36ca3c3ce3,2023-04-12_22h15.35.992,PRaM,2021.2.3,Win32,59.79788315,61b8f3437b89212fae0dfadf
1,31.2922,space,29.6285,0,182,182,121,1,,,5ecda7f6509c241275db7396,6437731be3ac9e36ca3c3ce3,2023-04-12_22h15.35.992,PRaM,2021.2.3,Win32,59.79788315,61b8f3437b89212fae0dfadf
3,5.5792,space,3.7677,0,183,183,261,1,,,5ecda7f6509c241275db7396,6437731be3ac9e36ca3c3ce3,2023-04-12_22h15.35.992,PRaM,2021.2.3,Win32,59.79788315,61b8f3437b89212fae0dfadf
6,6.157,space,4.5557,0,184,184,213,1,,,5ecda7f6509c241275db7396,6437731be3ac9e36ca3c3ce3,2023-04-12_22h15.35.992,PRaM,2021.2.3,Win32,59.79788315,61b8f3437b89212fae0dfadf
1,5.2535,space,3.6018,0,185,185,324,1,,,5ecda7f6509c241275db7396,6437731be3ac9e36ca3c3ce3,2023-04-12_22h15.35.992,PRaM,2021.2.3,Win32,59.79788315,61b8f3437b89212fae0dfadf
4,4.8831,space,3.1842,0,186,186,3,1,,,5ecda7f6509c241275db7396,6437731be3ac9e36ca3c3ce3,2023-04-12_22h15.35.992,PRaM,2021.2.3,Win32,59.79788315,61b8f3437b89212fae0dfadf
6,3.4542,space,2.6675,0,187,187,228,1,,,5ecda7f6509c241275db7396,6437731be3ac9e36ca3c3ce3,2023-04-12_22h15.35.992,PRaM,2021.2.3,Win32,59.79788315,61b8f3437b89212fae0dfadf
5,6.7085,space,5.0164,0,188,188,225,1,,,5ecda7f6509c241275db7396,6437731be3ac9e36ca3c3ce3,2023-04-12_22h15.35.992,PRaM,2021.2.3,Win32,59.79788315,61b8f3437b89212fae0dfadf
1,23.695,space,22.2452,0,189,189,215,1,,,5ecda7f6509c241275db7396,6437731be3ac9e36ca3c3ce3,2023-04-12_22h15.35.992,PRaM,2021.2.3,Win32,59.79788315,61b8f3437b89212fae0dfadf
1,8.2818,space,6.9329,0,190,190,292,1,,,5ecda7f6509c241275db7396,6437731be3ac9e36ca3c3ce3,2023-04-12_22h15.35.992,PRaM,2021.2.3,Win32,59.79788315,61b8f3437b89212fae0dfadf
1,2.8278,space,1.369,0,191,191,153,1,,,5ecda7f6509c241275db7396,6437731be3ac9e36ca3c3ce3,2023-04-12_22h15.35.992,PRaM,2021.2.3,Win32,59.79788315,61b8f3437b89212fae0dfadf
4,4.3289,space,2.6498,0,192,192,192,1,,,5ecda7f6509c241275db7396,6437731be3ac9e36ca3c3ce3,2023-04-12_22h15.35.992,PRaM,2021.2.3,Win32,59.79788315,61b8f3437b89212fae0dfadf
3,8.0918,space,6.5334,0,193,193,96,1,,,5ecda7f6509c241275db7396,6437731be3ac9e36ca3c3ce3,2023-04-12_22h15.35.992,PRaM,2021.2.3,Win32,59.79788315,61b8f3437b89212fae0dfadf
4,16.5121,space,15.03,0,194,194,21,1,,,5ecda7f6509c241275db7396,6437731be3ac9e36ca3c3ce3,2023-04-12_22h15.35.992,PRaM,2021.2.3,Win32,59.79788315,61b8f3437b89212fae0dfadf
2,27.6608,space,25.9799,0,195,195,233,1,,,5ecda7f6509c241275db7396,6437731be3ac9e36ca3c3ce3,2023-04-12_22h15.35.992,PRaM,2021.2.3,Win32,59.79788315,61b8f3437b89212fae0dfadf
4,4.4772,space,5.3002,0,196,196,124,1,,,5ecda7f6509c241275db7396,6437731be3ac9e36ca3c3ce3,2023-04-12_22h15.35.992,PRaM,2021.2.3,Win32,59.79788315,61b8f3437b89212fae0dfadf
8,2.9176,space,1.7672,0,197,197,276,1,,,5ecda7f6509c241275db7396,6437731be3ac9e36ca3c3ce3,2023-04-12_22h15.35.992,PRaM,2021.2.3,Win32,59.79788315,61b8f3437b89212fae0dfadf
4,4.0834,space,2.3885,0,198,198,340,1,,,5ecda7f6509c241275db7396,6437731be3ac9e36ca3c3ce3,2023-04-12_22h15.35.992,PRaM,2021.2.3,Win32,59.79788315,61b8f3437b89212fae0dfadf
5,4.2059,space,2.551,0,199,199,216,1,,,5ecda7f6509c241275db7396,6437731be3ac9e36ca3c3ce3,2023-04-12_22h15.35.992,PRaM,2021.2.3,Win32,59.79788315,61b8f3437b89212fae0dfadf
2,7.0666,space,5.3811,0,200,200,177,1,,,5ecda7f6509c241275db7396,6437731be3ac9e36ca3c3ce3,2023-04-12_22h15.35.992,PRaM,2021.2.3,Win32,59.79788315,61b8f3437b89212fae0dfadf
1,4.5511,space,2.9034,0,201,201,109,1,,,5ecda7f6509c241275db7396,6437731be3ac9e36ca3c3ce3,2023-04-12_22h15.35.992,PRaM,2021.2.3,Win32,59.79788315,61b8f3437b89212fae0dfadf
7,6.7833,space,5.1688,0,202,202,269,1,,,5ecda7f6509c241275db7396,6437731be3ac9e36ca3c3ce3,2023-04-12_22h15.35.992,PRaM,2021.2.3,Win32,59.79788315,61b8f3437b89212fae0dfadf
1,6.5996,space,4.9388,0,203,203,188,1,,,5ecda7f6509c241275db7396,6437731be3ac9e36ca3c3ce3,2023-04-12_22h15.35.992,PRaM,2021.2.3,Win32,59.79788315,61b8f3437b89212fae0dfadf
3,6.0132,space,4.3639,0,204,204,211,1,,,5ecda7f6509c241275db7396,6437731be3ac9e36ca3c3ce3,2023-04-12_22h15.35.992,PRaM,2021.2.3,Win32,59.79788315,61b8f3437b89212fae0dfadf
6,4.3938,space,2.9849,0,205,205,335,1,,,5ecda7f6509c241275db7396,6437731be3ac9e36ca3c3ce3,2023-04-12_22h15.35.992,PRaM,2021.2.3,Win32,59.79788315,61b8f3437b89212fae0dfadf
4,3.3148,space,1.8154,0,206,206,118,1,,,5ecda7f6509c241275db7396,6437731be3ac9e36ca3c3ce3,2023-04-12_22h15.35.992,PRaM,2021.2.3,Win32,59.79788315,61b8f3437b89212fae0dfadf
1,17.9124,space,16.2656,0,207,207,283,1,,,5ecda7f6509c241275db7396,6437731be3ac9e36ca3c3ce3,2023-04-12_22h15.35.992,PRaM,2021.2.3,Win32,59.79788315,61b8f3437b89212fae0dfadf
1,15.7364,space,14.5174,0,208,208,141,1,,,5ecda7f6509c241275db7396,6437731be3ac9e36ca3c3ce3,2023-04-12_22h15.35.992,PRaM,2021.2.3,Win32,59.79788315,61b8f3437b89212fae0dfadf
1,5.7508,space,4.0693,0,209,209,317,1,,,5ecda7f6509c241275db7396,6437731be3ac9e36ca3c3ce3,2023-04-12_22h15.35.992,PRaM,2021.2.3,Win32,59.79788315,61b8f3437b89212fae0dfadf
1,7.3714,space,5.8203,0,210,210,104,1,,,5ecda7f6509c241275db7396,6437731be3ac9e36ca3c3ce3,2023-04-12_22h15.35.992,PRaM,2021.2.3,Win32,59.79788315,61b8f3437b89212fae0dfadf
4,5.3726,space,3.7033,0,211,211,199,1,,,5ecda7f6509c241275db7396,6437731be3ac9e36ca3c3ce3,2023-04-12_22h15.35.992,PRaM,2021.2.3,Win32,59.79788315,61b8f3437b89212fae0dfadf
1,6.6496,space,5.2495,0,212,212,337,1,,,5ecda7f6509c241275db7396,6437731be3ac9e36ca3c3ce3,2023-04-12_22h15.35.992,PRaM,2021.2.3,Win32,59.79788315,61b8f3437b89212fae0dfadf
7,62.0488,space,60.57,0,213,213,307,1,,,5ecda7f6509c241275db7396,6437731be3ac9e36ca3c3ce3,2023-04-12_22h15.35.992,PRaM,2021.2.3,Win32,59.79788315,61b8f3437b89212fae0dfadf
2,5.1319,space,3.4897,0,214,214,44,1,,,5ecda7f6509c241275db7396,6437731be3ac9e36ca3c3ce3,2023-04-12_22h15.35.992,PRaM,2021.2.3,Win32,59.79788315,61b8f3437b89212fae0dfadf
1,2.5175,space,0.9358,0,215,215,125,1,,,5ecda7f6509c241275db7396,6437731be3ac9e36ca3c3ce3,2023-04-12_22h15.35.992,PRaM,2021.2.3,Win32,59.79788315,61b8f3437b89212fae0dfadf
1,2.2598,space,1.3164,0,216,216,100,1,,,5ecda7f6509c241275db7396,6437731be3ac9e36ca3c3ce3,2023-04-12_22h15.35.992,PRaM,2021.2.3,Win32,59.79788315,61b8f3437b89212fae0dfadf
6,4.3539,space,2.6827,0,217,217,259,1,,,5ecda7f6509c241275db7396,6437731be3ac9e36ca3c3ce3,2023-04-12_22h15.35.992,PRaM,2021.2.3,Win32,59.79788315,61b8f3437b89212fae0dfadf
9,4.5515,space,2.8842,0,218,218,319,1,,,5ecda7f6509c241275db7396,6437731be3ac9e36ca3c3ce3,2023-04-12_22h15.35.992,PRaM,2021.2.3,Win32,59.79788315,61b8f3437b89212fae0dfadf
2,7.943,space,6.3194,0,219,219,122,1,,,5ecda7f6509c241275db7396,6437731be3ac9e36ca3c3ce3,2023-04-12_22h15.35.992,PRaM,2021.2.3,Win32,59.79788315,61b8f3437b89212fae0dfadf
8,28.6467,space,26.9637,0,220,220,7,1,,,5ecda7f6509c241275db7396,6437731be3ac9e36ca3c3ce3,2023-04-12_22h15.35.992,PRaM,2021.2.3,Win32,59.79788315,61b8f3437b89212fae0dfadf
1,3.3711,space,1.7673,0,221,221,217,1,,,5ecda7f6509c241275db7396,6437731be3ac9e36ca3c3ce3,2023-04-12_22h15.35.992,PRaM,2021.2.3,Win32,59.79788315,61b8f3437b89212fae0dfadf
1,4.7351,space,3.0834,0,222,222,171,1,,,5ecda7f6509c241275db7396,6437731be3ac9e36ca3c3ce3,2023-04-12_22h15.35.992,PRaM,2021.2.3,Win32,59.79788315,61b8f3437b89212fae0dfadf
1,3.5193,space,3.138,0,223,223,299,1,,,5ecda7f6509c241275db7396,6437731be3ac9e36ca3c3ce3,2023-04-12_22h15.35.992,PRaM,2021.2.3,Win32,59.79788315,61b8f3437b89212fae0dfadf
1,2.1064,space,1.1912,0,224,224,26,1,,,5ecda7f6509c241275db7396,6437731be3ac9e36ca3c3ce3,2023-04-12_22h15.35.992,PRaM,2021.2.3,Win32,59.79788315,61b8f3437b89212fae0dfadf
1,1.9219,space,0.301,0,225,225,107,1,,,5ecda7f6509c241275db7396,6437731be3ac9e36ca3c3ce3,2023-04-12_22h15.35.992,PRaM,2021.2.3,Win32,59.79788315,61b8f3437b89212fae0dfadf
1,2.3577,space,0.752,0,226,226,98,1,,,5ecda7f6509c241275db7396,6437731be3ac9e36ca3c3ce3,2023-04-12_22h15.35.992,PRaM,2021.2.3,Win32,59.79788315,61b8f3437b89212fae0dfadf
9,3.0693,space,1.4455,0,227,227,320,1,,,5ecda7f6509c241275db7396,6437731be3ac9e36ca3c3ce3,2023-04-12_22h15.35.992,PRaM,2021.2.3,Win32,59.79788315,61b8f3437b89212fae0dfadf
4,7.7571,space,6.069,0,228,228,151,1,,,5ecda7f6509c241275db7396,6437731be3ac9e36ca3c3ce3,2023-04-12_22h15.35.992,PRaM,2021.2.3,Win32,59.79788315,61b8f3437b89212fae0dfadf
1,10.5167,space,8.9337,0,229,229,308,1,,,5ecda7f6509c241275db7396,6437731be3ac9e36ca3c3ce3,2023-04-12_22h15.35.992,PRaM,2021.2.3,Win32,59.79788315,61b8f3437b89212fae0dfadf
7,3.2501,space,1.7834,0,230,230,334,1,,,5ecda7f6509c241275db7396,6437731be3ac9e36ca3c3ce3,2023-04-12_22h15.35.992,PRaM,2021.2.3,Win32,59.79788315,61b8f3437b89212fae0dfadf
2,11.8812,space,10.2539,0,231,231,294,1,,,5ecda7f6509c241275db7396,6437731be3ac9e36ca3c3ce3,2023-04-12_22h15.35.992,PRaM,2021.2.3,Win32,59.79788315,61b8f3437b89212fae0dfadf
2,3.2038,space,1.539,0,232,232,254,1,,,5ecda7f6509c241275db7396,6437731be3ac9e36ca3c3ce3,2023-04-12_22h15.35.992,PRaM,2021.2.3,Win32,59.79788315,61b8f3437b89212fae0dfadf
1,4.9785,space,3.2846,0,233,233,370,1,,,5ecda7f6509c241275db7396,6437731be3ac9e36ca3c3ce3,2023-04-12_22h15.35.992,PRaM,2021.2.3,Win32,59.79788315,61b8f3437b89212fae0dfadf
5,4.7919,space,3.1383,0,234,234,158,1,,,5ecda7f6509c241275db7396,6437731be3ac9e36ca3c3ce3,2023-04-12_22h15.35.992,PRaM,2021.2.3,Win32,59.79788315,61b8f3437b89212fae0dfadf
1,7.3493,space,8.6155,0,235,235,79,1,,,5ecda7f6509c241275db7396,6437731be3ac9e36ca3c3ce3,2023-04-12_22h15.35.992,PRaM,2021.2.3,Win32,59.79788315,61b8f3437b89212fae0dfadf
1,2.245,space,0.5513,0,236,236,316,1,,,5ecda7f6509c241275db7396,6437731be3ac9e36ca3c3ce3,2023-04-12_22h15.35.992,PRaM,2021.2.3,Win32,59.79788315,61b8f3437b89212fae0dfadf
1,4.0163,space,4.1338,0,237,237,161,1,,,5ecda7f6509c241275db7396,6437731be3ac9e36ca3c3ce3,2023-04-12_22h15.35.992,PRaM,2021.2.3,Win32,59.79788315,61b8f3437b89212fae0dfadf
2,8.1548,space,6.5338,0,238,238,290,1,,,5ecda7f6509c241275db7396,6437731be3ac9e36ca3c3ce3,2023-04-12_22h15.35.992,PRaM,2021.2.3,Win32,59.79788315,61b8f3437b89212fae0dfadf
1,3.3276,space,2.5979,0,239,239,146,1,,,5ecda7f6509c241275db7396,6437731be3ac9e36ca3c3ce3,2023-04-12_22h15.35.992,PRaM,2021.2.3,Win32,59.79788315,61b8f3437b89212fae0dfadf
1,5.353,space,3.7519,0,240,240,376,1,,,5ecda7f6509c241275db7396,6437731be3ac9e36ca3c3ce3,2023-04-12_22h15.35.992,PRaM,2021.2.3,Win32,59.79788315,61b8f3437b89212fae0dfadf
3,5.9894,space,4.3503,0,241,241,15,1,,,5ecda7f6509c241275db7396,6437731be3ac9e36ca3c3ce3,2023-04-12_22h15.35.992,PRaM,2021.2.3,Win32,59.79788315,61b8f3437b89212fae0dfadf
1,3.06,space,1.3381,0,242,242,329,1,,,5ecda7f6509c241275db7396,6437731be3ac9e36ca3c3ce3,2023-04-12_22h15.35.992,PRaM,2021.2.3,Win32,59.79788315,61b8f3437b89212fae0dfadf
1,19.666,space,18.597,0,243,243,55,1,,,5ecda7f6509c241275db7396,6437731be3ac9e36ca3c3ce3,2023-04-12_22h15.35.992,PRaM,2021.2.3,Win32,59.79788315,61b8f3437b89212fae0dfadf
7,6.3899,space,4.7371,0,244,244,83,1,,,5ecda7f6509c241275db7396,6437731be3ac9e36ca3c3ce3,2023-04-12_22h15.35.992,PRaM,2021.2.3,Win32,59.79788315,61b8f3437b89212fae0dfadf
7,5.6399,space,3.9847,0,245,245,367,1,,,5ecda7f6509c241275db7396,6437731be3ac9e36ca3c3ce3,2023-04-12_22h15.35.992,PRaM,2021.2.3,Win32,59.79788315,61b8f3437b89212fae0dfadf
1,4.2654,space,2.6193,0,246,246,229,1,,,5ecda7f6509c241275db7396,6437731be3ac9e36ca3c3ce3,2023-04-12_22h15.35.992,PRaM,2021.2.3,Win32,59.79788315,61b8f3437b89212fae0dfadf
1,2.7709,space,1.1013,0,247,247,155,1,,,5ecda7f6509c241275db7396,6437731be3ac9e36ca3c3ce3,2023-04-12_22h15.35.992,PRaM,2021.2.3,Win32,59.79788315,61b8f3437b89212fae0dfadf
1,2.4596,space,0.7689,0,248,248,95,1,,,5ecda7f6509c241275db7396,6437731be3ac9e36ca3c3ce3,2023-04-12_22h15.35.992,PRaM,2021.2.3,Win32,59.79788315,61b8f3437b89212fae0dfadf
5,4.1852,space,2.5416,0,249,249,356,1,,,5ecda7f6509c241275db7396,6437731be3ac9e36ca3c3ce3,2023-04-12_22h15.35.992,PRaM,2021.2.3,Win32,59.79788315,61b8f3437b89212fae0dfadf
2,6.616,space,4.9094,0,250,250,265,1,,,5ecda7f6509c241275db7396,6437731be3ac9e36ca3c3ce3,2023-04-12_22h15.35.992,PRaM,2021.2.3,Win32,59.79788315,61b8f3437b89212fae0dfadf
6,12.8666,space,11.3004,0,251,251,32,1,,,5ecda7f6509c241275db7396,6437731be3ac9e36ca3c3ce3,2023-04-12_22h15.35.992,PRaM,2021.2.3,Win32,59.79788315,61b8f3437b89212fae0dfadf
7,3.8331,space,1.9349,0,252,252,29,1,,,5ecda7f6509c241275db7396,6437731be3ac9e36ca3c3ce3,2023-04-12_22h15.35.992,PRaM,2021.2.3,Win32,59.79788315,61b8f3437b89212fae0dfadf
1,18.4779,space,16.8176,0,253,253,1,1,,,5ecda7f6509c241275db7396,6437731be3ac9e36ca3c3ce3,2023-04-12_22h15.35.992,PRaM,2021.2.3,Win32,59.79788315,61b8f3437b89212fae0dfadf
1,2.3249,space,0.6706,0,254,254,214,1,,,5ecda7f6509c241275db7396,6437731be3ac9e36ca3c3ce3,2023-04-12_22h15.35.992,PRaM,2021.2.3,Win32,59.79788315,61b8f3437b89212fae0dfadf
1,3.6338,space,2.2196,0,255,255,258,1,,,5ecda7f6509c241275db7396,6437731be3ac9e36ca3c3ce3,2023-04-12_22h15.35.992,PRaM,2021.2.3,Win32,59.79788315,61b8f3437b89212fae0dfadf
1,4.9476,space,3.2534,0,256,256,138,1,,,5ecda7f6509c241275db7396,6437731be3ac9e36ca3c3ce3,2023-04-12_22h15.35.992,PRaM,2021.2.3,Win32,59.79788315,61b8f3437b89212fae0dfadf
1,7.0418,space,5.4334,0,257,257,359,1,,,5ecda7f6509c241275db7396,6437731be3ac9e36ca3c3ce3,2023-04-12_22h15.35.992,PRaM,2021.2.3,Win32,59.79788315,61b8f3437b89212fae0dfadf
6,5.1692,space,3.5563,0,258,258,270,1,,,5ecda7f6509c241275db7396,6437731be3ac9e36ca3c3ce3,2023-04-12_22h15.35.992,PRaM,2021.2.3,Win32,59.79788315,61b8f3437b89212fae0dfadf
8,3.9182,space,2.2246,0,259,259,59,1,,,5ecda7f6509c241275db7396,6437731be3ac9e36ca3c3ce3,2023-04-12_22h15.35.992,PRaM,2021.2.3,Win32,59.79788315,61b8f3437b89212fae0dfadf
4,4.2782,space,2.5703,0,260,260,45,1,,,5ecda7f6509c241275db7396,6437731be3ac9e36ca3c3ce3,2023-04-12_22h15.35.992,PRaM,2021.2.3,Win32,59.79788315,61b8f3437b89212fae0dfadf
1,30.1089,space,28.5455,0,261,261,183,1,,,5ecda7f6509c241275db7396,6437731be3ac9e36ca3c3ce3,2023-04-12_22h15.35.992,PRaM,2021.2.3,Win32,59.79788315,61b8f3437b89212fae0dfadf
1,7.1953,space,7.2617,0,262,262,271,1,,,5ecda7f6509c241275db7396,6437731be3ac9e36ca3c3ce3,2023-04-12_22h15.35.992,PRaM,2021.2.3,Win32,59.79788315,61b8f3437b89212fae0dfadf
1,2.6069,space,0.92,0,263,263,243,1,,,5ecda7f6509c241275db7396,6437731be3ac9e36ca3c3ce3,2023-04-12_22h15.35.992,PRaM,2021.2.3,Win32,59.79788315,61b8f3437b89212fae0dfadf
1,1.9391,space,0.3193,0,264,264,262,1,,,5ecda7f6509c241275db7396,6437731be3ac9e36ca3c3ce3,2023-04-12_22h15.35.992,PRaM,2021.2.3,Win32,59.79788315,61b8f3437b89212fae0dfadf
1,2.4606,space,0.8522,0,265,265,39,1,,,5ecda7f6509c241275db7396,6437731be3ac9e36ca3c3ce3,2023-04-12_22h15.35.992,PRaM,2021.2.3,Win32,59.79788315,61b8f3437b89212fae0dfadf
1,5.8114,space,4.5502,0,266,266,52,1,,,5ecda7f6509c241275db7396,6437731be3ac9e36ca3c3ce3,2023-04-12_22h15.35.992,PRaM,2021.2.3,Win32,59.79788315,61b8f3437b89212fae0dfadf
6,5.5055,space,3.8029,0,267,267,173,1,,,5ecda7f6509c241275db7396,6437731be3ac9e36ca3c3ce3,2023-04-12_22h15.35.992,PRaM,2021.2.3,Win32,59.79788315,61b8f3437b89212fae0dfadf
6,4.0503,space,2.6712,0,268,268,152,1,,,5ecda7f6509c241275db7396,6437731be3ac9e36ca3c3ce3,2023-04-12_22h15.35.992,PRaM,2021.2.3,Win32,59.79788315,61b8f3437b89212fae0dfadf
1,3.674,space,1.9692,0,269,269,113,1,,,5ecda7f6509c241275db7396,6437731be3ac9e36ca3c3ce3,2023-04-12_22h15.35.992,PRaM,2021.2.3,Win32,59.79788315,61b8f3437b89212fae0dfadf
1,2.4199,space,0.9176,0,270,270,24,1,,,5ecda7f6509c241275db7396,6437731be3ac9e36ca3c3ce3,2023-04-12_22h15.35.992,PRaM,2021.2.3,Win32,59.79788315,61b8f3437b89212fae0dfadf
1,3.1241,space,1.4912,0,271,271,5,1,,,5ecda7f6509c241275db7396,6437731be3ac9e36ca3c3ce3,2023-04-12_22h15.35.992,PRaM,2021.2.3,Win32,59.79788315,61b8f3437b89212fae0dfadf
1,8.5478,space,7.5204,0,272,272,235,1,,,5ecda7f6509c241275db7396,6437731be3ac9e36ca3c3ce3,2023-04-12_22h15.35.992,PRaM,2021.2.3,Win32,59.79788315,61b8f3437b89212fae0dfadf
2,4.4637,space,2.9861,0,273,273,327,1,,,5ecda7f6509c241275db7396,6437731be3ac9e36ca3c3ce3,2023-04-12_22h15.35.992,PRaM,2021.2.3,Win32,59.79788315,61b8f3437b89212fae0dfadf
1,11.6289,space,10.4362,0,274,274,295,1,,,5ecda7f6509c241275db7396,6437731be3ac9e36ca3c3ce3,2023-04-12_22h15.35.992,PRaM,2021.2.3,Win32,59.79788315,61b8f3437b89212fae0dfadf
3,34.0819,space,33.0255,0,275,275,150,1,,,5ecda7f6509c241275db7396,6437731be3ac9e36ca3c3ce3,2023-04-12_22h15.35.992,PRaM,2021.2.3,Win32,59.79788315,61b8f3437b89212fae0dfadf
6,23.3618,space,21.6686,0,276,276,75,1,,,5ecda7f6509c241275db7396,6437731be3ac9e36ca3c3ce3,2023-04-12_22h15.35.992,PRaM,2021.2.3,Win32,59.79788315,61b8f3437b89212fae0dfadf
6,5.1341,space,3.5038,0,277,277,120,1,,,5ecda7f6509c241275db7396,6437731be3ac9e36ca3c3ce3,2023-04-12_22h15.35.992,PRaM,2021.2.3,Win32,59.79788315,61b8f3437b89212fae0dfadf
4,36.508,space,37.1589,0,278,278,304,1,,,5ecda7f6509c241275db7396,6437731be3ac9e36ca3c3ce3,2023-04-12_22h15.35.992,PRaM,2021.2.3,Win32,59.79788315,61b8f3437b89212fae0dfadf
1,3.3538,space,20.2306,0,279,279,198,1,,,5ecda7f6509c241275db7396,6437731be3ac9e36ca3c3ce3,2023-04-12_22h15.35.992,PRaM,2021.2.3,Win32,59.79788315,61b8f3437b89212fae0dfadf
1,4.0693,space,2.3853,0,280,280,220,1,,,5ecda7f6509c241275db7396,6437731be3ac9e36ca3c3ce3,2023-04-12_22h15.35.992,PRaM,2021.2.3,Win32,59.79788315,61b8f3437b89212fae0dfadf
,,space,0.5062,0,281,281,77,1,,,5ecda7f6509c241275db7396,6437731be3ac9e36ca3c3ce3,2023-04-12_22h15.35.992,PRaM,2021.2.3,Win32,59.79788315,61b8f3437b89212fae0dfadf
4,24.2938,space,24.1977,0,282,282,288,1,,,5ecda7f6509c241275db7396,6437731be3ac9e36ca3c3ce3,2023-04-12_22h15.35.992,PRaM,2021.2.3,Win32,59.79788315,61b8f3437b89212fae0dfadf
1,4.206,space,2.9198,0,283,283,286,1,,,5ecda7f6509c241275db7396,6437731be3ac9e36ca3c3ce3,2023-04-12_22h15.35.992,PRaM,2021.2.3,Win32,59.79788315,61b8f3437b89212fae0dfadf
1,2.4222,space,1.2529,0,284,284,142,1,,,5ecda7f6509c241275db7396,6437731be3ac9e36ca3c3ce3,2023-04-12_22h15.35.992,PRaM,2021.2.3,Win32,59.79788315,61b8f3437b89212fae0dfadf
7,4.0329,space,2.3859,0,285,285,62,1,,,5ecda7f6509c241275db7396,6437731be3ac9e36ca3c3ce3,2023-04-12_22h15.35.992,PRaM,2021.2.3,Win32,59.79788315,61b8f3437b89212fae0dfadf
9,3.1236,space,1.5093,0,286,286,366,1,,,5ecda7f6509c241275db7396,6437731be3ac9e36ca3c3ce3,2023-04-12_22h15.35.992,PRaM,2021.2.3,Win32,59.79788315,61b8f3437b89212fae0dfadf
1,3.0692,space,1.5176,0,287,287,10,1,,,5ecda7f6509c241275db7396,6437731be3ac9e36ca3c3ce3,2023-04-12_22h15.35.992,PRaM,2021.2.3,Win32,59.79788315,61b8f3437b89212fae0dfadf
1,2.6581,space,2.3175,0,288,288,99,1,,,5ecda7f6509c241275db7396,6437731be3ac9e36ca3c3ce3,2023-04-12_22h15.35.992,PRaM,2021.2.3,Win32,59.79788315,61b8f3437b89212fae0dfadf
6,4.5992,space,3.1846,0,289,289,305,1,,,5ecda7f6509c241275db7396,6437731be3ac9e36ca3c3ce3,2023-04-12_22h15.35.992,PRaM,2021.2.3,Win32,59.79788315,61b8f3437b89212fae0dfadf
1,2.8907,space,1.2836,0,290,290,311,1,,,5ecda7f6509c241275db7396,6437731be3ac9e36ca3c3ce3,2023-04-12_22h15.35.992,PRaM,2021.2.3,Win32,59.79788315,61b8f3437b89212fae0dfadf
1,3.0438,space,1.4171,0,291,291,330,1,,,5ecda7f6509c241275db7396,6437731be3ac9e36ca3c3ce3,2023-04-12_22h15.35.992,PRaM,2021.2.3,Win32,59.79788315,61b8f3437b89212fae0dfadf
6,7.7871,space,6.4177,0,292,292,147,1,,,5ecda7f6509c241275db7396,6437731be3ac9e36ca3c3ce3,2023-04-12_22h15.35.992,PRaM,2021.2.3,Win32,59.79788315,61b8f3437b89212fae0dfadf
6,3.5078,space,1.87,0,293,293,352,1,,,5ecda7f6509c241275db7396,6437731be3ac9e36ca3c3ce3,2023-04-12_22h15.35.992,PRaM,2021.2.3,Win32,59.79788315,61b8f3437b89212fae0dfadf
6,3.2208,space,1.6737,0,294,294,14,1,,,5ecda7f6509c241275db7396,6437731be3ac9e36ca3c3ce3,2023-04-12_22h15.35.992,PRaM,2021.2.3,Win32,59.79788315,61b8f3437b89212fae0dfadf
1,6.0993,space,4.4835,0,295,295,71,1,,,5ecda7f6509c241275db7396,6437731be3ac9e36ca3c3ce3,2023-04-12_22h15.35.992,PRaM,2021.2.3,Win32,59.79788315,61b8f3437b89212fae0dfadf
7,17.6529,space,16.1221,0,296,296,84,1,,,5ecda7f6509c241275db7396,6437731be3ac9e36ca3c3ce3,2023-04-12_22h15.35.992,PRaM,2021.2.3,Win32,59.79788315,61b8f3437b89212fae0dfadf
9,24.9749,space,23.2975,0,297,297,20,1,,,5ecda7f6509c241275db7396,6437731be3ac9e36ca3c3ce3,2023-04-12_22h15.35.992,PRaM,2021.2.3,Win32,59.79788315,61b8f3437b89212fae0dfadf
2,9.1226,space,7.4644,0,298,298,30,1,,,5ecda7f6509c241275db7396,6437731be3ac9e36ca3c3ce3,2023-04-12_22h15.35.992,PRaM,2021.2.3,Win32,59.79788315,61b8f3437b89212fae0dfadf
1,8.0143,space,6.7991,0,299,299,293,1,,,5ecda7f6509c241275db7396,6437731be3ac9e36ca3c3ce3,2023-04-12_22h15.35.992,PRaM,2021.2.3,Win32,59.79788315,61b8f3437b89212fae0dfadf
1,4.6836,space,3.5861,0,300,300,362,1,,,5ecda7f6509c241275db7396,6437731be3ac9e36ca3c3ce3,2023-04-12_22h15.35.992,PRaM,2021.2.3,Win32,59.79788315,61b8f3437b89212fae0dfadf
1,6.5288,space,5.6003,0,301,301,11,1,,,5ecda7f6509c241275db7396,6437731be3ac9e36ca3c3ce3,2023-04-12_22h15.35.992,PRaM,2021.2.3,Win32,59.79788315,61b8f3437b89212fae0dfadf
6,4.362,space,2.6676,0,302,302,277,1,,,5ecda7f6509c241275db7396,6437731be3ac9e36ca3c3ce3,2023-04-12_22h15.35.992,PRaM,2021.2.3,Win32,59.79788315,61b8f3437b89212fae0dfadf
3,4.8499,space,3.2521,0,303,303,321,1,,,5ecda7f6509c241275db7396,6437731be3ac9e36ca3c3ce3,2023-04-12_22h15.35.992,PRaM,2021.2.3,Win32,59.79788315,61b8f3437b89212fae0dfadf
1,3.45,space,1.856,0,304,304,25,1,,,5ecda7f6509c241275db7396,6437731be3ac9e36ca3c3ce3,2023-04-12_22h15.35.992,PRaM,2021.2.3,Win32,59.79788315,61b8f3437b89212fae0dfadf
1,2.5186,space,1.5178,0,305,305,369,1,,,5ecda7f6509c241275db7396,6437731be3ac9e36ca3c3ce3,2023-04-12_22h15.35.992,PRaM,2021.2.3,Win32,59.79788315,61b8f3437b89212fae0dfadf
7,3.7006,space,2.2176,0,306,306,64,1,,,5ecda7f6509c241275db7396,6437731be3ac9e36ca3c3ce3,2023-04-12_22h15.35.992,PRaM,2021.2.3,Win32,59.79788315,61b8f3437b89212fae0dfadf
1,3.7173,space,2.2498,0,307,307,368,1,,,5ecda7f6509c241275db7396,6437731be3ac9e36ca3c3ce3,2023-04-12_22h15.35.992,PRaM,2021.2.3,Win32,59.79788315,61b8f3437b89212fae0dfadf
1,2.3106,space,0.6522,0,308,308,126,1,,,5ecda7f6509c241275db7396,6437731be3ac9e36ca3c3ce3,2023-04-12_22h15.35.992,PRaM,2021.2.3,Win32,59.79788315,61b8f3437b89212fae0dfadf
1,9.3155,space,7.65,0,309,309,190,1,,,5ecda7f6509c241275db7396,6437731be3ac9e36ca3c3ce3,2023-04-12_22h15.35.992,PRaM,2021.2.3,Win32,59.79788315,61b8f3437b89212fae0dfadf
2,12.0151,space,10.4316,0,310,310,46,1,,,5ecda7f6509c241275db7396,6437731be3ac9e36ca3c3ce3,2023-04-12_22h15.35.992,PRaM,2021.2.3,Win32,59.79788315,61b8f3437b89212fae0dfadf
1,6.3441,space,5.2993,0,311,311,224,1,,,5ecda7f6509c241275db7396,6437731be3ac9e36ca3c3ce3,2023-04-12_22h15.35.992,PRaM,2021.2.3,Win32,59.79788315,61b8f3437b89212fae0dfadf
1,2.3728,space,0.9143,0,312,312,68,1,,,5ecda7f6509c241275db7396,6437731be3ac9e36ca3c3ce3,2023-04-12_22h15.35.992,PRaM,2021.2.3,Win32,59.79788315,61b8f3437b89212fae0dfadf
1,1.7945,space,0.1513,0,313,313,341,1,,,5ecda7f6509c241275db7396,6437731be3ac9e36ca3c3ce3,2023-04-12_22h15.35.992,PRaM,2021.2.3,Win32,59.79788315,61b8f3437b89212fae0dfadf
1,6.7438,space,5.7997,0,314,314,23,1,,,5ecda7f6509c241275db7396,6437731be3ac9e36ca3c3ce3,2023-04-12_22h15.35.992,PRaM,2021.2.3,Win32,59.79788315,61b8f3437b89212fae0dfadf
1,2.0045,space,0.3932,0,315,315,50,1,,,5ecda7f6509c241275db7396,6437731be3ac9e36ca3c3ce3,2023-04-12_22h15.35.992,PRaM,2021.2.3,Win32,59.79788315,61b8f3437b89212fae0dfadf
5,6.223,space,4.7163,0,316,316,93,1,,,5ecda7f6509c241275db7396,6437731be3ac9e36ca3c3ce3,2023-04-12_22h15.35.992,PRaM,2021.2.3,Win32,59.79788315,61b8f3437b89212fae0dfadf
1,3.0134,space,1.4451,0,317,317,318,1,,,5ecda7f6509c241275db7396,6437731be3ac9e36ca3c3ce3,2023-04-12_22h15.35.992,PRaM,2021.2.3,Win32,59.79788315,61b8f3437b89212fae0dfadf
7,4.169,space,2.613,0,318,318,115,1,,,5ecda7f6509c241275db7396,6437731be3ac9e36ca3c3ce3,2023-04-12_22h15.35.992,PRaM,2021.2.3,Win32,59.79788315,61b8f3437b89212fae0dfadf
1,2.9312,space,1.3179,0,319,319,231,1,,,5ecda7f6509c241275db7396,6437731be3ac9e36ca3c3ce3,2023-04-12_22h15.35.992,PRaM,2021.2.3,Win32,59.79788315,61b8f3437b89212fae0dfadf
1,2.1892,space,0.5513,0,320,320,247,1,,,5ecda7f6509c241275db7396,6437731be3ac9e36ca3c3ce3,2023-04-12_22h15.35.992,PRaM,2021.2.3,Win32,59.79788315,61b8f3437b89212fae0dfadf
1,2.7517,space,1.2368,0,321,321,289,1,,,5ecda7f6509c241275db7396,6437731be3ac9e36ca3c3ce3,2023-04-12_22h15.35.992,PRaM,2021.2.3,Win32,59.79788315,61b8f3437b89212fae0dfadf
1,4.4258,space,2.8685,0,322,322,353,1,,,5ecda7f6509c241275db7396,6437731be3ac9e36ca3c3ce3,2023-04-12_22h15.35.992,PRaM,2021.2.3,Win32,59.79788315,61b8f3437b89212fae0dfadf
1,3.0209,space,2.9236,0,323,323,210,1,,,5ecda7f6509c241275db7396,6437731be3ac9e36ca3c3ce3,2023-04-12_22h15.35.992,PRaM,2021.2.3,Win32,59.79788315,61b8f3437b89212fae0dfadf
1,3.8215,space,2.3177,0,324,324,157,1,,,5ecda7f6509c241275db7396,6437731be3ac9e36ca3c3ce3,2023-04-12_22h15.35.992,PRaM,2021.2.3,Win32,59.79788315,61b8f3437b89212fae0dfadf
1,25.4014,space,23.8449,0,325,325,87,1,,,5ecda7f6509c241275db7396,6437731be3ac9e36ca3c3ce3,2023-04-12_22h15.35.992,PRaM,2021.2.3,Win32,59.79788315,61b8f3437b89212fae0dfadf
6,10.4705,space,9.0482,0,326,326,364,1,,,5ecda7f6509c241275db7396,6437731be3ac9e36ca3c3ce3,2023-04-12_22h15.35.992,PRaM,2021.2.3,Win32,59.79788315,61b8f3437b89212fae0dfadf
3,4.4808,space,2.8,0,327,327,301,1,,,5ecda7f6509c241275db7396,6437731be3ac9e36ca3c3ce3,2023-04-12_22h15.35.992,PRaM,2021.2.3,Win32,59.79788315,61b8f3437b89212fae0dfadf
4,4.271,space,2.6059,0,328,328,12,1,,,5ecda7f6509c241275db7396,6437731be3ac9e36ca3c3ce3,2023-04-12_22h15.35.992,PRaM,2021.2.3,Win32,59.79788315,61b8f3437b89212fae0dfadf
3,6.1159,space,4.5938,0,329,329,306,1,,,5ecda7f6509c241275db7396,6437731be3ac9e36ca3c3ce3,2023-04-12_22h15.35.992,PRaM,2021.2.3,Win32,59.79788315,61b8f3437b89212fae0dfadf
1,2.5265,space,0.984,0,330,330,300,1,,,5ecda7f6509c241275db7396,6437731be3ac9e36ca3c3ce3,2023-04-12_22h15.35.992,PRaM,2021.2.3,Win32,59.79788315,61b8f3437b89212fae0dfadf
1,1.799,space,0.1807,0,331,331,248,1,,,5ecda7f6509c241275db7396,6437731be3ac9e36ca3c3ce3,2023-04-12_22h15.35.992,PRaM,2021.2.3,Win32,59.79788315,61b8f3437b89212fae0dfadf
1,1.9576,space,0.2957,0,332,332,315,1,,,5ecda7f6509c241275db7396,6437731be3ac9e36ca3c3ce3,2023-04-12_22h15.35.992,PRaM,2021.2.3,Win32,59.79788315,61b8f3437b89212fae0dfadf
1,8.2521,space,8.3665,0,333,333,132,1,,,5ecda7f6509c241275db7396,6437731be3ac9e36ca3c3ce3,2023-04-12_22h15.35.992,PRaM,2021.2.3,Win32,59.79788315,61b8f3437b89212fae0dfadf
2,6.953,space,5.3038,0,334,334,54,1,,,5ecda7f6509c241275db7396,6437731be3ac9e36ca3c3ce3,2023-04-12_22h15.35.992,PRaM,2021.2.3,Win32,59.79788315,61b8f3437b89212fae0dfadf
9,3.3051,space,1.694,0,335,335,60,1,,,5ecda7f6509c241275db7396,6437731be3ac9e36ca3c3ce3,2023-04-12_22h15.35.992,PRaM,2021.2.3,Win32,59.79788315,61b8f3437b89212fae0dfadf
9,8.4387,space,6.7744,0,336,336,363,1,,,5ecda7f6509c241275db7396,6437731be3ac9e36ca3c3ce3,2023-04-12_22h15.35.992,PRaM,2021.2.3,Win32,59.79788315,61b8f3437b89212fae0dfadf
1,6.0477,space,4.7431,0,337,337,312,1,,,5ecda7f6509c241275db7396,6437731be3ac9e36ca3c3ce3,2023-04-12_22h15.35.992,PRaM,2021.2.3,Win32,59.79788315,61b8f3437b89212fae0dfadf
1,2.2997,space,0.8569,0,338,338,232,1,,,5ecda7f6509c241275db7396,6437731be3ac9e36ca3c3ce3,2023-04-12_22h15.35.992,PRaM,2021.2.3,Win32,59.79788315,61b8f3437b89212fae0dfadf
4,32.678,space,31.0087,0,339,339,187,1,,,5ecda7f6509c241275db7396,6437731be3ac9e36ca3c3ce3,2023-04-12_22h15.35.992,PRaM,2021.2.3,Win32,59.79788315,61b8f3437b89212fae0dfadf
4,3.941,space,2.2906,0,340,340,76,1,,,5ecda7f6509c241275db7396,6437731be3ac9e36ca3c3ce3,2023-04-12_22h15.35.992,PRaM,2021.2.3,Win32,59.79788315,61b8f3437b89212fae0dfadf
2,4.3961,space,2.7387,0,341,341,74,1,,,5ecda7f6509c241275db7396,6437731be3ac9e36ca3c3ce3,2023-04-12_22h15.35.992,PRaM,2021.2.3,Win32,59.79788315,61b8f3437b89212fae0dfadf
1,2.8636,space,1.2179,0,342,342,287,1,,,5ecda7f6509c241275db7396,6437731be3ac9e36ca3c3ce3,2023-04-12_22h15.35.992,PRaM,2021.2.3,Win32,59.79788315,61b8f3437b89212fae0dfadf
1,2.1777,space,2.0707,0,343,343,172,1,,,5ecda7f6509c241275db7396,6437731be3ac9e36ca3c3ce3,2023-04-12_22h15.35.992,PRaM,2021.2.3,Win32,59.79788315,61b8f3437b89212fae0dfadf
1,3.3182,space,1.7025,0,344,344,145,1,,,5ecda7f6509c241275db7396,6437731be3ac9e36ca3c3ce3,2023-04-12_22h15.35.992,PRaM,2021.2.3,Win32,59.79788315,61b8f3437b89212fae0dfadf
3,34.5535,space,32.831,0,345,345,274,1,,,5ecda7f6509c241275db7396,6437731be3ac9e36ca3c3ce3,2023-04-12_22h15.35.992,PRaM,2021.2.3,Win32,59.79788315,61b8f3437b89212fae0dfadf
1,3.5179,space,2.5683,0,346,346,236,1,,,5ecda7f6509c241275db7396,6437731be3ac9e36ca3c3ce3,2023-04-12_22h15.35.992,PRaM,2021.2.3,Win32,59.79788315,61b8f3437b89212fae0dfadf
1,6.3859,space,4.7015,0,347,347,160,1,,,5ecda7f6509c241275db7396,6437731be3ac9e36ca3c3ce3,2023-04-12_22h15.35.992,PRaM,2021.2.3,Win32,59.79788315,61b8f3437b89212fae0dfadf
1,2.1911,space,0.4846,0,348,348,257,1,,,5ecda7f6509c241275db7396,6437731be3ac9e36ca3c3ce3,2023-04-12_22h15.35.992,PRaM,2021.2.3,Win32,59.79788315,61b8f3437b89212fae0dfadf
1,3.1123,space,1.5048,0,349,349,345,1,,,5ecda7f6509c241275db7396,6437731be3ac9e36ca3c3ce3,2023-04-12_22h15.35.992,PRaM,2021.2.3,Win32,59.79788315,61b8f3437b89212fae0dfadf
9,3.8863,space,2.343,0,350,350,291,1,,,5ecda7f6509c241275db7396,6437731be3ac9e36ca3c3ce3,2023-04-12_22h15.35.992,PRaM,2021.2.3,Win32,59.79788315,61b8f3437b89212fae0dfadf
2,9.3169,space,7.6736,0,351,351,166,1,,,5ecda7f6509c241275db7396,6437731be3ac9e36ca3c3ce3,2023-04-12_22h15.35.992,PRaM,2021.2.3,Win32,59.79788315,61b8f3437b89212fae0dfadf
1,2.8892,space,1.3139,0,352,352,358,1,,,5ecda7f6509c241275db7396,6437731be3ac9e36ca3c3ce3,2023-04-12_22h15.35.992,PRaM,2021.2.3,Win32,59.79788315,61b8f3437b89212fae0dfadf
9,5.1281,space,3.8952,0,353,353,371,1,,,5ecda7f6509c241275db7396,6437731be3ac9e36ca3c3ce3,2023-04-12_22h15.35.992,PRaM,2021.2.3,Win32,59.79788315,61b8f3437b89212fae0dfadf
1,4.5701,space,3.4502,0,354,354,101,1,,,5ecda7f6509c241275db7396,6437731be3ac9e36ca3c3ce3,2023-04-12_22h15.35.992,PRaM,2021.2.3,Win32,59.79788315,61b8f3437b89212fae0dfadf
6,12.417,space,10.7981,0,355,355,56,1,,,5ecda7f6509c241275db7396,6437731be3ac9e36ca3c3ce3,2023-04-12_22h15.35.992,PRaM,2021.2.3,Win32,59.79788315,61b8f3437b89212fae0dfadf
1,3.7596,space,3.6204,0,356,356,303,1,,,5ecda7f6509c241275db7396,6437731be3ac9e36ca3c3ce3,2023-04-12_22h15.35.992,PRaM,2021.2.3,Win32,59.79788315,61b8f3437b89212fae0dfadf
8,5.4222,space,3.9181,0,357,357,285,1,,,5ecda7f6509c241275db7396,6437731be3ac9e36ca3c3ce3,2023-04-12_22h15.35.992,PRaM,2021.2.3,Win32,59.79788315,61b8f3437b89212fae0dfadf
2,11.2415,space,9.6331,0,358,358,347,1,,,5ecda7f6509c241275db7396,6437731be3ac9e36ca3c3ce3,2023-04-12_22h15.35.992,PRaM,2021.2.3,Win32,59.79788315,61b8f3437b89212fae0dfadf
2,4.6848,space,3.0526,0,359,359,135,1,,,5ecda7f6509c241275db7396,6437731be3ac9e36ca3c3ce3,2023-04-12_22h15.35.992,PRaM,2021.2.3,Win32,59.79788315,61b8f3437b89212fae0dfadf
2,5.2996,space,4.0675,0,360,360,16,1,,,5ecda7f6509c241275db7396,6437731be3ac9e36ca3c3ce3,2023-04-12_22h15.35.992,PRaM,2021.2.3,Win32,59.79788315,61b8f3437b89212fae0dfadf
8,3.9342,space,2.299,0,361,361,80,1,,,5ecda7f6509c241275db7396,6437731be3ac9e36ca3c3ce3,2023-04-12_22h15.35.992,PRaM,2021.2.3,Win32,59.79788315,61b8f3437b89212fae0dfadf
2,14.3805,space,12.7158,0,362,362,226,1,,,5ecda7f6509c241275db7396,6437731be3ac9e36ca3c3ce3,2023-04-12_22h15.35.992,PRaM,2021.2.3,Win32,59.79788315,61b8f3437b89212fae0dfadf
1,2.8015,space,1.3241,0,363,363,108,1,,,5ecda7f6509c241275db7396,6437731be3ac9e36ca3c3ce3,2023-04-12_22h15.35.992,PRaM,2021.2.3,Win32,59.79788315,61b8f3437b89212fae0dfadf
1,27.1415,space,25.4779,0,364,364,218,1,,,5ecda7f6509c241275db7396,6437731be3ac9e36ca3c3ce3,2023-04-12_22h15.35.992,PRaM,2021.2.3,Win32,59.79788315,61b8f3437b89212fae0dfadf
3,4.8288,space,3.2298,0,365,365,333,1,,,5ecda7f6509c241275db7396,6437731be3ac9e36ca3c3ce3,2023-04-12_22h15.35.992,PRaM,2021.2.3,Win32,59.79788315,61b8f3437b89212fae0dfadf
1,7.4662,space,5.8501,0,366,366,31,1,,,5ecda7f6509c241275db7396,6437731be3ac9e36ca3c3ce3,2023-04-12_22h15.35.992,PRaM,2021.2.3,Win32,59.79788315,61b8f3437b89212fae0dfadf
3,4.4957,space,3.3356,0,367,367,252,1,,,5ecda7f6509c241275db7396,6437731be3ac9e36ca3c3ce3,2023-04-12_22h15.35.992,PRaM,2021.2.3,Win32,59.79788315,61b8f3437b89212fae0dfadf
2,5.8665,space,4.2742,0,368,368,110,1,,,5ecda7f6509c241275db7396,6437731be3ac9e36ca3c3ce3,2023-04-12_22h15.35.992,PRaM,2021.2.3,Win32,59.79788315,61b8f3437b89212fae0dfadf
6,8.7506,space,7.1755,0,369,369,19,1,,,5ecda7f6509c241275db7396,6437731be3ac9e36ca3c3ce3,2023-04-12_22h15.35.992,PRaM,2021.2.3,Win32,59.79788315,61b8f3437b89212fae0dfadf
3,6.8504,space,5.185,0,370,370,164,1,,,5ecda7f6509c241275db7396,6437731be3ac9e36ca3c3ce3,2023-04-12_22h15.35.992,PRaM,2021.2.3,Win32,59.79788315,61b8f3437b89212fae0dfadf
1,2.5193,space,0.922,0,371,371,129,1,,,5ecda7f6509c241275db7396,6437731be3ac9e36ca3c3ce3,2023-04-12_22h15.35.992,PRaM,2021.2.3,Win32,59.79788315,61b8f3437b89212fae0dfadf
1,1.9713,space,0.3407,0,372,372,181,1,,,5ecda7f6509c241275db7396,6437731be3ac9e36ca3c3ce3,2023-04-12_22h15.35.992,PRaM,2021.2.3,Win32,59.79788315,61b8f3437b89212fae0dfadf
6,5.4511,space,4.1188,0,373,373,328,1,,,5ecda7f6509c241275db7396,6437731be3ac9e36ca3c3ce3,2023-04-12_22h15.35.992,PRaM,2021.2.3,Win32,59.79788315,61b8f3437b89212fae0dfadf
1,16.0191,space,18.1976,0,374,374,205,1,,,5ecda7f6509c241275db7396,6437731be3ac9e36ca3c3ce3,2023-04-12_22h15.35.992,PRaM,2021.2.3,Win32,59.79788315,61b8f3437b89212fae0dfadf
1,2.7554,space,1.0821,0,375,375,78,1,,,5ecda7f6509c241275db7396,6437731be3ac9e36ca3c3ce3,2023-04-12_22h15.35.992,PRaM,2021.2.3,Win32,59.79788315,61b8f3437b89212fae0dfadf
2,4.5171,space,2.7841,0,376,376,373,1,,,5ecda7f6509c241275db7396,6437731be3ac9e36ca3c3ce3,2023-04-12_22h15.35.992,PRaM,2021.2.3,Win32,59.79788315,61b8f3437b89212fae0dfadf
1,2.2181,space,0.5844,0,377,377,143,1,,,5ecda7f6509c241275db7396,6437731be3ac9e36ca3c3ce3,2023-04-12_22h15.35.992,PRaM,2021.2.3,Win32,59.79788315,61b8f3437b89212fae0dfadf
