Rating.response,Rating.rt,EndTrial.keys,EndTrial.rt,trials.thisRepN,trials.thisTrialN,trials.thisN,trials.thisIndex,trials.ran,Pos1,Pos2,participant,session,date,expName,psychopyVersion,OS,frameRate,study_id
,,space,11.7308,0,0,0,197,1,,,5ef7783026861249d8eb58ef,643916371237555a164531c7,2023-04-14_10h01.01.951,PRaM,2021.2.3,Win32,59.99160118,61b8f3437b89212fae0dfade
,,space,30.3624,0,1,1,289,1,,,5ef7783026861249d8eb58ef,643916371237555a164531c7,2023-04-14_10h01.01.951,PRaM,2021.2.3,Win32,59.99160118,61b8f3437b89212fae0dfade
4,24.5072,space,23.5152,0,2,2,30,1,,,5ef7783026861249d8eb58ef,643916371237555a164531c7,2023-04-14_10h01.01.951,PRaM,2021.2.3,Win32,59.99160118,61b8f3437b89212fae0dfade
9,5.7814,space,5.0918,0,3,3,222,1,,,5ef7783026861249d8eb58ef,643916371237555a164531c7,2023-04-14_10h01.01.951,PRaM,2021.2.3,Win32,59.99160118,61b8f3437b89212fae0dfade
7,2.4866,space,1.8975,0,4,4,136,1,,,5ef7783026861249d8eb58ef,643916371237555a164531c7,2023-04-14_10h01.01.951,PRaM,2021.2.3,Win32,59.99160118,61b8f3437b89212fae0dfade
1,2.3359,space,0.8356,0,5,5,284,1,,,5ef7783026861249d8eb58ef,643916371237555a164531c7,2023-04-14_10h01.01.951,PRaM,2021.2.3,Win32,59.99160118,61b8f3437b89212fae0dfade
1,5.0635,space,3.5274,0,6,6,189,1,,,5ef7783026861249d8eb58ef,643916371237555a164531c7,2023-04-14_10h01.01.951,PRaM,2021.2.3,Win32,59.99160118,61b8f3437b89212fae0dfade
1,5.9277,space,4.3793,0,7,7,153,1,,,5ef7783026861249d8eb58ef,643916371237555a164531c7,2023-04-14_10h01.01.951,PRaM,2021.2.3,Win32,59.99160118,61b8f3437b89212fae0dfade
1,8.7022,space,7.1425,0,8,8,54,1,,,5ef7783026861249d8eb58ef,643916371237555a164531c7,2023-04-14_10h01.01.951,PRaM,2021.2.3,Win32,59.99160118,61b8f3437b89212fae0dfade
1,6.6691,space,5.0938,0,9,9,23,1,,,5ef7783026861249d8eb58ef,643916371237555a164531c7,2023-04-14_10h01.01.951,PRaM,2021.2.3,Win32,59.99160118,61b8f3437b89212fae0dfade
6,3.2365,space,1.5667,0,10,10,86,1,,,5ef7783026861249d8eb58ef,643916371237555a164531c7,2023-04-14_10h01.01.951,PRaM,2021.2.3,Win32,59.99160118,61b8f3437b89212fae0dfade
1,2.1348,space,0.4665,0,11,11,263,1,,,5ef7783026861249d8eb58ef,643916371237555a164531c7,2023-04-14_10h01.01.951,PRaM,2021.2.3,Win32,59.99160118,61b8f3437b89212fae0dfade
6,5.1072,space,3.4102,0,12,12,259,1,,,5ef7783026861249d8eb58ef,643916371237555a164531c7,2023-04-14_10h01.01.951,PRaM,2021.2.3,Win32,59.99160118,61b8f3437b89212fae0dfade
3,9.6693,space,8.0744,0,13,13,271,1,,,5ef7783026861249d8eb58ef,643916371237555a164531c7,2023-04-14_10h01.01.951,PRaM,2021.2.3,Win32,59.99160118,61b8f3437b89212fae0dfade
1,2.2226,space,0.6326,0,14,14,251,1,,,5ef7783026861249d8eb58ef,643916371237555a164531c7,2023-04-14_10h01.01.951,PRaM,2021.2.3,Win32,59.99160118,61b8f3437b89212fae0dfade
1,2.3699,space,0.6666,0,15,15,148,1,,,5ef7783026861249d8eb58ef,643916371237555a164531c7,2023-04-14_10h01.01.951,PRaM,2021.2.3,Win32,59.99160118,61b8f3437b89212fae0dfade
1,3.399,space,2.0307,0,16,16,103,1,,,5ef7783026861249d8eb58ef,643916371237555a164531c7,2023-04-14_10h01.01.951,PRaM,2021.2.3,Win32,59.99160118,61b8f3437b89212fae0dfade
7,2.9959,space,1.4581,0,17,17,192,1,,,5ef7783026861249d8eb58ef,643916371237555a164531c7,2023-04-14_10h01.01.951,PRaM,2021.2.3,Win32,59.99160118,61b8f3437b89212fae0dfade
1,10.9966,space,9.4497,0,18,18,73,1,,,5ef7783026861249d8eb58ef,643916371237555a164531c7,2023-04-14_10h01.01.951,PRaM,2021.2.3,Win32,59.99160118,61b8f3437b89212fae0dfade
6,3.4642,space,2.0059,0,19,19,173,1,,,5ef7783026861249d8eb58ef,643916371237555a164531c7,2023-04-14_10h01.01.951,PRaM,2021.2.3,Win32,59.99160118,61b8f3437b89212fae0dfade
4,2.912,space,2.1464,0,20,20,165,1,,,5ef7783026861249d8eb58ef,643916371237555a164531c7,2023-04-14_10h01.01.951,PRaM,2021.2.3,Win32,59.99160118,61b8f3437b89212fae0dfade
1,3.2095,space,1.564,0,21,21,10,1,,,5ef7783026861249d8eb58ef,643916371237555a164531c7,2023-04-14_10h01.01.951,PRaM,2021.2.3,Win32,59.99160118,61b8f3437b89212fae0dfade
6,3.0345,space,1.7538,0,22,22,40,1,,,5ef7783026861249d8eb58ef,643916371237555a164531c7,2023-04-14_10h01.01.951,PRaM,2021.2.3,Win32,59.99160118,61b8f3437b89212fae0dfade
1,8.5962,space,7.0041,0,23,23,377,1,,,5ef7783026861249d8eb58ef,643916371237555a164531c7,2023-04-14_10h01.01.951,PRaM,2021.2.3,Win32,59.99160118,61b8f3437b89212fae0dfade
8,4.9936,space,3.8601,0,24,24,186,1,,,5ef7783026861249d8eb58ef,643916371237555a164531c7,2023-04-14_10h01.01.951,PRaM,2021.2.3,Win32,59.99160118,61b8f3437b89212fae0dfade
7,4.5115,space,2.945,0,25,25,51,1,,,5ef7783026861249d8eb58ef,643916371237555a164531c7,2023-04-14_10h01.01.951,PRaM,2021.2.3,Win32,59.99160118,61b8f3437b89212fae0dfade
4,6.5397,space,4.9813,0,26,26,235,1,,,5ef7783026861249d8eb58ef,643916371237555a164531c7,2023-04-14_10h01.01.951,PRaM,2021.2.3,Win32,59.99160118,61b8f3437b89212fae0dfade
3,4.8763,space,3.2098,0,27,27,365,1,,,5ef7783026861249d8eb58ef,643916371237555a164531c7,2023-04-14_10h01.01.951,PRaM,2021.2.3,Win32,59.99160118,61b8f3437b89212fae0dfade
4,4.7204,space,3.0799,0,28,28,126,1,,,5ef7783026861249d8eb58ef,643916371237555a164531c7,2023-04-14_10h01.01.951,PRaM,2021.2.3,Win32,59.99160118,61b8f3437b89212fae0dfade
1,2.5986,space,1.0989,0,29,29,330,1,,,5ef7783026861249d8eb58ef,643916371237555a164531c7,2023-04-14_10h01.01.951,PRaM,2021.2.3,Win32,59.99160118,61b8f3437b89212fae0dfade
1,2.6092,space,0.9652,0,30,30,87,1,,,5ef7783026861249d8eb58ef,643916371237555a164531c7,2023-04-14_10h01.01.951,PRaM,2021.2.3,Win32,59.99160118,61b8f3437b89212fae0dfade
1,3.8877,space,2.3292,0,31,31,258,1,,,5ef7783026861249d8eb58ef,643916371237555a164531c7,2023-04-14_10h01.01.951,PRaM,2021.2.3,Win32,59.99160118,61b8f3437b89212fae0dfade
6,4.0719,space,2.4664,0,32,32,149,1,,,5ef7783026861249d8eb58ef,643916371237555a164531c7,2023-04-14_10h01.01.951,PRaM,2021.2.3,Win32,59.99160118,61b8f3437b89212fae0dfade
6,4.1944,space,2.531,0,33,33,16,1,,,5ef7783026861249d8eb58ef,643916371237555a164531c7,2023-04-14_10h01.01.951,PRaM,2021.2.3,Win32,59.99160118,61b8f3437b89212fae0dfade
2,4.4118,space,2.8942,0,34,34,185,1,,,5ef7783026861249d8eb58ef,643916371237555a164531c7,2023-04-14_10h01.01.951,PRaM,2021.2.3,Win32,59.99160118,61b8f3437b89212fae0dfade
2,4.3724,space,2.7953,0,35,35,308,1,,,5ef7783026861249d8eb58ef,643916371237555a164531c7,2023-04-14_10h01.01.951,PRaM,2021.2.3,Win32,59.99160118,61b8f3437b89212fae0dfade
5,6.0839,space,4.6935,0,36,36,162,1,,,5ef7783026861249d8eb58ef,643916371237555a164531c7,2023-04-14_10h01.01.951,PRaM,2021.2.3,Win32,59.99160118,61b8f3437b89212fae0dfade
6,8.35,space,6.6051,0,37,37,306,1,,,5ef7783026861249d8eb58ef,643916371237555a164531c7,2023-04-14_10h01.01.951,PRaM,2021.2.3,Win32,59.99160118,61b8f3437b89212fae0dfade
1,2.834,space,1.1982,0,38,38,283,1,,,5ef7783026861249d8eb58ef,643916371237555a164531c7,2023-04-14_10h01.01.951,PRaM,2021.2.3,Win32,59.99160118,61b8f3437b89212fae0dfade
6,2.2508,space,0.7003,0,39,39,7,1,,,5ef7783026861249d8eb58ef,643916371237555a164531c7,2023-04-14_10h01.01.951,PRaM,2021.2.3,Win32,59.99160118,61b8f3437b89212fae0dfade
9,4.7405,space,3.1113,0,40,40,207,1,,,5ef7783026861249d8eb58ef,643916371237555a164531c7,2023-04-14_10h01.01.951,PRaM,2021.2.3,Win32,59.99160118,61b8f3437b89212fae0dfade
7,3.7946,space,2.1132,0,41,41,307,1,,,5ef7783026861249d8eb58ef,643916371237555a164531c7,2023-04-14_10h01.01.951,PRaM,2021.2.3,Win32,59.99160118,61b8f3437b89212fae0dfade
1,2.645,space,1.0238,0,42,42,78,1,,,5ef7783026861249d8eb58ef,643916371237555a164531c7,2023-04-14_10h01.01.951,PRaM,2021.2.3,Win32,59.99160118,61b8f3437b89212fae0dfade
1,8.0096,space,6.3213,0,43,43,293,1,,,5ef7783026861249d8eb58ef,643916371237555a164531c7,2023-04-14_10h01.01.951,PRaM,2021.2.3,Win32,59.99160118,61b8f3437b89212fae0dfade
2,6.0681,space,4.497,0,44,44,238,1,,,5ef7783026861249d8eb58ef,643916371237555a164531c7,2023-04-14_10h01.01.951,PRaM,2021.2.3,Win32,59.99160118,61b8f3437b89212fae0dfade
6,3.4855,space,1.7481,0,45,45,69,1,,,5ef7783026861249d8eb58ef,643916371237555a164531c7,2023-04-14_10h01.01.951,PRaM,2021.2.3,Win32,59.99160118,61b8f3437b89212fae0dfade
2,5.7293,space,3.9426,0,46,46,171,1,,,5ef7783026861249d8eb58ef,643916371237555a164531c7,2023-04-14_10h01.01.951,PRaM,2021.2.3,Win32,59.99160118,61b8f3437b89212fae0dfade
4,4.2973,space,2.5468,0,47,47,344,1,,,5ef7783026861249d8eb58ef,643916371237555a164531c7,2023-04-14_10h01.01.951,PRaM,2021.2.3,Win32,59.99160118,61b8f3437b89212fae0dfade
1,4.4268,space,2.837,0,48,48,113,1,,,5ef7783026861249d8eb58ef,643916371237555a164531c7,2023-04-14_10h01.01.951,PRaM,2021.2.3,Win32,59.99160118,61b8f3437b89212fae0dfade
1,2.05,space,0.483,0,49,49,329,1,,,5ef7783026861249d8eb58ef,643916371237555a164531c7,2023-04-14_10h01.01.951,PRaM,2021.2.3,Win32,59.99160118,61b8f3437b89212fae0dfade
7,2.3286,space,0.733,0,50,50,297,1,,,5ef7783026861249d8eb58ef,643916371237555a164531c7,2023-04-14_10h01.01.951,PRaM,2021.2.3,Win32,59.99160118,61b8f3437b89212fae0dfade
3,3.2765,space,3.4176,0,51,51,68,1,,,5ef7783026861249d8eb58ef,643916371237555a164531c7,2023-04-14_10h01.01.951,PRaM,2021.2.3,Win32,59.99160118,61b8f3437b89212fae0dfade
8,3.1413,space,1.5308,0,52,52,53,1,,,5ef7783026861249d8eb58ef,643916371237555a164531c7,2023-04-14_10h01.01.951,PRaM,2021.2.3,Win32,59.99160118,61b8f3437b89212fae0dfade
5,2.8749,space,1.2495,0,53,53,85,1,,,5ef7783026861249d8eb58ef,643916371237555a164531c7,2023-04-14_10h01.01.951,PRaM,2021.2.3,Win32,59.99160118,61b8f3437b89212fae0dfade
1,5.663,space,4.0593,0,54,54,300,1,,,5ef7783026861249d8eb58ef,643916371237555a164531c7,2023-04-14_10h01.01.951,PRaM,2021.2.3,Win32,59.99160118,61b8f3437b89212fae0dfade
3,4.4552,space,2.6451,0,55,55,169,1,,,5ef7783026861249d8eb58ef,643916371237555a164531c7,2023-04-14_10h01.01.951,PRaM,2021.2.3,Win32,59.99160118,61b8f3437b89212fae0dfade
3,8.3533,space,7.5413,0,56,56,269,1,,,5ef7783026861249d8eb58ef,643916371237555a164531c7,2023-04-14_10h01.01.951,PRaM,2021.2.3,Win32,59.99160118,61b8f3437b89212fae0dfade
4,7.3873,space,5.9563,0,57,57,239,1,,,5ef7783026861249d8eb58ef,643916371237555a164531c7,2023-04-14_10h01.01.951,PRaM,2021.2.3,Win32,59.99160118,61b8f3437b89212fae0dfade
2,4.014,space,2.379,0,58,58,315,1,,,5ef7783026861249d8eb58ef,643916371237555a164531c7,2023-04-14_10h01.01.951,PRaM,2021.2.3,Win32,59.99160118,61b8f3437b89212fae0dfade
1,3.7067,space,2.1465,0,59,59,272,1,,,5ef7783026861249d8eb58ef,643916371237555a164531c7,2023-04-14_10h01.01.951,PRaM,2021.2.3,Win32,59.99160118,61b8f3437b89212fae0dfade
1,3.0061,space,1.4152,0,60,60,356,1,,,5ef7783026861249d8eb58ef,643916371237555a164531c7,2023-04-14_10h01.01.951,PRaM,2021.2.3,Win32,59.99160118,61b8f3437b89212fae0dfade
4,30.4462,space,29.5879,0,61,61,233,1,,,5ef7783026861249d8eb58ef,643916371237555a164531c7,2023-04-14_10h01.01.951,PRaM,2021.2.3,Win32,59.99160118,61b8f3437b89212fae0dfade
1,3.0119,space,1.2152,0,62,62,345,1,,,5ef7783026861249d8eb58ef,643916371237555a164531c7,2023-04-14_10h01.01.951,PRaM,2021.2.3,Win32,59.99160118,61b8f3437b89212fae0dfade
1,2.2523,space,0.4829,0,63,63,295,1,,,5ef7783026861249d8eb58ef,643916371237555a164531c7,2023-04-14_10h01.01.951,PRaM,2021.2.3,Win32,59.99160118,61b8f3437b89212fae0dfade
4,3.5852,space,2.1971,0,64,64,359,1,,,5ef7783026861249d8eb58ef,643916371237555a164531c7,2023-04-14_10h01.01.951,PRaM,2021.2.3,Win32,59.99160118,61b8f3437b89212fae0dfade
5,3.0582,space,1.3159,0,65,65,178,1,,,5ef7783026861249d8eb58ef,643916371237555a164531c7,2023-04-14_10h01.01.951,PRaM,2021.2.3,Win32,59.99160118,61b8f3437b89212fae0dfade
1,3.455,space,2.0316,0,66,66,133,1,,,5ef7783026861249d8eb58ef,643916371237555a164531c7,2023-04-14_10h01.01.951,PRaM,2021.2.3,Win32,59.99160118,61b8f3437b89212fae0dfade
1,2.1841,space,0.851,0,67,67,65,1,,,5ef7783026861249d8eb58ef,643916371237555a164531c7,2023-04-14_10h01.01.951,PRaM,2021.2.3,Win32,59.99160118,61b8f3437b89212fae0dfade
7,3.029,space,1.4307,0,68,68,340,1,,,5ef7783026861249d8eb58ef,643916371237555a164531c7,2023-04-14_10h01.01.951,PRaM,2021.2.3,Win32,59.99160118,61b8f3437b89212fae0dfade
3,3.1622,space,1.4804,0,69,69,76,1,,,5ef7783026861249d8eb58ef,643916371237555a164531c7,2023-04-14_10h01.01.951,PRaM,2021.2.3,Win32,59.99160118,61b8f3437b89212fae0dfade
2,3.6605,space,1.93,0,70,70,146,1,,,5ef7783026861249d8eb58ef,643916371237555a164531c7,2023-04-14_10h01.01.951,PRaM,2021.2.3,Win32,59.99160118,61b8f3437b89212fae0dfade
1,3.0439,space,1.3323,0,71,71,309,1,,,5ef7783026861249d8eb58ef,643916371237555a164531c7,2023-04-14_10h01.01.951,PRaM,2021.2.3,Win32,59.99160118,61b8f3437b89212fae0dfade
8,2.8198,space,1.3315,0,72,72,33,1,,,5ef7783026861249d8eb58ef,643916371237555a164531c7,2023-04-14_10h01.01.951,PRaM,2021.2.3,Win32,59.99160118,61b8f3437b89212fae0dfade
3,20.1109,space,19.2904,0,73,73,324,1,,,5ef7783026861249d8eb58ef,643916371237555a164531c7,2023-04-14_10h01.01.951,PRaM,2021.2.3,Win32,59.99160118,61b8f3437b89212fae0dfade
1,2.7222,space,1.1816,0,74,74,82,1,,,5ef7783026861249d8eb58ef,643916371237555a164531c7,2023-04-14_10h01.01.951,PRaM,2021.2.3,Win32,59.99160118,61b8f3437b89212fae0dfade
3,6.3669,space,4.758,0,75,75,347,1,,,5ef7783026861249d8eb58ef,643916371237555a164531c7,2023-04-14_10h01.01.951,PRaM,2021.2.3,Win32,59.99160118,61b8f3437b89212fae0dfade
3,2.2788,space,0.7421,0,76,76,249,1,,,5ef7783026861249d8eb58ef,643916371237555a164531c7,2023-04-14_10h01.01.951,PRaM,2021.2.3,Win32,59.99160118,61b8f3437b89212fae0dfade
1,2.4363,space,0.8491,0,77,77,49,1,,,5ef7783026861249d8eb58ef,643916371237555a164531c7,2023-04-14_10h01.01.951,PRaM,2021.2.3,Win32,59.99160118,61b8f3437b89212fae0dfade
3,2.9745,space,1.3455,0,78,78,20,1,,,5ef7783026861249d8eb58ef,643916371237555a164531c7,2023-04-14_10h01.01.951,PRaM,2021.2.3,Win32,59.99160118,61b8f3437b89212fae0dfade
1,2.1782,space,0.4952,0,79,79,161,1,,,5ef7783026861249d8eb58ef,643916371237555a164531c7,2023-04-14_10h01.01.951,PRaM,2021.2.3,Win32,59.99160118,61b8f3437b89212fae0dfade
1,1.8844,space,0.267,0,80,80,204,1,,,5ef7783026861249d8eb58ef,643916371237555a164531c7,2023-04-14_10h01.01.951,PRaM,2021.2.3,Win32,59.99160118,61b8f3437b89212fae0dfade
1,1.7059,space,0.1102,0,81,81,218,1,,,5ef7783026861249d8eb58ef,643916371237555a164531c7,2023-04-14_10h01.01.951,PRaM,2021.2.3,Win32,59.99160118,61b8f3437b89212fae0dfade
9,3.96,space,2.8788,0,82,82,17,1,,,5ef7783026861249d8eb58ef,643916371237555a164531c7,2023-04-14_10h01.01.951,PRaM,2021.2.3,Win32,59.99160118,61b8f3437b89212fae0dfade
3,2.9196,space,1.1151,0,83,83,338,1,,,5ef7783026861249d8eb58ef,643916371237555a164531c7,2023-04-14_10h01.01.951,PRaM,2021.2.3,Win32,59.99160118,61b8f3437b89212fae0dfade
2,4.7373,space,3.0697,0,84,84,74,1,,,5ef7783026861249d8eb58ef,643916371237555a164531c7,2023-04-14_10h01.01.951,PRaM,2021.2.3,Win32,59.99160118,61b8f3437b89212fae0dfade
3,7.054,space,5.3574,0,85,85,18,1,,,5ef7783026861249d8eb58ef,643916371237555a164531c7,2023-04-14_10h01.01.951,PRaM,2021.2.3,Win32,59.99160118,61b8f3437b89212fae0dfade
3,5.9232,space,4.3757,0,86,86,44,1,,,5ef7783026861249d8eb58ef,643916371237555a164531c7,2023-04-14_10h01.01.951,PRaM,2021.2.3,Win32,59.99160118,61b8f3437b89212fae0dfade
1,5.3733,space,3.6935,0,87,87,155,1,,,5ef7783026861249d8eb58ef,643916371237555a164531c7,2023-04-14_10h01.01.951,PRaM,2021.2.3,Win32,59.99160118,61b8f3437b89212fae0dfade
1,1.8138,space,0.1177,0,88,88,184,1,,,5ef7783026861249d8eb58ef,643916371237555a164531c7,2023-04-14_10h01.01.951,PRaM,2021.2.3,Win32,59.99160118,61b8f3437b89212fae0dfade
1,1.7078,space,0.1561,0,89,89,135,1,,,5ef7783026861249d8eb58ef,643916371237555a164531c7,2023-04-14_10h01.01.951,PRaM,2021.2.3,Win32,59.99160118,61b8f3437b89212fae0dfade
8,4.0279,space,2.4359,0,90,90,213,1,,,5ef7783026861249d8eb58ef,643916371237555a164531c7,2023-04-14_10h01.01.951,PRaM,2021.2.3,Win32,59.99160118,61b8f3437b89212fae0dfade
1,2.7535,space,1.1044,0,91,91,190,1,,,5ef7783026861249d8eb58ef,643916371237555a164531c7,2023-04-14_10h01.01.951,PRaM,2021.2.3,Win32,59.99160118,61b8f3437b89212fae0dfade
1,2.8944,space,1.2988,0,92,92,203,1,,,5ef7783026861249d8eb58ef,643916371237555a164531c7,2023-04-14_10h01.01.951,PRaM,2021.2.3,Win32,59.99160118,61b8f3437b89212fae0dfade
6,3.3385,space,1.6803,0,93,93,64,1,,,5ef7783026861249d8eb58ef,643916371237555a164531c7,2023-04-14_10h01.01.951,PRaM,2021.2.3,Win32,59.99160118,61b8f3437b89212fae0dfade
8,6.2794,space,4.5117,0,94,94,364,1,,,5ef7783026861249d8eb58ef,643916371237555a164531c7,2023-04-14_10h01.01.951,PRaM,2021.2.3,Win32,59.99160118,61b8f3437b89212fae0dfade
6,8.5179,space,6.9061,0,95,95,93,1,,,5ef7783026861249d8eb58ef,643916371237555a164531c7,2023-04-14_10h01.01.951,PRaM,2021.2.3,Win32,59.99160118,61b8f3437b89212fae0dfade
6,3.0927,space,1.3193,0,96,96,352,1,,,5ef7783026861249d8eb58ef,643916371237555a164531c7,2023-04-14_10h01.01.951,PRaM,2021.2.3,Win32,59.99160118,61b8f3437b89212fae0dfade
6,2.0835,space,0.4356,0,97,97,225,1,,,5ef7783026861249d8eb58ef,643916371237555a164531c7,2023-04-14_10h01.01.951,PRaM,2021.2.3,Win32,59.99160118,61b8f3437b89212fae0dfade
2,2.6988,space,1.0696,0,98,98,147,1,,,5ef7783026861249d8eb58ef,643916371237555a164531c7,2023-04-14_10h01.01.951,PRaM,2021.2.3,Win32,59.99160118,61b8f3437b89212fae0dfade
6,6.4609,space,5.1117,0,99,99,142,1,,,5ef7783026861249d8eb58ef,643916371237555a164531c7,2023-04-14_10h01.01.951,PRaM,2021.2.3,Win32,59.99160118,61b8f3437b89212fae0dfade
6,4.9312,space,3.205,0,100,100,182,1,,,5ef7783026861249d8eb58ef,643916371237555a164531c7,2023-04-14_10h01.01.951,PRaM,2021.2.3,Win32,59.99160118,61b8f3437b89212fae0dfade
6,2.7183,space,1.2552,0,101,101,83,1,,,5ef7783026861249d8eb58ef,643916371237555a164531c7,2023-04-14_10h01.01.951,PRaM,2021.2.3,Win32,59.99160118,61b8f3437b89212fae0dfade
5,4.3477,space,2.782,0,102,102,99,1,,,5ef7783026861249d8eb58ef,643916371237555a164531c7,2023-04-14_10h01.01.951,PRaM,2021.2.3,Win32,59.99160118,61b8f3437b89212fae0dfade
2,6.3307,space,4.6448,0,103,103,371,1,,,5ef7783026861249d8eb58ef,643916371237555a164531c7,2023-04-14_10h01.01.951,PRaM,2021.2.3,Win32,59.99160118,61b8f3437b89212fae0dfade
5,5.781,space,4.233,0,104,104,242,1,,,5ef7783026861249d8eb58ef,643916371237555a164531c7,2023-04-14_10h01.01.951,PRaM,2021.2.3,Win32,59.99160118,61b8f3437b89212fae0dfade
4,12.7604,space,11.3647,0,105,105,211,1,,,5ef7783026861249d8eb58ef,643916371237555a164531c7,2023-04-14_10h01.01.951,PRaM,2021.2.3,Win32,59.99160118,61b8f3437b89212fae0dfade
4,20.5502,space,19.5858,0,106,106,131,1,,,5ef7783026861249d8eb58ef,643916371237555a164531c7,2023-04-14_10h01.01.951,PRaM,2021.2.3,Win32,59.99160118,61b8f3437b89212fae0dfade
3,3.5114,space,1.8805,0,107,107,90,1,,,5ef7783026861249d8eb58ef,643916371237555a164531c7,2023-04-14_10h01.01.951,PRaM,2021.2.3,Win32,59.99160118,61b8f3437b89212fae0dfade
3,2.0244,space,0.25,0,108,108,240,1,,,5ef7783026861249d8eb58ef,643916371237555a164531c7,2023-04-14_10h01.01.951,PRaM,2021.2.3,Win32,59.99160118,61b8f3437b89212fae0dfade
7,3.574,space,1.9148,0,109,109,335,1,,,5ef7783026861249d8eb58ef,643916371237555a164531c7,2023-04-14_10h01.01.951,PRaM,2021.2.3,Win32,59.99160118,61b8f3437b89212fae0dfade
6,3.2332,space,1.556,0,110,110,363,1,,,5ef7783026861249d8eb58ef,643916371237555a164531c7,2023-04-14_10h01.01.951,PRaM,2021.2.3,Win32,59.99160118,61b8f3437b89212fae0dfade
5,2.2179,space,1.0514,0,111,111,257,1,,,5ef7783026861249d8eb58ef,643916371237555a164531c7,2023-04-14_10h01.01.951,PRaM,2021.2.3,Win32,59.99160118,61b8f3437b89212fae0dfade
2,6.7086,space,5.1008,0,112,112,8,1,,,5ef7783026861249d8eb58ef,643916371237555a164531c7,2023-04-14_10h01.01.951,PRaM,2021.2.3,Win32,59.99160118,61b8f3437b89212fae0dfade
4,3.1782,space,1.3464,0,113,113,292,1,,,5ef7783026861249d8eb58ef,643916371237555a164531c7,2023-04-14_10h01.01.951,PRaM,2021.2.3,Win32,59.99160118,61b8f3437b89212fae0dfade
2,2.6014,space,0.8487,0,114,114,270,1,,,5ef7783026861249d8eb58ef,643916371237555a164531c7,2023-04-14_10h01.01.951,PRaM,2021.2.3,Win32,59.99160118,61b8f3437b89212fae0dfade
7,4.7064,space,3.101,0,115,115,164,1,,,5ef7783026861249d8eb58ef,643916371237555a164531c7,2023-04-14_10h01.01.951,PRaM,2021.2.3,Win32,59.99160118,61b8f3437b89212fae0dfade
2,2.41,space,0.5521,0,116,116,111,1,,,5ef7783026861249d8eb58ef,643916371237555a164531c7,2023-04-14_10h01.01.951,PRaM,2021.2.3,Win32,59.99160118,61b8f3437b89212fae0dfade
3,1.8235,space,0.0714,0,117,117,275,1,,,5ef7783026861249d8eb58ef,643916371237555a164531c7,2023-04-14_10h01.01.951,PRaM,2021.2.3,Win32,59.99160118,61b8f3437b89212fae0dfade
3,2.0264,space,0.2406,0,118,118,290,1,,,5ef7783026861249d8eb58ef,643916371237555a164531c7,2023-04-14_10h01.01.951,PRaM,2021.2.3,Win32,59.99160118,61b8f3437b89212fae0dfade
8,2.3688,space,0.6174,0,119,119,88,1,,,5ef7783026861249d8eb58ef,643916371237555a164531c7,2023-04-14_10h01.01.951,PRaM,2021.2.3,Win32,59.99160118,61b8f3437b89212fae0dfade
7,2.1796,space,0.3549,0,120,120,168,1,,,5ef7783026861249d8eb58ef,643916371237555a164531c7,2023-04-14_10h01.01.951,PRaM,2021.2.3,Win32,59.99160118,61b8f3437b89212fae0dfade
2,2.4331,space,0.8232,0,121,121,58,1,,,5ef7783026861249d8eb58ef,643916371237555a164531c7,2023-04-14_10h01.01.951,PRaM,2021.2.3,Win32,59.99160118,61b8f3437b89212fae0dfade
2,2.2236,space,0.5691,0,122,122,268,1,,,5ef7783026861249d8eb58ef,643916371237555a164531c7,2023-04-14_10h01.01.951,PRaM,2021.2.3,Win32,59.99160118,61b8f3437b89212fae0dfade
4,2.2697,space,0.6041,0,123,123,138,1,,,5ef7783026861249d8eb58ef,643916371237555a164531c7,2023-04-14_10h01.01.951,PRaM,2021.2.3,Win32,59.99160118,61b8f3437b89212fae0dfade
8,3.4174,space,1.7662,0,124,124,12,1,,,5ef7783026861249d8eb58ef,643916371237555a164531c7,2023-04-14_10h01.01.951,PRaM,2021.2.3,Win32,59.99160118,61b8f3437b89212fae0dfade
3,5.4578,space,3.6621,0,125,125,368,1,,,5ef7783026861249d8eb58ef,643916371237555a164531c7,2023-04-14_10h01.01.951,PRaM,2021.2.3,Win32,59.99160118,61b8f3437b89212fae0dfade
2,2.1822,space,0.3993,0,126,126,98,1,,,5ef7783026861249d8eb58ef,643916371237555a164531c7,2023-04-14_10h01.01.951,PRaM,2021.2.3,Win32,59.99160118,61b8f3437b89212fae0dfade
1,2.3682,space,0.5366,0,127,127,287,1,,,5ef7783026861249d8eb58ef,643916371237555a164531c7,2023-04-14_10h01.01.951,PRaM,2021.2.3,Win32,59.99160118,61b8f3437b89212fae0dfade
4,4.1239,space,2.2877,0,128,128,220,1,,,5ef7783026861249d8eb58ef,643916371237555a164531c7,2023-04-14_10h01.01.951,PRaM,2021.2.3,Win32,59.99160118,61b8f3437b89212fae0dfade
3,2.3023,space,0.6128,0,129,129,369,1,,,5ef7783026861249d8eb58ef,643916371237555a164531c7,2023-04-14_10h01.01.951,PRaM,2021.2.3,Win32,59.99160118,61b8f3437b89212fae0dfade
2,7.8082,space,6.0104,0,130,130,108,1,,,5ef7783026861249d8eb58ef,643916371237555a164531c7,2023-04-14_10h01.01.951,PRaM,2021.2.3,Win32,59.99160118,61b8f3437b89212fae0dfade
8,2.4869,space,0.9158,0,131,131,43,1,,,5ef7783026861249d8eb58ef,643916371237555a164531c7,2023-04-14_10h01.01.951,PRaM,2021.2.3,Win32,59.99160118,61b8f3437b89212fae0dfade
4,1.8421,space,0.2538,0,132,132,9,1,,,5ef7783026861249d8eb58ef,643916371237555a164531c7,2023-04-14_10h01.01.951,PRaM,2021.2.3,Win32,59.99160118,61b8f3437b89212fae0dfade
3,2.3031,space,1.0351,0,133,133,81,1,,,5ef7783026861249d8eb58ef,643916371237555a164531c7,2023-04-14_10h01.01.951,PRaM,2021.2.3,Win32,59.99160118,61b8f3437b89212fae0dfade
1,3.359,space,1.73,0,134,134,244,1,,,5ef7783026861249d8eb58ef,643916371237555a164531c7,2023-04-14_10h01.01.951,PRaM,2021.2.3,Win32,59.99160118,61b8f3437b89212fae0dfade
2,2.0343,space,0.4548,0,135,135,67,1,,,5ef7783026861249d8eb58ef,643916371237555a164531c7,2023-04-14_10h01.01.951,PRaM,2021.2.3,Win32,59.99160118,61b8f3437b89212fae0dfade
8,3.0082,space,1.3022,0,136,136,175,1,,,5ef7783026861249d8eb58ef,643916371237555a164531c7,2023-04-14_10h01.01.951,PRaM,2021.2.3,Win32,59.99160118,61b8f3437b89212fae0dfade
2,2.6643,space,0.8797,0,137,137,195,1,,,5ef7783026861249d8eb58ef,643916371237555a164531c7,2023-04-14_10h01.01.951,PRaM,2021.2.3,Win32,59.99160118,61b8f3437b89212fae0dfade
7,2.3486,space,0.5681,0,138,138,4,1,,,5ef7783026861249d8eb58ef,643916371237555a164531c7,2023-04-14_10h01.01.951,PRaM,2021.2.3,Win32,59.99160118,61b8f3437b89212fae0dfade
3,2.6425,space,0.7688,0,139,139,41,1,,,5ef7783026861249d8eb58ef,643916371237555a164531c7,2023-04-14_10h01.01.951,PRaM,2021.2.3,Win32,59.99160118,61b8f3437b89212fae0dfade
2,2.5309,space,0.8401,0,140,140,150,1,,,5ef7783026861249d8eb58ef,643916371237555a164531c7,2023-04-14_10h01.01.951,PRaM,2021.2.3,Win32,59.99160118,61b8f3437b89212fae0dfade
2,2.4058,space,0.7099,0,141,141,260,1,,,5ef7783026861249d8eb58ef,643916371237555a164531c7,2023-04-14_10h01.01.951,PRaM,2021.2.3,Win32,59.99160118,61b8f3437b89212fae0dfade
2,1.7065,space,0.6864,0,142,142,353,1,,,5ef7783026861249d8eb58ef,643916371237555a164531c7,2023-04-14_10h01.01.951,PRaM,2021.2.3,Win32,59.99160118,61b8f3437b89212fae0dfade
8,2.1682,space,0.3385,0,143,143,3,1,,,5ef7783026861249d8eb58ef,643916371237555a164531c7,2023-04-14_10h01.01.951,PRaM,2021.2.3,Win32,59.99160118,61b8f3437b89212fae0dfade
4,2.8994,space,1.0895,0,144,144,84,1,,,5ef7783026861249d8eb58ef,643916371237555a164531c7,2023-04-14_10h01.01.951,PRaM,2021.2.3,Win32,59.99160118,61b8f3437b89212fae0dfade
7,3.3104,space,1.4373,0,145,145,188,1,,,5ef7783026861249d8eb58ef,643916371237555a164531c7,2023-04-14_10h01.01.951,PRaM,2021.2.3,Win32,59.99160118,61b8f3437b89212fae0dfade
4,5.8223,space,4.0608,0,146,146,223,1,,,5ef7783026861249d8eb58ef,643916371237555a164531c7,2023-04-14_10h01.01.951,PRaM,2021.2.3,Win32,59.99160118,61b8f3437b89212fae0dfade
3,2.4158,space,1.3011,0,147,147,52,1,,,5ef7783026861249d8eb58ef,643916371237555a164531c7,2023-04-14_10h01.01.951,PRaM,2021.2.3,Win32,59.99160118,61b8f3437b89212fae0dfade
7,2.3059,space,0.7194,0,148,148,132,1,,,5ef7783026861249d8eb58ef,643916371237555a164531c7,2023-04-14_10h01.01.951,PRaM,2021.2.3,Win32,59.99160118,61b8f3437b89212fae0dfade
2,2.673,space,1.0401,0,149,149,373,1,,,5ef7783026861249d8eb58ef,643916371237555a164531c7,2023-04-14_10h01.01.951,PRaM,2021.2.3,Win32,59.99160118,61b8f3437b89212fae0dfade
9,3.3973,space,1.772,0,150,150,301,1,,,5ef7783026861249d8eb58ef,643916371237555a164531c7,2023-04-14_10h01.01.951,PRaM,2021.2.3,Win32,59.99160118,61b8f3437b89212fae0dfade
3,2.3566,space,0.7576,0,151,151,71,1,,,5ef7783026861249d8eb58ef,643916371237555a164531c7,2023-04-14_10h01.01.951,PRaM,2021.2.3,Win32,59.99160118,61b8f3437b89212fae0dfade
2,2.3027,space,0.5879,0,152,152,212,1,,,5ef7783026861249d8eb58ef,643916371237555a164531c7,2023-04-14_10h01.01.951,PRaM,2021.2.3,Win32,59.99160118,61b8f3437b89212fae0dfade
9,3.3432,space,1.7706,0,153,153,118,1,,,5ef7783026861249d8eb58ef,643916371237555a164531c7,2023-04-14_10h01.01.951,PRaM,2021.2.3,Win32,59.99160118,61b8f3437b89212fae0dfade
3,2.369,space,0.6495,0,154,154,253,1,,,5ef7783026861249d8eb58ef,643916371237555a164531c7,2023-04-14_10h01.01.951,PRaM,2021.2.3,Win32,59.99160118,61b8f3437b89212fae0dfade
6,2.975,space,1.2732,0,155,155,198,1,,,5ef7783026861249d8eb58ef,643916371237555a164531c7,2023-04-14_10h01.01.951,PRaM,2021.2.3,Win32,59.99160118,61b8f3437b89212fae0dfade
3,4.9071,space,3.2114,0,156,156,298,1,,,5ef7783026861249d8eb58ef,643916371237555a164531c7,2023-04-14_10h01.01.951,PRaM,2021.2.3,Win32,59.99160118,61b8f3437b89212fae0dfade
6,2.5429,space,0.7201,0,157,157,333,1,,,5ef7783026861249d8eb58ef,643916371237555a164531c7,2023-04-14_10h01.01.951,PRaM,2021.2.3,Win32,59.99160118,61b8f3437b89212fae0dfade
3,2.5405,space,0.7586,0,158,158,109,1,,,5ef7783026861249d8eb58ef,643916371237555a164531c7,2023-04-14_10h01.01.951,PRaM,2021.2.3,Win32,59.99160118,61b8f3437b89212fae0dfade
1,9.0431,space,8.2725,0,159,159,79,1,,,5ef7783026861249d8eb58ef,643916371237555a164531c7,2023-04-14_10h01.01.951,PRaM,2021.2.3,Win32,59.99160118,61b8f3437b89212fae0dfade
8,2.4002,space,0.9486,0,160,160,159,1,,,5ef7783026861249d8eb58ef,643916371237555a164531c7,2023-04-14_10h01.01.951,PRaM,2021.2.3,Win32,59.99160118,61b8f3437b89212fae0dfade
1,2.2459,space,0.6659,0,161,161,92,1,,,5ef7783026861249d8eb58ef,643916371237555a164531c7,2023-04-14_10h01.01.951,PRaM,2021.2.3,Win32,59.99160118,61b8f3437b89212fae0dfade
3,3.044,space,1.6862,0,162,162,266,1,,,5ef7783026861249d8eb58ef,643916371237555a164531c7,2023-04-14_10h01.01.951,PRaM,2021.2.3,Win32,59.99160118,61b8f3437b89212fae0dfade
1,2.918,space,1.581,0,163,163,215,1,,,5ef7783026861249d8eb58ef,643916371237555a164531c7,2023-04-14_10h01.01.951,PRaM,2021.2.3,Win32,59.99160118,61b8f3437b89212fae0dfade
4,2.5476,space,0.9651,0,164,164,280,1,,,5ef7783026861249d8eb58ef,643916371237555a164531c7,2023-04-14_10h01.01.951,PRaM,2021.2.3,Win32,59.99160118,61b8f3437b89212fae0dfade
5,2.4459,space,0.9158,0,165,165,115,1,,,5ef7783026861249d8eb58ef,643916371237555a164531c7,2023-04-14_10h01.01.951,PRaM,2021.2.3,Win32,59.99160118,61b8f3437b89212fae0dfade
5,4.1885,space,2.6261,0,166,166,102,1,,,5ef7783026861249d8eb58ef,643916371237555a164531c7,2023-04-14_10h01.01.951,PRaM,2021.2.3,Win32,59.99160118,61b8f3437b89212fae0dfade
5,2.4178,space,0.7985,0,167,167,311,1,,,5ef7783026861249d8eb58ef,643916371237555a164531c7,2023-04-14_10h01.01.951,PRaM,2021.2.3,Win32,59.99160118,61b8f3437b89212fae0dfade
9,3.523,space,1.8704,0,168,168,320,1,,,5ef7783026861249d8eb58ef,643916371237555a164531c7,2023-04-14_10h01.01.951,PRaM,2021.2.3,Win32,59.99160118,61b8f3437b89212fae0dfade
5,3.6162,space,2.1702,0,169,169,172,1,,,5ef7783026861249d8eb58ef,643916371237555a164531c7,2023-04-14_10h01.01.951,PRaM,2021.2.3,Win32,59.99160118,61b8f3437b89212fae0dfade
4,3.1077,space,1.3202,0,170,170,187,1,,,5ef7783026861249d8eb58ef,643916371237555a164531c7,2023-04-14_10h01.01.951,PRaM,2021.2.3,Win32,59.99160118,61b8f3437b89212fae0dfade
1,3.6792,space,2.2612,0,171,171,34,1,,,5ef7783026861249d8eb58ef,643916371237555a164531c7,2023-04-14_10h01.01.951,PRaM,2021.2.3,Win32,59.99160118,61b8f3437b89212fae0dfade
7,4.4417,space,2.797,0,172,172,96,1,,,5ef7783026861249d8eb58ef,643916371237555a164531c7,2023-04-14_10h01.01.951,PRaM,2021.2.3,Win32,59.99160118,61b8f3437b89212fae0dfade
4,4.1717,space,2.5963,0,173,173,224,1,,,5ef7783026861249d8eb58ef,643916371237555a164531c7,2023-04-14_10h01.01.951,PRaM,2021.2.3,Win32,59.99160118,61b8f3437b89212fae0dfade
4,2.2626,space,0.5669,0,174,174,337,1,,,5ef7783026861249d8eb58ef,643916371237555a164531c7,2023-04-14_10h01.01.951,PRaM,2021.2.3,Win32,59.99160118,61b8f3437b89212fae0dfade
1,7.0096,space,6.0558,0,175,175,39,1,,,5ef7783026861249d8eb58ef,643916371237555a164531c7,2023-04-14_10h01.01.951,PRaM,2021.2.3,Win32,59.99160118,61b8f3437b89212fae0dfade
5,3.0346,space,1.4485,0,176,176,274,1,,,5ef7783026861249d8eb58ef,643916371237555a164531c7,2023-04-14_10h01.01.951,PRaM,2021.2.3,Win32,59.99160118,61b8f3437b89212fae0dfade
1,2.2836,space,0.616,0,177,177,36,1,,,5ef7783026861249d8eb58ef,643916371237555a164531c7,2023-04-14_10h01.01.951,PRaM,2021.2.3,Win32,59.99160118,61b8f3437b89212fae0dfade
1,7.091,space,5.9821,0,178,178,229,1,,,5ef7783026861249d8eb58ef,643916371237555a164531c7,2023-04-14_10h01.01.951,PRaM,2021.2.3,Win32,59.99160118,61b8f3437b89212fae0dfade
4,2.2986,space,0.5904,0,179,179,357,1,,,5ef7783026861249d8eb58ef,643916371237555a164531c7,2023-04-14_10h01.01.951,PRaM,2021.2.3,Win32,59.99160118,61b8f3437b89212fae0dfade
4,2.2209,space,0.5566,0,180,180,282,1,,,5ef7783026861249d8eb58ef,643916371237555a164531c7,2023-04-14_10h01.01.951,PRaM,2021.2.3,Win32,59.99160118,61b8f3437b89212fae0dfade
5,2.1656,space,0.5487,0,181,181,114,1,,,5ef7783026861249d8eb58ef,643916371237555a164531c7,2023-04-14_10h01.01.951,PRaM,2021.2.3,Win32,59.99160118,61b8f3437b89212fae0dfade
8,3.543,space,1.8656,0,182,182,105,1,,,5ef7783026861249d8eb58ef,643916371237555a164531c7,2023-04-14_10h01.01.951,PRaM,2021.2.3,Win32,59.99160118,61b8f3437b89212fae0dfade
6,1.5646,space,0.0018,0,183,183,351,1,,,5ef7783026861249d8eb58ef,643916371237555a164531c7,2023-04-14_10h01.01.951,PRaM,2021.2.3,Win32,59.99160118,61b8f3437b89212fae0dfade
8,2.7795,space,1.1315,0,184,184,230,1,,,5ef7783026861249d8eb58ef,643916371237555a164531c7,2023-04-14_10h01.01.951,PRaM,2021.2.3,Win32,59.99160118,61b8f3437b89212fae0dfade
6,2.0505,space,0.3666,0,185,185,216,1,,,5ef7783026861249d8eb58ef,643916371237555a164531c7,2023-04-14_10h01.01.951,PRaM,2021.2.3,Win32,59.99160118,61b8f3437b89212fae0dfade
9,3.148,space,1.5492,0,186,186,319,1,,,5ef7783026861249d8eb58ef,643916371237555a164531c7,2023-04-14_10h01.01.951,PRaM,2021.2.3,Win32,59.99160118,61b8f3437b89212fae0dfade
5,5.1534,space,3.4856,0,187,187,104,1,,,5ef7783026861249d8eb58ef,643916371237555a164531c7,2023-04-14_10h01.01.951,PRaM,2021.2.3,Win32,59.99160118,61b8f3437b89212fae0dfade
3,4.592,space,2.8623,0,188,188,31,1,,,5ef7783026861249d8eb58ef,643916371237555a164531c7,2023-04-14_10h01.01.951,PRaM,2021.2.3,Win32,59.99160118,61b8f3437b89212fae0dfade
5,2.223,space,1.1163,0,189,189,201,1,,,5ef7783026861249d8eb58ef,643916371237555a164531c7,2023-04-14_10h01.01.951,PRaM,2021.2.3,Win32,59.99160118,61b8f3437b89212fae0dfade
2,4.5882,space,2.9616,0,190,190,227,1,,,5ef7783026861249d8eb58ef,643916371237555a164531c7,2023-04-14_10h01.01.951,PRaM,2021.2.3,Win32,59.99160118,61b8f3437b89212fae0dfade
1,2.9951,space,1.3489,0,191,191,27,1,,,5ef7783026861249d8eb58ef,643916371237555a164531c7,2023-04-14_10h01.01.951,PRaM,2021.2.3,Win32,59.99160118,61b8f3437b89212fae0dfade
7,11.0833,space,9.6,0,192,192,14,1,,,5ef7783026861249d8eb58ef,643916371237555a164531c7,2023-04-14_10h01.01.951,PRaM,2021.2.3,Win32,59.99160118,61b8f3437b89212fae0dfade
5,5.8668,space,4.2755,0,193,193,95,1,,,5ef7783026861249d8eb58ef,643916371237555a164531c7,2023-04-14_10h01.01.951,PRaM,2021.2.3,Win32,59.99160118,61b8f3437b89212fae0dfade
2,3.4957,space,1.9179,0,194,194,265,1,,,5ef7783026861249d8eb58ef,643916371237555a164531c7,2023-04-14_10h01.01.951,PRaM,2021.2.3,Win32,59.99160118,61b8f3437b89212fae0dfade
2,2.0837,space,0.3331,0,195,195,26,1,,,5ef7783026861249d8eb58ef,643916371237555a164531c7,2023-04-14_10h01.01.951,PRaM,2021.2.3,Win32,59.99160118,61b8f3437b89212fae0dfade
9,2.1455,space,0.4782,0,196,196,61,1,,,5ef7783026861249d8eb58ef,643916371237555a164531c7,2023-04-14_10h01.01.951,PRaM,2021.2.3,Win32,59.99160118,61b8f3437b89212fae0dfade
7,2.1315,space,0.3666,0,197,197,285,1,,,5ef7783026861249d8eb58ef,643916371237555a164531c7,2023-04-14_10h01.01.951,PRaM,2021.2.3,Win32,59.99160118,61b8f3437b89212fae0dfade
5,2.3785,space,0.6662,0,198,198,366,1,,,5ef7783026861249d8eb58ef,643916371237555a164531c7,2023-04-14_10h01.01.951,PRaM,2021.2.3,Win32,59.99160118,61b8f3437b89212fae0dfade
5,1.9607,space,0.3003,0,199,199,291,1,,,5ef7783026861249d8eb58ef,643916371237555a164531c7,2023-04-14_10h01.01.951,PRaM,2021.2.3,Win32,59.99160118,61b8f3437b89212fae0dfade
4,2.8478,space,1.1653,0,200,200,62,1,,,5ef7783026861249d8eb58ef,643916371237555a164531c7,2023-04-14_10h01.01.951,PRaM,2021.2.3,Win32,59.99160118,61b8f3437b89212fae0dfade
3,2.7195,space,0.9741,0,201,201,145,1,,,5ef7783026861249d8eb58ef,643916371237555a164531c7,2023-04-14_10h01.01.951,PRaM,2021.2.3,Win32,59.99160118,61b8f3437b89212fae0dfade
2,5.7528,space,4.0267,0,202,202,191,1,,,5ef7783026861249d8eb58ef,643916371237555a164531c7,2023-04-14_10h01.01.951,PRaM,2021.2.3,Win32,59.99160118,61b8f3437b89212fae0dfade
5,2.0945,space,0.4182,0,203,203,264,1,,,5ef7783026861249d8eb58ef,643916371237555a164531c7,2023-04-14_10h01.01.951,PRaM,2021.2.3,Win32,59.99160118,61b8f3437b89212fae0dfade
1,2.4955,space,0.8516,0,204,204,28,1,,,5ef7783026861249d8eb58ef,643916371237555a164531c7,2023-04-14_10h01.01.951,PRaM,2021.2.3,Win32,59.99160118,61b8f3437b89212fae0dfade
1,2.2224,space,0.4918,0,205,205,174,1,,,5ef7783026861249d8eb58ef,643916371237555a164531c7,2023-04-14_10h01.01.951,PRaM,2021.2.3,Win32,59.99160118,61b8f3437b89212fae0dfade
2,2.7646,space,1.1318,0,206,206,303,1,,,5ef7783026861249d8eb58ef,643916371237555a164531c7,2023-04-14_10h01.01.951,PRaM,2021.2.3,Win32,59.99160118,61b8f3437b89212fae0dfade
4,2.0781,space,0.3997,0,207,207,202,1,,,5ef7783026861249d8eb58ef,643916371237555a164531c7,2023-04-14_10h01.01.951,PRaM,2021.2.3,Win32,59.99160118,61b8f3437b89212fae0dfade
3,4.8367,space,3.1943,0,208,208,6,1,,,5ef7783026861249d8eb58ef,643916371237555a164531c7,2023-04-14_10h01.01.951,PRaM,2021.2.3,Win32,59.99160118,61b8f3437b89212fae0dfade
2,2.3791,space,0.6494,0,209,209,163,1,,,5ef7783026861249d8eb58ef,643916371237555a164531c7,2023-04-14_10h01.01.951,PRaM,2021.2.3,Win32,59.99160118,61b8f3437b89212fae0dfade
2,5.7513,space,4.9436,0,210,210,254,1,,,5ef7783026861249d8eb58ef,643916371237555a164531c7,2023-04-14_10h01.01.951,PRaM,2021.2.3,Win32,59.99160118,61b8f3437b89212fae0dfade
2,2.5965,space,0.8654,0,211,211,350,1,,,5ef7783026861249d8eb58ef,643916371237555a164531c7,2023-04-14_10h01.01.951,PRaM,2021.2.3,Win32,59.99160118,61b8f3437b89212fae0dfade
1,4.8699,space,3.1443,0,212,212,160,1,,,5ef7783026861249d8eb58ef,643916371237555a164531c7,2023-04-14_10h01.01.951,PRaM,2021.2.3,Win32,59.99160118,61b8f3437b89212fae0dfade
4,4.9863,space,3.1943,0,213,213,281,1,,,5ef7783026861249d8eb58ef,643916371237555a164531c7,2023-04-14_10h01.01.951,PRaM,2021.2.3,Win32,59.99160118,61b8f3437b89212fae0dfade
5,2.8943,space,1.2939,0,214,214,119,1,,,5ef7783026861249d8eb58ef,643916371237555a164531c7,2023-04-14_10h01.01.951,PRaM,2021.2.3,Win32,59.99160118,61b8f3437b89212fae0dfade
5,3.2045,space,1.5992,0,215,215,226,1,,,5ef7783026861249d8eb58ef,643916371237555a164531c7,2023-04-14_10h01.01.951,PRaM,2021.2.3,Win32,59.99160118,61b8f3437b89212fae0dfade
2,4.6283,space,3.5779,0,216,216,116,1,,,5ef7783026861249d8eb58ef,643916371237555a164531c7,2023-04-14_10h01.01.951,PRaM,2021.2.3,Win32,59.99160118,61b8f3437b89212fae0dfade
1,4.8872,space,3.8771,0,217,217,35,1,,,5ef7783026861249d8eb58ef,643916371237555a164531c7,2023-04-14_10h01.01.951,PRaM,2021.2.3,Win32,59.99160118,61b8f3437b89212fae0dfade
4,6.4597,space,4.8939,0,218,218,348,1,,,5ef7783026861249d8eb58ef,643916371237555a164531c7,2023-04-14_10h01.01.951,PRaM,2021.2.3,Win32,59.99160118,61b8f3437b89212fae0dfade
4,8.8332,space,7.2699,0,219,219,19,1,,,5ef7783026861249d8eb58ef,643916371237555a164531c7,2023-04-14_10h01.01.951,PRaM,2021.2.3,Win32,59.99160118,61b8f3437b89212fae0dfade
4,1.809,space,1.2179,0,220,220,199,1,,,5ef7783026861249d8eb58ef,643916371237555a164531c7,2023-04-14_10h01.01.951,PRaM,2021.2.3,Win32,59.99160118,61b8f3437b89212fae0dfade
7,3.2599,space,1.5797,0,221,221,331,1,,,5ef7783026861249d8eb58ef,643916371237555a164531c7,2023-04-14_10h01.01.951,PRaM,2021.2.3,Win32,59.99160118,61b8f3437b89212fae0dfade
4,2.2188,space,0.4331,0,222,222,332,1,,,5ef7783026861249d8eb58ef,643916371237555a164531c7,2023-04-14_10h01.01.951,PRaM,2021.2.3,Win32,59.99160118,61b8f3437b89212fae0dfade
1,5.4625,space,4.0239,0,223,223,130,1,,,5ef7783026861249d8eb58ef,643916371237555a164531c7,2023-04-14_10h01.01.951,PRaM,2021.2.3,Win32,59.99160118,61b8f3437b89212fae0dfade
8,2.4974,space,0.6763,0,224,224,372,1,,,5ef7783026861249d8eb58ef,643916371237555a164531c7,2023-04-14_10h01.01.951,PRaM,2021.2.3,Win32,59.99160118,61b8f3437b89212fae0dfade
5,2.916,space,1.1373,0,225,225,72,1,,,5ef7783026861249d8eb58ef,643916371237555a164531c7,2023-04-14_10h01.01.951,PRaM,2021.2.3,Win32,59.99160118,61b8f3437b89212fae0dfade
3,2.4854,space,0.7391,0,226,226,183,1,,,5ef7783026861249d8eb58ef,643916371237555a164531c7,2023-04-14_10h01.01.951,PRaM,2021.2.3,Win32,59.99160118,61b8f3437b89212fae0dfade
6,4.9932,space,3.4772,0,227,227,326,1,,,5ef7783026861249d8eb58ef,643916371237555a164531c7,2023-04-14_10h01.01.951,PRaM,2021.2.3,Win32,59.99160118,61b8f3437b89212fae0dfade
1,11.3214,space,10.1392,0,228,228,144,1,,,5ef7783026861249d8eb58ef,643916371237555a164531c7,2023-04-14_10h01.01.951,PRaM,2021.2.3,Win32,59.99160118,61b8f3437b89212fae0dfade
5,2.2482,space,0.5492,0,229,229,154,1,,,5ef7783026861249d8eb58ef,643916371237555a164531c7,2023-04-14_10h01.01.951,PRaM,2021.2.3,Win32,59.99160118,61b8f3437b89212fae0dfade
2,2.8302,space,1.0469,0,230,230,121,1,,,5ef7783026861249d8eb58ef,643916371237555a164531c7,2023-04-14_10h01.01.951,PRaM,2021.2.3,Win32,59.99160118,61b8f3437b89212fae0dfade
1,3.9959,space,2.2965,0,231,231,70,1,,,5ef7783026861249d8eb58ef,643916371237555a164531c7,2023-04-14_10h01.01.951,PRaM,2021.2.3,Win32,59.99160118,61b8f3437b89212fae0dfade
1,3.1011,space,2.7791,0,232,232,107,1,,,5ef7783026861249d8eb58ef,643916371237555a164531c7,2023-04-14_10h01.01.951,PRaM,2021.2.3,Win32,59.99160118,61b8f3437b89212fae0dfade
4,2.6284,space,1.001,0,233,233,167,1,,,5ef7783026861249d8eb58ef,643916371237555a164531c7,2023-04-14_10h01.01.951,PRaM,2021.2.3,Win32,59.99160118,61b8f3437b89212fae0dfade
3,3.0328,space,1.4336,0,234,234,362,1,,,5ef7783026861249d8eb58ef,643916371237555a164531c7,2023-04-14_10h01.01.951,PRaM,2021.2.3,Win32,59.99160118,61b8f3437b89212fae0dfade
1,2.3377,space,0.8056,0,235,235,313,1,,,5ef7783026861249d8eb58ef,643916371237555a164531c7,2023-04-14_10h01.01.951,PRaM,2021.2.3,Win32,59.99160118,61b8f3437b89212fae0dfade
6,2.9845,space,1.3807,0,236,236,21,1,,,5ef7783026861249d8eb58ef,643916371237555a164531c7,2023-04-14_10h01.01.951,PRaM,2021.2.3,Win32,59.99160118,61b8f3437b89212fae0dfade
4,2.3267,space,0.5493,0,237,237,77,1,,,5ef7783026861249d8eb58ef,643916371237555a164531c7,2023-04-14_10h01.01.951,PRaM,2021.2.3,Win32,59.99160118,61b8f3437b89212fae0dfade
3,4.1662,space,2.3972,0,238,238,286,1,,,5ef7783026861249d8eb58ef,643916371237555a164531c7,2023-04-14_10h01.01.951,PRaM,2021.2.3,Win32,59.99160118,61b8f3437b89212fae0dfade
1,5.4963,space,3.8766,0,239,239,97,1,,,5ef7783026861249d8eb58ef,643916371237555a164531c7,2023-04-14_10h01.01.951,PRaM,2021.2.3,Win32,59.99160118,61b8f3437b89212fae0dfade
1,3.0199,space,1.3623,0,240,240,273,1,,,5ef7783026861249d8eb58ef,643916371237555a164531c7,2023-04-14_10h01.01.951,PRaM,2021.2.3,Win32,59.99160118,61b8f3437b89212fae0dfade
1,1.9287,space,0.2847,0,241,241,245,1,,,5ef7783026861249d8eb58ef,643916371237555a164531c7,2023-04-14_10h01.01.951,PRaM,2021.2.3,Win32,59.99160118,61b8f3437b89212fae0dfade
6,2.4667,space,0.7837,0,242,242,336,1,,,5ef7783026861249d8eb58ef,643916371237555a164531c7,2023-04-14_10h01.01.951,PRaM,2021.2.3,Win32,59.99160118,61b8f3437b89212fae0dfade
1,14.3303,space,13.5104,0,243,243,170,1,,,5ef7783026861249d8eb58ef,643916371237555a164531c7,2023-04-14_10h01.01.951,PRaM,2021.2.3,Win32,59.99160118,61b8f3437b89212fae0dfade
1,6.3908,space,5.0111,0,244,244,210,1,,,5ef7783026861249d8eb58ef,643916371237555a164531c7,2023-04-14_10h01.01.951,PRaM,2021.2.3,Win32,59.99160118,61b8f3437b89212fae0dfade
1,3.1004,space,1.7825,0,245,245,243,1,,,5ef7783026861249d8eb58ef,643916371237555a164531c7,2023-04-14_10h01.01.951,PRaM,2021.2.3,Win32,59.99160118,61b8f3437b89212fae0dfade
9,2.7356,space,1.6214,0,246,246,196,1,,,5ef7783026861249d8eb58ef,643916371237555a164531c7,2023-04-14_10h01.01.951,PRaM,2021.2.3,Win32,59.99160118,61b8f3437b89212fae0dfade
6,2.8794,space,1.1908,0,247,247,200,1,,,5ef7783026861249d8eb58ef,643916371237555a164531c7,2023-04-14_10h01.01.951,PRaM,2021.2.3,Win32,59.99160118,61b8f3437b89212fae0dfade
4,5.8912,space,4.2171,0,248,248,367,1,,,5ef7783026861249d8eb58ef,643916371237555a164531c7,2023-04-14_10h01.01.951,PRaM,2021.2.3,Win32,59.99160118,61b8f3437b89212fae0dfade
6,2.6407,space,0.9549,0,249,249,267,1,,,5ef7783026861249d8eb58ef,643916371237555a164531c7,2023-04-14_10h01.01.951,PRaM,2021.2.3,Win32,59.99160118,61b8f3437b89212fae0dfade
4,2.8165,space,1.042,0,250,250,46,1,,,5ef7783026861249d8eb58ef,643916371237555a164531c7,2023-04-14_10h01.01.951,PRaM,2021.2.3,Win32,59.99160118,61b8f3437b89212fae0dfade
7,3.6154,space,2.048,0,251,251,75,1,,,5ef7783026861249d8eb58ef,643916371237555a164531c7,2023-04-14_10h01.01.951,PRaM,2021.2.3,Win32,59.99160118,61b8f3437b89212fae0dfade
3,5.7882,space,4.4686,0,252,252,375,1,,,5ef7783026861249d8eb58ef,643916371237555a164531c7,2023-04-14_10h01.01.951,PRaM,2021.2.3,Win32,59.99160118,61b8f3437b89212fae0dfade
1,3.2427,space,1.9656,0,253,253,312,1,,,5ef7783026861249d8eb58ef,643916371237555a164531c7,2023-04-14_10h01.01.951,PRaM,2021.2.3,Win32,59.99160118,61b8f3437b89212fae0dfade
6,2.5334,space,0.8248,0,254,254,255,1,,,5ef7783026861249d8eb58ef,643916371237555a164531c7,2023-04-14_10h01.01.951,PRaM,2021.2.3,Win32,59.99160118,61b8f3437b89212fae0dfade
3,4.9096,space,3.1095,0,255,255,221,1,,,5ef7783026861249d8eb58ef,643916371237555a164531c7,2023-04-14_10h01.01.951,PRaM,2021.2.3,Win32,59.99160118,61b8f3437b89212fae0dfade
1,2.7452,space,0.9699,0,256,256,250,1,,,5ef7783026861249d8eb58ef,643916371237555a164531c7,2023-04-14_10h01.01.951,PRaM,2021.2.3,Win32,59.99160118,61b8f3437b89212fae0dfade
,,space,0.5173,0,257,257,256,1,,,5ef7783026861249d8eb58ef,643916371237555a164531c7,2023-04-14_10h01.01.951,PRaM,2021.2.3,Win32,59.99160118,61b8f3437b89212fae0dfade
1,10.4211,space,9.1029,0,258,258,232,1,,,5ef7783026861249d8eb58ef,643916371237555a164531c7,2023-04-14_10h01.01.951,PRaM,2021.2.3,Win32,59.99160118,61b8f3437b89212fae0dfade
6,2.484,space,0.8869,0,259,259,325,1,,,5ef7783026861249d8eb58ef,643916371237555a164531c7,2023-04-14_10h01.01.951,PRaM,2021.2.3,Win32,59.99160118,61b8f3437b89212fae0dfade
1,9.5533,space,7.8954,0,260,260,322,1,,,5ef7783026861249d8eb58ef,643916371237555a164531c7,2023-04-14_10h01.01.951,PRaM,2021.2.3,Win32,59.99160118,61b8f3437b89212fae0dfade
4,4.8957,space,3.2858,0,261,261,152,1,,,5ef7783026861249d8eb58ef,643916371237555a164531c7,2023-04-14_10h01.01.951,PRaM,2021.2.3,Win32,59.99160118,61b8f3437b89212fae0dfade
1,2.7124,space,1.2518,0,262,262,248,1,,,5ef7783026861249d8eb58ef,643916371237555a164531c7,2023-04-14_10h01.01.951,PRaM,2021.2.3,Win32,59.99160118,61b8f3437b89212fae0dfade
1,7.6719,space,6.0278,0,263,263,349,1,,,5ef7783026861249d8eb58ef,643916371237555a164531c7,2023-04-14_10h01.01.951,PRaM,2021.2.3,Win32,59.99160118,61b8f3437b89212fae0dfade
1,2.2231,space,1.0967,0,264,264,63,1,,,5ef7783026861249d8eb58ef,643916371237555a164531c7,2023-04-14_10h01.01.951,PRaM,2021.2.3,Win32,59.99160118,61b8f3437b89212fae0dfade
6,2.2035,space,0.5879,0,265,265,194,1,,,5ef7783026861249d8eb58ef,643916371237555a164531c7,2023-04-14_10h01.01.951,PRaM,2021.2.3,Win32,59.99160118,61b8f3437b89212fae0dfade
6,1.5691,space,1.4214,0,266,266,127,1,,,5ef7783026861249d8eb58ef,643916371237555a164531c7,2023-04-14_10h01.01.951,PRaM,2021.2.3,Win32,59.99160118,61b8f3437b89212fae0dfade
5,3.4985,space,1.9503,0,267,267,101,1,,,5ef7783026861249d8eb58ef,643916371237555a164531c7,2023-04-14_10h01.01.951,PRaM,2021.2.3,Win32,59.99160118,61b8f3437b89212fae0dfade
1,2.8673,space,1.3406,0,268,268,237,1,,,5ef7783026861249d8eb58ef,643916371237555a164531c7,2023-04-14_10h01.01.951,PRaM,2021.2.3,Win32,59.99160118,61b8f3437b89212fae0dfade
4,2.3839,space,0.7144,0,269,269,181,1,,,5ef7783026861249d8eb58ef,643916371237555a164531c7,2023-04-14_10h01.01.951,PRaM,2021.2.3,Win32,59.99160118,61b8f3437b89212fae0dfade
5,4.9627,space,3.3866,0,270,270,341,1,,,5ef7783026861249d8eb58ef,643916371237555a164531c7,2023-04-14_10h01.01.951,PRaM,2021.2.3,Win32,59.99160118,61b8f3437b89212fae0dfade
4,2.8104,space,1.3569,0,271,271,358,1,,,5ef7783026861249d8eb58ef,643916371237555a164531c7,2023-04-14_10h01.01.951,PRaM,2021.2.3,Win32,59.99160118,61b8f3437b89212fae0dfade
6,3.0661,space,1.45,0,272,272,278,1,,,5ef7783026861249d8eb58ef,643916371237555a164531c7,2023-04-14_10h01.01.951,PRaM,2021.2.3,Win32,59.99160118,61b8f3437b89212fae0dfade
5,2.6641,space,1.0353,0,273,273,180,1,,,5ef7783026861249d8eb58ef,643916371237555a164531c7,2023-04-14_10h01.01.951,PRaM,2021.2.3,Win32,59.99160118,61b8f3437b89212fae0dfade
5,1.7095,space,0.068,0,274,274,304,1,,,5ef7783026861249d8eb58ef,643916371237555a164531c7,2023-04-14_10h01.01.951,PRaM,2021.2.3,Win32,59.99160118,61b8f3437b89212fae0dfade
1,3.1457,space,1.7823,0,275,275,122,1,,,5ef7783026861249d8eb58ef,643916371237555a164531c7,2023-04-14_10h01.01.951,PRaM,2021.2.3,Win32,59.99160118,61b8f3437b89212fae0dfade
7,4.4735,space,3.2271,0,276,276,47,1,,,5ef7783026861249d8eb58ef,643916371237555a164531c7,2023-04-14_10h01.01.951,PRaM,2021.2.3,Win32,59.99160118,61b8f3437b89212fae0dfade
3,3.5814,space,1.9477,0,277,277,318,1,,,5ef7783026861249d8eb58ef,643916371237555a164531c7,2023-04-14_10h01.01.951,PRaM,2021.2.3,Win32,59.99160118,61b8f3437b89212fae0dfade
5,7.8274,space,7.0906,0,278,278,346,1,,,5ef7783026861249d8eb58ef,643916371237555a164531c7,2023-04-14_10h01.01.951,PRaM,2021.2.3,Win32,59.99160118,61b8f3437b89212fae0dfade
1,2.0033,space,0.2838,0,279,279,143,1,,,5ef7783026861249d8eb58ef,643916371237555a164531c7,2023-04-14_10h01.01.951,PRaM,2021.2.3,Win32,59.99160118,61b8f3437b89212fae0dfade
9,2.4116,space,0.8342,0,280,280,209,1,,,5ef7783026861249d8eb58ef,643916371237555a164531c7,2023-04-14_10h01.01.951,PRaM,2021.2.3,Win32,59.99160118,61b8f3437b89212fae0dfade
7,2.1519,space,0.4579,0,281,281,151,1,,,5ef7783026861249d8eb58ef,643916371237555a164531c7,2023-04-14_10h01.01.951,PRaM,2021.2.3,Win32,59.99160118,61b8f3437b89212fae0dfade
1,2.4685,space,0.7748,0,282,282,37,1,,,5ef7783026861249d8eb58ef,643916371237555a164531c7,2023-04-14_10h01.01.951,PRaM,2021.2.3,Win32,59.99160118,61b8f3437b89212fae0dfade
1,2.2068,space,0.6649,0,283,283,262,1,,,5ef7783026861249d8eb58ef,643916371237555a164531c7,2023-04-14_10h01.01.951,PRaM,2021.2.3,Win32,59.99160118,61b8f3437b89212fae0dfade
9,4.0106,space,2.4121,0,284,284,134,1,,,5ef7783026861249d8eb58ef,643916371237555a164531c7,2023-04-14_10h01.01.951,PRaM,2021.2.3,Win32,59.99160118,61b8f3437b89212fae0dfade
1,2.4018,space,0.804,0,285,285,125,1,,,5ef7783026861249d8eb58ef,643916371237555a164531c7,2023-04-14_10h01.01.951,PRaM,2021.2.3,Win32,59.99160118,61b8f3437b89212fae0dfade
6,1.8039,space,0.1345,0,286,286,305,1,,,5ef7783026861249d8eb58ef,643916371237555a164531c7,2023-04-14_10h01.01.951,PRaM,2021.2.3,Win32,59.99160118,61b8f3437b89212fae0dfade
5,2.5402,space,0.8028,0,287,287,156,1,,,5ef7783026861249d8eb58ef,643916371237555a164531c7,2023-04-14_10h01.01.951,PRaM,2021.2.3,Win32,59.99160118,61b8f3437b89212fae0dfade
5,3.0964,space,1.379,0,288,288,317,1,,,5ef7783026861249d8eb58ef,643916371237555a164531c7,2023-04-14_10h01.01.951,PRaM,2021.2.3,Win32,59.99160118,61b8f3437b89212fae0dfade
1,2.584,space,0.8671,0,289,289,15,1,,,5ef7783026861249d8eb58ef,643916371237555a164531c7,2023-04-14_10h01.01.951,PRaM,2021.2.3,Win32,59.99160118,61b8f3437b89212fae0dfade
7,2.2823,space,0.6384,0,290,290,48,1,,,5ef7783026861249d8eb58ef,643916371237555a164531c7,2023-04-14_10h01.01.951,PRaM,2021.2.3,Win32,59.99160118,61b8f3437b89212fae0dfade
1,3.2508,space,1.9303,0,291,291,5,1,,,5ef7783026861249d8eb58ef,643916371237555a164531c7,2023-04-14_10h01.01.951,PRaM,2021.2.3,Win32,59.99160118,61b8f3437b89212fae0dfade
5,3.7832,space,2.069,0,292,292,294,1,,,5ef7783026861249d8eb58ef,643916371237555a164531c7,2023-04-14_10h01.01.951,PRaM,2021.2.3,Win32,59.99160118,61b8f3437b89212fae0dfade
5,2.0854,space,0.4336,0,293,293,252,1,,,5ef7783026861249d8eb58ef,643916371237555a164531c7,2023-04-14_10h01.01.951,PRaM,2021.2.3,Win32,59.99160118,61b8f3437b89212fae0dfade
7,15.8229,space,15.2383,0,294,294,117,1,,,5ef7783026861249d8eb58ef,643916371237555a164531c7,2023-04-14_10h01.01.951,PRaM,2021.2.3,Win32,59.99160118,61b8f3437b89212fae0dfade
6,18.8001,space,18.4213,0,295,295,288,1,,,5ef7783026861249d8eb58ef,643916371237555a164531c7,2023-04-14_10h01.01.951,PRaM,2021.2.3,Win32,59.99160118,61b8f3437b89212fae0dfade
2,10.5787,space,9.9898,0,296,296,217,1,,,5ef7783026861249d8eb58ef,643916371237555a164531c7,2023-04-14_10h01.01.951,PRaM,2021.2.3,Win32,59.99160118,61b8f3437b89212fae0dfade
9,2.274,space,0.6659,0,297,297,137,1,,,5ef7783026861249d8eb58ef,643916371237555a164531c7,2023-04-14_10h01.01.951,PRaM,2021.2.3,Win32,59.99160118,61b8f3437b89212fae0dfade
5,3.7739,space,2.1492,0,298,298,296,1,,,5ef7783026861249d8eb58ef,643916371237555a164531c7,2023-04-14_10h01.01.951,PRaM,2021.2.3,Win32,59.99160118,61b8f3437b89212fae0dfade
5,2.1709,space,0.4509,0,299,299,120,1,,,5ef7783026861249d8eb58ef,643916371237555a164531c7,2023-04-14_10h01.01.951,PRaM,2021.2.3,Win32,59.99160118,61b8f3437b89212fae0dfade
7,3.6291,space,1.9647,0,300,300,355,1,,,5ef7783026861249d8eb58ef,643916371237555a164531c7,2023-04-14_10h01.01.951,PRaM,2021.2.3,Win32,59.99160118,61b8f3437b89212fae0dfade
1,2.4349,space,0.7305,0,301,301,24,1,,,5ef7783026861249d8eb58ef,643916371237555a164531c7,2023-04-14_10h01.01.951,PRaM,2021.2.3,Win32,59.99160118,61b8f3437b89212fae0dfade
9,3.1995,space,1.62,0,302,302,42,1,,,5ef7783026861249d8eb58ef,643916371237555a164531c7,2023-04-14_10h01.01.951,PRaM,2021.2.3,Win32,59.99160118,61b8f3437b89212fae0dfade
6,1.9713,space,0.3414,0,303,303,139,1,,,5ef7783026861249d8eb58ef,643916371237555a164531c7,2023-04-14_10h01.01.951,PRaM,2021.2.3,Win32,59.99160118,61b8f3437b89212fae0dfade
7,1.9573,space,0.1762,0,304,304,45,1,,,5ef7783026861249d8eb58ef,643916371237555a164531c7,2023-04-14_10h01.01.951,PRaM,2021.2.3,Win32,59.99160118,61b8f3437b89212fae0dfade
1,1.9852,space,0.3076,0,305,305,234,1,,,5ef7783026861249d8eb58ef,643916371237555a164531c7,2023-04-14_10h01.01.951,PRaM,2021.2.3,Win32,59.99160118,61b8f3437b89212fae0dfade
5,1.885,space,0.1176,0,306,306,376,1,,,5ef7783026861249d8eb58ef,643916371237555a164531c7,2023-04-14_10h01.01.951,PRaM,2021.2.3,Win32,59.99160118,61b8f3437b89212fae0dfade
1,2.5348,space,0.8091,0,307,307,89,1,,,5ef7783026861249d8eb58ef,643916371237555a164531c7,2023-04-14_10h01.01.951,PRaM,2021.2.3,Win32,59.99160118,61b8f3437b89212fae0dfade
1,2.6169,space,1.0482,0,308,308,157,1,,,5ef7783026861249d8eb58ef,643916371237555a164531c7,2023-04-14_10h01.01.951,PRaM,2021.2.3,Win32,59.99160118,61b8f3437b89212fae0dfade
9,2.009,space,0.3857,0,309,309,276,1,,,5ef7783026861249d8eb58ef,643916371237555a164531c7,2023-04-14_10h01.01.951,PRaM,2021.2.3,Win32,59.99160118,61b8f3437b89212fae0dfade
4,2.302,space,0.5812,0,310,310,316,1,,,5ef7783026861249d8eb58ef,643916371237555a164531c7,2023-04-14_10h01.01.951,PRaM,2021.2.3,Win32,59.99160118,61b8f3437b89212fae0dfade
1,2.7663,space,1.031,0,311,311,193,1,,,5ef7783026861249d8eb58ef,643916371237555a164531c7,2023-04-14_10h01.01.951,PRaM,2021.2.3,Win32,59.99160118,61b8f3437b89212fae0dfade
1,2.1354,space,0.4437,0,312,312,50,1,,,5ef7783026861249d8eb58ef,643916371237555a164531c7,2023-04-14_10h01.01.951,PRaM,2021.2.3,Win32,59.99160118,61b8f3437b89212fae0dfade
5,2.2158,space,0.5328,0,313,313,261,1,,,5ef7783026861249d8eb58ef,643916371237555a164531c7,2023-04-14_10h01.01.951,PRaM,2021.2.3,Win32,59.99160118,61b8f3437b89212fae0dfade
3,7.3377,space,5.6426,0,314,314,339,1,,,5ef7783026861249d8eb58ef,643916371237555a164531c7,2023-04-14_10h01.01.951,PRaM,2021.2.3,Win32,59.99160118,61b8f3437b89212fae0dfade
3,1.8374,space,0.1369,0,315,315,343,1,,,5ef7783026861249d8eb58ef,643916371237555a164531c7,2023-04-14_10h01.01.951,PRaM,2021.2.3,Win32,59.99160118,61b8f3437b89212fae0dfade
3,1.9734,space,0.2081,0,316,316,299,1,,,5ef7783026861249d8eb58ef,643916371237555a164531c7,2023-04-14_10h01.01.951,PRaM,2021.2.3,Win32,59.99160118,61b8f3437b89212fae0dfade
5,2.2527,space,0.5673,0,317,317,141,1,,,5ef7783026861249d8eb58ef,643916371237555a164531c7,2023-04-14_10h01.01.951,PRaM,2021.2.3,Win32,59.99160118,61b8f3437b89212fae0dfade
3,3.8612,space,2.3063,0,318,318,129,1,,,5ef7783026861249d8eb58ef,643916371237555a164531c7,2023-04-14_10h01.01.951,PRaM,2021.2.3,Win32,59.99160118,61b8f3437b89212fae0dfade
3,4.1936,space,2.4766,0,319,319,1,1,,,5ef7783026861249d8eb58ef,643916371237555a164531c7,2023-04-14_10h01.01.951,PRaM,2021.2.3,Win32,59.99160118,61b8f3437b89212fae0dfade
3,1.8751,space,0.1374,0,320,320,206,1,,,5ef7783026861249d8eb58ef,643916371237555a164531c7,2023-04-14_10h01.01.951,PRaM,2021.2.3,Win32,59.99160118,61b8f3437b89212fae0dfade
1,3.8058,space,2.15,0,321,321,13,1,,,5ef7783026861249d8eb58ef,643916371237555a164531c7,2023-04-14_10h01.01.951,PRaM,2021.2.3,Win32,59.99160118,61b8f3437b89212fae0dfade
1,2.2811,space,0.5562,0,322,322,94,1,,,5ef7783026861249d8eb58ef,643916371237555a164531c7,2023-04-14_10h01.01.951,PRaM,2021.2.3,Win32,59.99160118,61b8f3437b89212fae0dfade
1,3.1657,space,1.5117,0,323,323,106,1,,,5ef7783026861249d8eb58ef,643916371237555a164531c7,2023-04-14_10h01.01.951,PRaM,2021.2.3,Win32,59.99160118,61b8f3437b89212fae0dfade
3,3.0627,space,1.2713,0,324,324,231,1,,,5ef7783026861249d8eb58ef,643916371237555a164531c7,2023-04-14_10h01.01.951,PRaM,2021.2.3,Win32,59.99160118,61b8f3437b89212fae0dfade
3,1.902,space,0.1577,0,325,325,214,1,,,5ef7783026861249d8eb58ef,643916371237555a164531c7,2023-04-14_10h01.01.951,PRaM,2021.2.3,Win32,59.99160118,61b8f3437b89212fae0dfade
2,4.9812,space,3.1971,0,326,326,128,1,,,5ef7783026861249d8eb58ef,643916371237555a164531c7,2023-04-14_10h01.01.951,PRaM,2021.2.3,Win32,59.99160118,61b8f3437b89212fae0dfade
6,2.2817,space,0.5575,0,327,327,205,1,,,5ef7783026861249d8eb58ef,643916371237555a164531c7,2023-04-14_10h01.01.951,PRaM,2021.2.3,Win32,59.99160118,61b8f3437b89212fae0dfade
3,2.9825,space,1.3551,0,328,328,55,1,,,5ef7783026861249d8eb58ef,643916371237555a164531c7,2023-04-14_10h01.01.951,PRaM,2021.2.3,Win32,59.99160118,61b8f3437b89212fae0dfade
5,7.3656,space,5.6385,0,329,329,29,1,,,5ef7783026861249d8eb58ef,643916371237555a164531c7,2023-04-14_10h01.01.951,PRaM,2021.2.3,Win32,59.99160118,61b8f3437b89212fae0dfade
3,2.4517,space,0.6699,0,330,330,176,1,,,5ef7783026861249d8eb58ef,643916371237555a164531c7,2023-04-14_10h01.01.951,PRaM,2021.2.3,Win32,59.99160118,61b8f3437b89212fae0dfade
1,2.5169,space,0.6988,0,331,331,2,1,,,5ef7783026861249d8eb58ef,643916371237555a164531c7,2023-04-14_10h01.01.951,PRaM,2021.2.3,Win32,59.99160118,61b8f3437b89212fae0dfade
7,2.3021,space,0.7182,0,332,332,56,1,,,5ef7783026861249d8eb58ef,643916371237555a164531c7,2023-04-14_10h01.01.951,PRaM,2021.2.3,Win32,59.99160118,61b8f3437b89212fae0dfade
6,2.0019,space,0.3169,0,333,333,279,1,,,5ef7783026861249d8eb58ef,643916371237555a164531c7,2023-04-14_10h01.01.951,PRaM,2021.2.3,Win32,59.99160118,61b8f3437b89212fae0dfade
6,2.0021,space,0.1277,0,334,334,66,1,,,5ef7783026861249d8eb58ef,643916371237555a164531c7,2023-04-14_10h01.01.951,PRaM,2021.2.3,Win32,59.99160118,61b8f3437b89212fae0dfade
7,2.2214,space,0.4908,0,335,335,208,1,,,5ef7783026861249d8eb58ef,643916371237555a164531c7,2023-04-14_10h01.01.951,PRaM,2021.2.3,Win32,59.99160118,61b8f3437b89212fae0dfade
5,2.6186,space,0.9508,0,336,336,123,1,,,5ef7783026861249d8eb58ef,643916371237555a164531c7,2023-04-14_10h01.01.951,PRaM,2021.2.3,Win32,59.99160118,61b8f3437b89212fae0dfade
9,31.1258,space,30.13,0,337,337,38,1,,,5ef7783026861249d8eb58ef,643916371237555a164531c7,2023-04-14_10h01.01.951,PRaM,2021.2.3,Win32,59.99160118,61b8f3437b89212fae0dfade
5,2.784,space,1.0188,0,338,338,241,1,,,5ef7783026861249d8eb58ef,643916371237555a164531c7,2023-04-14_10h01.01.951,PRaM,2021.2.3,Win32,59.99160118,61b8f3437b89212fae0dfade
6,2.0873,space,0.4081,0,339,339,310,1,,,5ef7783026861249d8eb58ef,643916371237555a164531c7,2023-04-14_10h01.01.951,PRaM,2021.2.3,Win32,59.99160118,61b8f3437b89212fae0dfade
8,2.6596,space,0.9355,0,340,340,334,1,,,5ef7783026861249d8eb58ef,643916371237555a164531c7,2023-04-14_10h01.01.951,PRaM,2021.2.3,Win32,59.99160118,61b8f3437b89212fae0dfade
1,2.4702,space,1.1148,0,341,341,247,1,,,5ef7783026861249d8eb58ef,643916371237555a164531c7,2023-04-14_10h01.01.951,PRaM,2021.2.3,Win32,59.99160118,61b8f3437b89212fae0dfade
4,3.3666,space,1.6903,0,342,342,360,1,,,5ef7783026861249d8eb58ef,643916371237555a164531c7,2023-04-14_10h01.01.951,PRaM,2021.2.3,Win32,59.99160118,61b8f3437b89212fae0dfade
5,1.8991,space,0.1172,0,343,343,22,1,,,5ef7783026861249d8eb58ef,643916371237555a164531c7,2023-04-14_10h01.01.951,PRaM,2021.2.3,Win32,59.99160118,61b8f3437b89212fae0dfade
2,3.5322,space,1.8125,0,344,344,321,1,,,5ef7783026861249d8eb58ef,643916371237555a164531c7,2023-04-14_10h01.01.951,PRaM,2021.2.3,Win32,59.99160118,61b8f3437b89212fae0dfade
4,1.9429,space,0.1712,0,345,345,342,1,,,5ef7783026861249d8eb58ef,643916371237555a164531c7,2023-04-14_10h01.01.951,PRaM,2021.2.3,Win32,59.99160118,61b8f3437b89212fae0dfade
4,2.004,space,0.3029,0,346,346,374,1,,,5ef7783026861249d8eb58ef,643916371237555a164531c7,2023-04-14_10h01.01.951,PRaM,2021.2.3,Win32,59.99160118,61b8f3437b89212fae0dfade
8,4.5145,space,2.8308,0,347,347,60,1,,,5ef7783026861249d8eb58ef,643916371237555a164531c7,2023-04-14_10h01.01.951,PRaM,2021.2.3,Win32,59.99160118,61b8f3437b89212fae0dfade
2,3.5784,space,1.7989,0,348,348,354,1,,,5ef7783026861249d8eb58ef,643916371237555a164531c7,2023-04-14_10h01.01.951,PRaM,2021.2.3,Win32,59.99160118,61b8f3437b89212fae0dfade
7,3.4979,space,1.7213,0,349,349,219,1,,,5ef7783026861249d8eb58ef,643916371237555a164531c7,2023-04-14_10h01.01.951,PRaM,2021.2.3,Win32,59.99160118,61b8f3437b89212fae0dfade
3,3.9615,space,2.1196,0,350,350,57,1,,,5ef7783026861249d8eb58ef,643916371237555a164531c7,2023-04-14_10h01.01.951,PRaM,2021.2.3,Win32,59.99160118,61b8f3437b89212fae0dfade
4,1.9076,space,0.1076,0,351,351,124,1,,,5ef7783026861249d8eb58ef,643916371237555a164531c7,2023-04-14_10h01.01.951,PRaM,2021.2.3,Win32,59.99160118,61b8f3437b89212fae0dfade
7,16.5085,space,14.8534,0,352,352,0,1,,,5ef7783026861249d8eb58ef,643916371237555a164531c7,2023-04-14_10h01.01.951,PRaM,2021.2.3,Win32,59.99160118,61b8f3437b89212fae0dfade
4,5.8409,space,4.382,0,353,353,361,1,,,5ef7783026861249d8eb58ef,643916371237555a164531c7,2023-04-14_10h01.01.951,PRaM,2021.2.3,Win32,59.99160118,61b8f3437b89212fae0dfade
8,3.1614,space,1.397,0,354,354,246,1,,,5ef7783026861249d8eb58ef,643916371237555a164531c7,2023-04-14_10h01.01.951,PRaM,2021.2.3,Win32,59.99160118,61b8f3437b89212fae0dfade
4,4.5644,space,2.9959,0,355,355,25,1,,,5ef7783026861249d8eb58ef,643916371237555a164531c7,2023-04-14_10h01.01.951,PRaM,2021.2.3,Win32,59.99160118,61b8f3437b89212fae0dfade
8,2.6153,space,0.9483,0,356,356,59,1,,,5ef7783026861249d8eb58ef,643916371237555a164531c7,2023-04-14_10h01.01.951,PRaM,2021.2.3,Win32,59.99160118,61b8f3437b89212fae0dfade
4,3.5133,space,1.8655,0,357,357,100,1,,,5ef7783026861249d8eb58ef,643916371237555a164531c7,2023-04-14_10h01.01.951,PRaM,2021.2.3,Win32,59.99160118,61b8f3437b89212fae0dfade
4,1.87,space,0.0868,0,358,358,80,1,,,5ef7783026861249d8eb58ef,643916371237555a164531c7,2023-04-14_10h01.01.951,PRaM,2021.2.3,Win32,59.99160118,61b8f3437b89212fae0dfade
8,3.4285,space,1.6304,0,359,359,236,1,,,5ef7783026861249d8eb58ef,643916371237555a164531c7,2023-04-14_10h01.01.951,PRaM,2021.2.3,Win32,59.99160118,61b8f3437b89212fae0dfade
8,2.5181,space,0.652,0,360,360,327,1,,,5ef7783026861249d8eb58ef,643916371237555a164531c7,2023-04-14_10h01.01.951,PRaM,2021.2.3,Win32,59.99160118,61b8f3437b89212fae0dfade
6,1.8523,space,0.0508,0,361,361,314,1,,,5ef7783026861249d8eb58ef,643916371237555a164531c7,2023-04-14_10h01.01.951,PRaM,2021.2.3,Win32,59.99160118,61b8f3437b89212fae0dfade
9,2.2052,space,0.6185,0,362,362,323,1,,,5ef7783026861249d8eb58ef,643916371237555a164531c7,2023-04-14_10h01.01.951,PRaM,2021.2.3,Win32,59.99160118,61b8f3437b89212fae0dfade
9,1.8785,space,0.1348,0,363,363,302,1,,,5ef7783026861249d8eb58ef,643916371237555a164531c7,2023-04-14_10h01.01.951,PRaM,2021.2.3,Win32,59.99160118,61b8f3437b89212fae0dfade
9,2.7325,space,1.1979,0,364,364,277,1,,,5ef7783026861249d8eb58ef,643916371237555a164531c7,2023-04-14_10h01.01.951,PRaM,2021.2.3,Win32,59.99160118,61b8f3437b89212fae0dfade
4,2.7521,space,1.0622,0,365,365,179,1,,,5ef7783026861249d8eb58ef,643916371237555a164531c7,2023-04-14_10h01.01.951,PRaM,2021.2.3,Win32,59.99160118,61b8f3437b89212fae0dfade
2,2.9856,space,1.2433,0,366,366,158,1,,,5ef7783026861249d8eb58ef,643916371237555a164531c7,2023-04-14_10h01.01.951,PRaM,2021.2.3,Win32,59.99160118,61b8f3437b89212fae0dfade
6,3.36,space,2.3984,0,367,367,228,1,,,5ef7783026861249d8eb58ef,643916371237555a164531c7,2023-04-14_10h01.01.951,PRaM,2021.2.3,Win32,59.99160118,61b8f3437b89212fae0dfade
4,3.0493,space,1.3174,0,368,368,370,1,,,5ef7783026861249d8eb58ef,643916371237555a164531c7,2023-04-14_10h01.01.951,PRaM,2021.2.3,Win32,59.99160118,61b8f3437b89212fae0dfade
7,2.0426,space,0.3713,0,369,369,328,1,,,5ef7783026861249d8eb58ef,643916371237555a164531c7,2023-04-14_10h01.01.951,PRaM,2021.2.3,Win32,59.99160118,61b8f3437b89212fae0dfade
6,1.9596,space,0.2698,0,370,370,112,1,,,5ef7783026861249d8eb58ef,643916371237555a164531c7,2023-04-14_10h01.01.951,PRaM,2021.2.3,Win32,59.99160118,61b8f3437b89212fae0dfade
4,2.4202,space,0.6823,0,371,371,166,1,,,5ef7783026861249d8eb58ef,643916371237555a164531c7,2023-04-14_10h01.01.951,PRaM,2021.2.3,Win32,59.99160118,61b8f3437b89212fae0dfade
6,2.6857,space,1.5632,0,372,372,177,1,,,5ef7783026861249d8eb58ef,643916371237555a164531c7,2023-04-14_10h01.01.951,PRaM,2021.2.3,Win32,59.99160118,61b8f3437b89212fae0dfade
1,2.2688,space,0.5914,0,373,373,91,1,,,5ef7783026861249d8eb58ef,643916371237555a164531c7,2023-04-14_10h01.01.951,PRaM,2021.2.3,Win32,59.99160118,61b8f3437b89212fae0dfade
7,2.4097,space,0.6845,0,374,374,110,1,,,5ef7783026861249d8eb58ef,643916371237555a164531c7,2023-04-14_10h01.01.951,PRaM,2021.2.3,Win32,59.99160118,61b8f3437b89212fae0dfade
9,2.6788,space,1.021,0,375,375,32,1,,,5ef7783026861249d8eb58ef,643916371237555a164531c7,2023-04-14_10h01.01.951,PRaM,2021.2.3,Win32,59.99160118,61b8f3437b89212fae0dfade
7,2.8672,space,1.1299,0,376,376,140,1,,,5ef7783026861249d8eb58ef,643916371237555a164531c7,2023-04-14_10h01.01.951,PRaM,2021.2.3,Win32,59.99160118,61b8f3437b89212fae0dfade
1,4.4157,space,2.6782,0,377,377,11,1,,,5ef7783026861249d8eb58ef,643916371237555a164531c7,2023-04-14_10h01.01.951,PRaM,2021.2.3,Win32,59.99160118,61b8f3437b89212fae0dfade
