Rating.response,Rating.rt,EndTrial.keys,EndTrial.rt,trials.thisRepN,trials.thisTrialN,trials.thisN,trials.thisIndex,trials.ran,Pos1,Pos2,participant,session,date,expName,psychopyVersion,OS,frameRate,study_id
8,8.1069,space,8.0688,0,0,0,38,1,,,5f00d65cb69f9e20f144e404,643916325c9eb520c954923f,2023-04-14_10h02.16.960,PRaM,2021.2.3,MacIntel,60.0024001,61b8f3437b89212fae0dfade
7,4.4278,space,6.0166,0,1,1,296,1,,,5f00d65cb69f9e20f144e404,643916325c9eb520c954923f,2023-04-14_10h02.16.960,PRaM,2021.2.3,MacIntel,60.0024001,61b8f3437b89212fae0dfade
6,4.7694,space,3.7537,0,2,2,348,1,,,5f00d65cb69f9e20f144e404,643916325c9eb520c954923f,2023-04-14_10h02.16.960,PRaM,2021.2.3,MacIntel,60.0024001,61b8f3437b89212fae0dfade
2,6.4445,space,5.2087,0,3,3,9,1,,,5f00d65cb69f9e20f144e404,643916325c9eb520c954923f,2023-04-14_10h02.16.960,PRaM,2021.2.3,MacIntel,60.0024001,61b8f3437b89212fae0dfade
6,5.0707,space,3.916,0,4,4,69,1,,,5f00d65cb69f9e20f144e404,643916325c9eb520c954923f,2023-04-14_10h02.16.960,PRaM,2021.2.3,MacIntel,60.0024001,61b8f3437b89212fae0dfade
8,8.5379,space,6.8746,0,5,5,207,1,,,5f00d65cb69f9e20f144e404,643916325c9eb520c954923f,2023-04-14_10h02.16.960,PRaM,2021.2.3,MacIntel,60.0024001,61b8f3437b89212fae0dfade
3,7.8988,space,6.3588,0,6,6,195,1,,,5f00d65cb69f9e20f144e404,643916325c9eb520c954923f,2023-04-14_10h02.16.960,PRaM,2021.2.3,MacIntel,60.0024001,61b8f3437b89212fae0dfade
2,3.256,space,1.4058,0,7,7,106,1,,,5f00d65cb69f9e20f144e404,643916325c9eb520c954923f,2023-04-14_10h02.16.960,PRaM,2021.2.3,MacIntel,60.0024001,61b8f3437b89212fae0dfade
6,2.9856,space,1.3256,0,8,8,370,1,,,5f00d65cb69f9e20f144e404,643916325c9eb520c954923f,2023-04-14_10h02.16.960,PRaM,2021.2.3,MacIntel,60.0024001,61b8f3437b89212fae0dfade
7,1.9715,space,0.3181,0,9,9,301,1,,,5f00d65cb69f9e20f144e404,643916325c9eb520c954923f,2023-04-14_10h02.16.960,PRaM,2021.2.3,MacIntel,60.0024001,61b8f3437b89212fae0dfade
3,3.3557,space,1.702,0,10,10,185,1,,,5f00d65cb69f9e20f144e404,643916325c9eb520c954923f,2023-04-14_10h02.16.960,PRaM,2021.2.3,MacIntel,60.0024001,61b8f3437b89212fae0dfade
7,3.3863,space,1.7499,0,11,11,99,1,,,5f00d65cb69f9e20f144e404,643916325c9eb520c954923f,2023-04-14_10h02.16.960,PRaM,2021.2.3,MacIntel,60.0024001,61b8f3437b89212fae0dfade
2,2.6128,space,0.9411,0,12,12,133,1,,,5f00d65cb69f9e20f144e404,643916325c9eb520c954923f,2023-04-14_10h02.16.960,PRaM,2021.2.3,MacIntel,60.0024001,61b8f3437b89212fae0dfade
4,3.3877,space,2.4177,0,13,13,146,1,,,5f00d65cb69f9e20f144e404,643916325c9eb520c954923f,2023-04-14_10h02.16.960,PRaM,2021.2.3,MacIntel,60.0024001,61b8f3437b89212fae0dfade
1,3.2873,space,1.7332,0,14,14,55,1,,,5f00d65cb69f9e20f144e404,643916325c9eb520c954923f,2023-04-14_10h02.16.960,PRaM,2021.2.3,MacIntel,60.0024001,61b8f3437b89212fae0dfade
2,2.271,space,1.393,0,15,15,214,1,,,5f00d65cb69f9e20f144e404,643916325c9eb520c954923f,2023-04-14_10h02.16.960,PRaM,2021.2.3,MacIntel,60.0024001,61b8f3437b89212fae0dfade
4,2.5371,space,34.5804,0,16,16,322,1,,,5f00d65cb69f9e20f144e404,643916325c9eb520c954923f,2023-04-14_10h02.16.960,PRaM,2021.2.3,MacIntel,60.0024001,61b8f3437b89212fae0dfade
5,2.8582,space,2.618,0,17,17,267,1,,,5f00d65cb69f9e20f144e404,643916325c9eb520c954923f,2023-04-14_10h02.16.960,PRaM,2021.2.3,MacIntel,60.0024001,61b8f3437b89212fae0dfade
1,7.3888,space,5.8339,0,18,18,292,1,,,5f00d65cb69f9e20f144e404,643916325c9eb520c954923f,2023-04-14_10h02.16.960,PRaM,2021.2.3,MacIntel,60.0024001,61b8f3437b89212fae0dfade
,,space,2.7121,0,19,19,186,1,,,5f00d65cb69f9e20f144e404,643916325c9eb520c954923f,2023-04-14_10h02.16.960,PRaM,2021.2.3,MacIntel,60.0024001,61b8f3437b89212fae0dfade
8,28.0449,space,26.4576,0,20,20,137,1,,,5f00d65cb69f9e20f144e404,643916325c9eb520c954923f,2023-04-14_10h02.16.960,PRaM,2021.2.3,MacIntel,60.0024001,61b8f3437b89212fae0dfade
5,6.9978,space,5.3681,0,21,21,286,1,,,5f00d65cb69f9e20f144e404,643916325c9eb520c954923f,2023-04-14_10h02.16.960,PRaM,2021.2.3,MacIntel,60.0024001,61b8f3437b89212fae0dfade
3,2.9549,space,1.451,0,22,22,373,1,,,5f00d65cb69f9e20f144e404,643916325c9eb520c954923f,2023-04-14_10h02.16.960,PRaM,2021.2.3,MacIntel,60.0024001,61b8f3437b89212fae0dfade
5,3.4043,space,1.4408,0,23,23,281,1,,,5f00d65cb69f9e20f144e404,643916325c9eb520c954923f,2023-04-14_10h02.16.960,PRaM,2021.2.3,MacIntel,60.0024001,61b8f3437b89212fae0dfade
3,3.4891,space,1.6025,0,24,24,172,1,,,5f00d65cb69f9e20f144e404,643916325c9eb520c954923f,2023-04-14_10h02.16.960,PRaM,2021.2.3,MacIntel,60.0024001,61b8f3437b89212fae0dfade
7,4.3216,space,2.6714,0,25,25,249,1,,,5f00d65cb69f9e20f144e404,643916325c9eb520c954923f,2023-04-14_10h02.16.960,PRaM,2021.2.3,MacIntel,60.0024001,61b8f3437b89212fae0dfade
5,2.438,space,0.5529,0,26,26,371,1,,,5f00d65cb69f9e20f144e404,643916325c9eb520c954923f,2023-04-14_10h02.16.960,PRaM,2021.2.3,MacIntel,60.0024001,61b8f3437b89212fae0dfade
2,2.5033,space,0.8513,0,27,27,204,1,,,5f00d65cb69f9e20f144e404,643916325c9eb520c954923f,2023-04-14_10h02.16.960,PRaM,2021.2.3,MacIntel,60.0024001,61b8f3437b89212fae0dfade
5,2.505,space,0.7055,0,28,28,367,1,,,5f00d65cb69f9e20f144e404,643916325c9eb520c954923f,2023-04-14_10h02.16.960,PRaM,2021.2.3,MacIntel,60.0024001,61b8f3437b89212fae0dfade
4,2.7702,space,1.3229,0,29,29,200,1,,,5f00d65cb69f9e20f144e404,643916325c9eb520c954923f,2023-04-14_10h02.16.960,PRaM,2021.2.3,MacIntel,60.0024001,61b8f3437b89212fae0dfade
7,10.9034,space,9.4266,0,30,30,42,1,,,5f00d65cb69f9e20f144e404,643916325c9eb520c954923f,2023-04-14_10h02.16.960,PRaM,2021.2.3,MacIntel,60.0024001,61b8f3437b89212fae0dfade
6,4.3359,space,2.7168,0,31,31,244,1,,,5f00d65cb69f9e20f144e404,643916325c9eb520c954923f,2023-04-14_10h02.16.960,PRaM,2021.2.3,MacIntel,60.0024001,61b8f3437b89212fae0dfade
6,2.7536,space,1.1015,0,32,32,134,1,,,5f00d65cb69f9e20f144e404,643916325c9eb520c954923f,2023-04-14_10h02.16.960,PRaM,2021.2.3,MacIntel,60.0024001,61b8f3437b89212fae0dfade
3,2.6432,space,0.8342,0,33,33,161,1,,,5f00d65cb69f9e20f144e404,643916325c9eb520c954923f,2023-04-14_10h02.16.960,PRaM,2021.2.3,MacIntel,60.0024001,61b8f3437b89212fae0dfade
2,1.9192,space,0.4885,0,34,34,70,1,,,5f00d65cb69f9e20f144e404,643916325c9eb520c954923f,2023-04-14_10h02.16.960,PRaM,2021.2.3,MacIntel,60.0024001,61b8f3437b89212fae0dfade
2,1.4701,space,9.2193,0,35,35,8,1,,,5f00d65cb69f9e20f144e404,643916325c9eb520c954923f,2023-04-14_10h02.16.960,PRaM,2021.2.3,MacIntel,60.0024001,61b8f3437b89212fae0dfade
3,1.3785,space,1.0585,0,36,36,218,1,,,5f00d65cb69f9e20f144e404,643916325c9eb520c954923f,2023-04-14_10h02.16.960,PRaM,2021.2.3,MacIntel,60.0024001,61b8f3437b89212fae0dfade
2,6.9394,space,5.724,0,37,37,39,1,,,5f00d65cb69f9e20f144e404,643916325c9eb520c954923f,2023-04-14_10h02.16.960,PRaM,2021.2.3,MacIntel,60.0024001,61b8f3437b89212fae0dfade
2,1.7193,space,0.5184,0,38,38,23,1,,,5f00d65cb69f9e20f144e404,643916325c9eb520c954923f,2023-04-14_10h02.16.960,PRaM,2021.2.3,MacIntel,60.0024001,61b8f3437b89212fae0dfade
2,2.22,space,0.7204,0,39,39,138,1,,,5f00d65cb69f9e20f144e404,643916325c9eb520c954923f,2023-04-14_10h02.16.960,PRaM,2021.2.3,MacIntel,60.0024001,61b8f3437b89212fae0dfade
1,2.0858,space,0.7868,0,40,40,107,1,,,5f00d65cb69f9e20f144e404,643916325c9eb520c954923f,2023-04-14_10h02.16.960,PRaM,2021.2.3,MacIntel,60.0024001,61b8f3437b89212fae0dfade
8,3.3594,space,1.7073,0,41,41,319,1,,,5f00d65cb69f9e20f144e404,643916325c9eb520c954923f,2023-04-14_10h02.16.960,PRaM,2021.2.3,MacIntel,60.0024001,61b8f3437b89212fae0dfade
3,3.138,space,1.4588,0,42,42,92,1,,,5f00d65cb69f9e20f144e404,643916325c9eb520c954923f,2023-04-14_10h02.16.960,PRaM,2021.2.3,MacIntel,60.0024001,61b8f3437b89212fae0dfade
3,1.6549,space,0.3371,0,43,43,324,1,,,5f00d65cb69f9e20f144e404,643916325c9eb520c954923f,2023-04-14_10h02.16.960,PRaM,2021.2.3,MacIntel,60.0024001,61b8f3437b89212fae0dfade
5,3.6564,space,2.0101,0,44,44,141,1,,,5f00d65cb69f9e20f144e404,643916325c9eb520c954923f,2023-04-14_10h02.16.960,PRaM,2021.2.3,MacIntel,60.0024001,61b8f3437b89212fae0dfade
5,2.3892,space,0.5332,0,45,45,183,1,,,5f00d65cb69f9e20f144e404,643916325c9eb520c954923f,2023-04-14_10h02.16.960,PRaM,2021.2.3,MacIntel,60.0024001,61b8f3437b89212fae0dfade
5,1.6073,space,0.167,0,46,46,72,1,,,5f00d65cb69f9e20f144e404,643916325c9eb520c954923f,2023-04-14_10h02.16.960,PRaM,2021.2.3,MacIntel,60.0024001,61b8f3437b89212fae0dfade
3,2.3889,space,0.4921,0,47,47,94,1,,,5f00d65cb69f9e20f144e404,643916325c9eb520c954923f,2023-04-14_10h02.16.960,PRaM,2021.2.3,MacIntel,60.0024001,61b8f3437b89212fae0dfade
7,2.7723,space,1.0892,0,48,48,32,1,,,5f00d65cb69f9e20f144e404,643916325c9eb520c954923f,2023-04-14_10h02.16.960,PRaM,2021.2.3,MacIntel,60.0024001,61b8f3437b89212fae0dfade
3,19.0521,space,17.5677,0,49,49,312,1,,,5f00d65cb69f9e20f144e404,643916325c9eb520c954923f,2023-04-14_10h02.16.960,PRaM,2021.2.3,MacIntel,60.0024001,61b8f3437b89212fae0dfade
4,7.1229,space,5.6353,0,50,50,335,1,,,5f00d65cb69f9e20f144e404,643916325c9eb520c954923f,2023-04-14_10h02.16.960,PRaM,2021.2.3,MacIntel,60.0024001,61b8f3437b89212fae0dfade
5,3.2865,space,1.5857,0,51,51,375,1,,,5f00d65cb69f9e20f144e404,643916325c9eb520c954923f,2023-04-14_10h02.16.960,PRaM,2021.2.3,MacIntel,60.0024001,61b8f3437b89212fae0dfade
1,3.3702,space,1.7166,0,52,52,353,1,,,5f00d65cb69f9e20f144e404,643916325c9eb520c954923f,2023-04-14_10h02.16.960,PRaM,2021.2.3,MacIntel,60.0024001,61b8f3437b89212fae0dfade
5,1.8695,space,1.0227,0,53,53,377,1,,,5f00d65cb69f9e20f144e404,643916325c9eb520c954923f,2023-04-14_10h02.16.960,PRaM,2021.2.3,MacIntel,60.0024001,61b8f3437b89212fae0dfade
6,4.1595,space,2.5104,0,54,54,142,1,,,5f00d65cb69f9e20f144e404,643916325c9eb520c954923f,2023-04-14_10h02.16.960,PRaM,2021.2.3,MacIntel,60.0024001,61b8f3437b89212fae0dfade
3,1.7049,space,0.1325,0,55,55,321,1,,,5f00d65cb69f9e20f144e404,643916325c9eb520c954923f,2023-04-14_10h02.16.960,PRaM,2021.2.3,MacIntel,60.0024001,61b8f3437b89212fae0dfade
7,3.9682,space,2.1181,0,56,56,209,1,,,5f00d65cb69f9e20f144e404,643916325c9eb520c954923f,2023-04-14_10h02.16.960,PRaM,2021.2.3,MacIntel,60.0024001,61b8f3437b89212fae0dfade
5,4.7014,space,2.888,0,57,57,77,1,,,5f00d65cb69f9e20f144e404,643916325c9eb520c954923f,2023-04-14_10h02.16.960,PRaM,2021.2.3,MacIntel,60.0024001,61b8f3437b89212fae0dfade
3,4.6861,space,2.7651,0,58,58,131,1,,,5f00d65cb69f9e20f144e404,643916325c9eb520c954923f,2023-04-14_10h02.16.960,PRaM,2021.2.3,MacIntel,60.0024001,61b8f3437b89212fae0dfade
3,1.6047,space,0.7921,0,59,59,91,1,,,5f00d65cb69f9e20f144e404,643916325c9eb520c954923f,2023-04-14_10h02.16.960,PRaM,2021.2.3,MacIntel,60.0024001,61b8f3437b89212fae0dfade
6,2.1809,space,0.4828,0,60,60,179,1,,,5f00d65cb69f9e20f144e404,643916325c9eb520c954923f,2023-04-14_10h02.16.960,PRaM,2021.2.3,MacIntel,60.0024001,61b8f3437b89212fae0dfade
5,7.6446,space,5.9587,0,61,61,21,1,,,5f00d65cb69f9e20f144e404,643916325c9eb520c954923f,2023-04-14_10h02.16.960,PRaM,2021.2.3,MacIntel,60.0024001,61b8f3437b89212fae0dfade
6,2.1842,space,0.552,0,62,62,123,1,,,5f00d65cb69f9e20f144e404,643916325c9eb520c954923f,2023-04-14_10h02.16.960,PRaM,2021.2.3,MacIntel,60.0024001,61b8f3437b89212fae0dfade
6,2.888,space,1.3261,0,63,63,180,1,,,5f00d65cb69f9e20f144e404,643916325c9eb520c954923f,2023-04-14_10h02.16.960,PRaM,2021.2.3,MacIntel,60.0024001,61b8f3437b89212fae0dfade
6,2.153,space,0.3598,0,64,64,166,1,,,5f00d65cb69f9e20f144e404,643916325c9eb520c954923f,2023-04-14_10h02.16.960,PRaM,2021.2.3,MacIntel,60.0024001,61b8f3437b89212fae0dfade
3,2.3697,space,0.7184,0,65,65,360,1,,,5f00d65cb69f9e20f144e404,643916325c9eb520c954923f,2023-04-14_10h02.16.960,PRaM,2021.2.3,MacIntel,60.0024001,61b8f3437b89212fae0dfade
4,1.8884,space,0.157,0,66,66,125,1,,,5f00d65cb69f9e20f144e404,643916325c9eb520c954923f,2023-04-14_10h02.16.960,PRaM,2021.2.3,MacIntel,60.0024001,61b8f3437b89212fae0dfade
3,2.855,space,1.178,0,67,67,48,1,,,5f00d65cb69f9e20f144e404,643916325c9eb520c954923f,2023-04-14_10h02.16.960,PRaM,2021.2.3,MacIntel,60.0024001,61b8f3437b89212fae0dfade
3,4.4389,space,2.7213,0,68,68,306,1,,,5f00d65cb69f9e20f144e404,643916325c9eb520c954923f,2023-04-14_10h02.16.960,PRaM,2021.2.3,MacIntel,60.0024001,61b8f3437b89212fae0dfade
6,3.0877,space,1.2497,0,69,69,346,1,,,5f00d65cb69f9e20f144e404,643916325c9eb520c954923f,2023-04-14_10h02.16.960,PRaM,2021.2.3,MacIntel,60.0024001,61b8f3437b89212fae0dfade
4,2.6355,space,2.3879,0,70,70,262,1,,,5f00d65cb69f9e20f144e404,643916325c9eb520c954923f,2023-04-14_10h02.16.960,PRaM,2021.2.3,MacIntel,60.0024001,61b8f3437b89212fae0dfade
3,3.939,space,2.3738,0,71,71,49,1,,,5f00d65cb69f9e20f144e404,643916325c9eb520c954923f,2023-04-14_10h02.16.960,PRaM,2021.2.3,MacIntel,60.0024001,61b8f3437b89212fae0dfade
6,2.8435,space,1.2522,0,72,72,88,1,,,5f00d65cb69f9e20f144e404,643916325c9eb520c954923f,2023-04-14_10h02.16.960,PRaM,2021.2.3,MacIntel,60.0024001,61b8f3437b89212fae0dfade
3,4.346,space,6.0337,0,73,73,5,1,,,5f00d65cb69f9e20f144e404,643916325c9eb520c954923f,2023-04-14_10h02.16.960,PRaM,2021.2.3,MacIntel,60.0024001,61b8f3437b89212fae0dfade
5,2.6096,space,1.0593,0,74,74,258,1,,,5f00d65cb69f9e20f144e404,643916325c9eb520c954923f,2023-04-14_10h02.16.960,PRaM,2021.2.3,MacIntel,60.0024001,61b8f3437b89212fae0dfade
5,1.9542,space,0.2514,0,75,75,241,1,,,5f00d65cb69f9e20f144e404,643916325c9eb520c954923f,2023-04-14_10h02.16.960,PRaM,2021.2.3,MacIntel,60.0024001,61b8f3437b89212fae0dfade
4,4.9942,space,3.3027,0,76,76,260,1,,,5f00d65cb69f9e20f144e404,643916325c9eb520c954923f,2023-04-14_10h02.16.960,PRaM,2021.2.3,MacIntel,60.0024001,61b8f3437b89212fae0dfade
4,1.6045,space,1.1371,0,77,77,294,1,,,5f00d65cb69f9e20f144e404,643916325c9eb520c954923f,2023-04-14_10h02.16.960,PRaM,2021.2.3,MacIntel,60.0024001,61b8f3437b89212fae0dfade
3,7.8119,space,6.2355,0,78,78,309,1,,,5f00d65cb69f9e20f144e404,643916325c9eb520c954923f,2023-04-14_10h02.16.960,PRaM,2021.2.3,MacIntel,60.0024001,61b8f3437b89212fae0dfade
6,9.6907,space,8.0679,0,79,79,61,1,,,5f00d65cb69f9e20f144e404,643916325c9eb520c954923f,2023-04-14_10h02.16.960,PRaM,2021.2.3,MacIntel,60.0024001,61b8f3437b89212fae0dfade
3,2.472,space,1.2361,0,80,80,65,1,,,5f00d65cb69f9e20f144e404,643916325c9eb520c954923f,2023-04-14_10h02.16.960,PRaM,2021.2.3,MacIntel,60.0024001,61b8f3437b89212fae0dfade
3,3.5743,space,4.3245,0,81,81,54,1,,,5f00d65cb69f9e20f144e404,643916325c9eb520c954923f,2023-04-14_10h02.16.960,PRaM,2021.2.3,MacIntel,60.0024001,61b8f3437b89212fae0dfade
7,2.2312,space,0.5701,0,82,82,213,1,,,5f00d65cb69f9e20f144e404,643916325c9eb520c954923f,2023-04-14_10h02.16.960,PRaM,2021.2.3,MacIntel,60.0024001,61b8f3437b89212fae0dfade
6,5.3136,space,3.6614,0,83,83,259,1,,,5f00d65cb69f9e20f144e404,643916325c9eb520c954923f,2023-04-14_10h02.16.960,PRaM,2021.2.3,MacIntel,60.0024001,61b8f3437b89212fae0dfade
6,2.4013,space,1.4158,0,84,84,64,1,,,5f00d65cb69f9e20f144e404,643916325c9eb520c954923f,2023-04-14_10h02.16.960,PRaM,2021.2.3,MacIntel,60.0024001,61b8f3437b89212fae0dfade
6,1.5024,space,1.6676,0,85,85,156,1,,,5f00d65cb69f9e20f144e404,643916325c9eb520c954923f,2023-04-14_10h02.16.960,PRaM,2021.2.3,MacIntel,60.0024001,61b8f3437b89212fae0dfade
6,2.1465,space,0.9099,0,86,86,344,1,,,5f00d65cb69f9e20f144e404,643916325c9eb520c954923f,2023-04-14_10h02.16.960,PRaM,2021.2.3,MacIntel,60.0024001,61b8f3437b89212fae0dfade
6,1.8191,space,0.0368,0,87,87,154,1,,,5f00d65cb69f9e20f144e404,643916325c9eb520c954923f,2023-04-14_10h02.16.960,PRaM,2021.2.3,MacIntel,60.0024001,61b8f3437b89212fae0dfade
3,1.9051,space,0.0333,0,88,88,143,1,,,5f00d65cb69f9e20f144e404,643916325c9eb520c954923f,2023-04-14_10h02.16.960,PRaM,2021.2.3,MacIntel,60.0024001,61b8f3437b89212fae0dfade
1,3.6865,space,2.0851,0,89,89,315,1,,,5f00d65cb69f9e20f144e404,643916325c9eb520c954923f,2023-04-14_10h02.16.960,PRaM,2021.2.3,MacIntel,60.0024001,61b8f3437b89212fae0dfade
2,4.0044,space,2.537,0,90,90,289,1,,,5f00d65cb69f9e20f144e404,643916325c9eb520c954923f,2023-04-14_10h02.16.960,PRaM,2021.2.3,MacIntel,60.0024001,61b8f3437b89212fae0dfade
2,7.2035,space,6.2025,0,91,91,220,1,,,5f00d65cb69f9e20f144e404,643916325c9eb520c954923f,2023-04-14_10h02.16.960,PRaM,2021.2.3,MacIntel,60.0024001,61b8f3437b89212fae0dfade
1,9.2132,space,7.5883,0,92,92,243,1,,,5f00d65cb69f9e20f144e404,643916325c9eb520c954923f,2023-04-14_10h02.16.960,PRaM,2021.2.3,MacIntel,60.0024001,61b8f3437b89212fae0dfade
3,2.2688,space,0.7852,0,93,93,57,1,,,5f00d65cb69f9e20f144e404,643916325c9eb520c954923f,2023-04-14_10h02.16.960,PRaM,2021.2.3,MacIntel,60.0024001,61b8f3437b89212fae0dfade
3,2.1712,space,0.4908,0,94,94,100,1,,,5f00d65cb69f9e20f144e404,643916325c9eb520c954923f,2023-04-14_10h02.16.960,PRaM,2021.2.3,MacIntel,60.0024001,61b8f3437b89212fae0dfade
2,2.5208,space,1.6826,0,95,95,193,1,,,5f00d65cb69f9e20f144e404,643916325c9eb520c954923f,2023-04-14_10h02.16.960,PRaM,2021.2.3,MacIntel,60.0024001,61b8f3437b89212fae0dfade
5,3.9726,space,2.1699,0,96,96,364,1,,,5f00d65cb69f9e20f144e404,643916325c9eb520c954923f,2023-04-14_10h02.16.960,PRaM,2021.2.3,MacIntel,60.0024001,61b8f3437b89212fae0dfade
6,2.1048,space,0.4207,0,97,97,159,1,,,5f00d65cb69f9e20f144e404,643916325c9eb520c954923f,2023-04-14_10h02.16.960,PRaM,2021.2.3,MacIntel,60.0024001,61b8f3437b89212fae0dfade
3,2.221,space,0.579,0,98,98,275,1,,,5f00d65cb69f9e20f144e404,643916325c9eb520c954923f,2023-04-14_10h02.16.960,PRaM,2021.2.3,MacIntel,60.0024001,61b8f3437b89212fae0dfade
5,7.6365,space,5.9085,0,99,99,174,1,,,5f00d65cb69f9e20f144e404,643916325c9eb520c954923f,2023-04-14_10h02.16.960,PRaM,2021.2.3,MacIntel,60.0024001,61b8f3437b89212fae0dfade
4,1.8536,space,0.1341,0,100,100,361,1,,,5f00d65cb69f9e20f144e404,643916325c9eb520c954923f,2023-04-14_10h02.16.960,PRaM,2021.2.3,MacIntel,60.0024001,61b8f3437b89212fae0dfade
4,1.3033,space,8.3069,0,101,101,317,1,,,5f00d65cb69f9e20f144e404,643916325c9eb520c954923f,2023-04-14_10h02.16.960,PRaM,2021.2.3,MacIntel,60.0024001,61b8f3437b89212fae0dfade
6,6.3982,space,4.723,0,102,102,149,1,,,5f00d65cb69f9e20f144e404,643916325c9eb520c954923f,2023-04-14_10h02.16.960,PRaM,2021.2.3,MacIntel,60.0024001,61b8f3437b89212fae0dfade
6,4.6715,space,3.0234,0,103,103,270,1,,,5f00d65cb69f9e20f144e404,643916325c9eb520c954923f,2023-04-14_10h02.16.960,PRaM,2021.2.3,MacIntel,60.0024001,61b8f3437b89212fae0dfade
4,5.9371,space,8.4863,0,104,104,358,1,,,5f00d65cb69f9e20f144e404,643916325c9eb520c954923f,2023-04-14_10h02.16.960,PRaM,2021.2.3,MacIntel,60.0024001,61b8f3437b89212fae0dfade
4,7.6436,space,6.0402,0,105,105,121,1,,,5f00d65cb69f9e20f144e404,643916325c9eb520c954923f,2023-04-14_10h02.16.960,PRaM,2021.2.3,MacIntel,60.0024001,61b8f3437b89212fae0dfade
1,6.9237,space,5.3515,0,106,106,247,1,,,5f00d65cb69f9e20f144e404,643916325c9eb520c954923f,2023-04-14_10h02.16.960,PRaM,2021.2.3,MacIntel,60.0024001,61b8f3437b89212fae0dfade
3,5.0271,space,3.9209,0,107,107,237,1,,,5f00d65cb69f9e20f144e404,643916325c9eb520c954923f,2023-04-14_10h02.16.960,PRaM,2021.2.3,MacIntel,60.0024001,61b8f3437b89212fae0dfade
6,3.0114,space,1.4183,0,108,108,310,1,,,5f00d65cb69f9e20f144e404,643916325c9eb520c954923f,2023-04-14_10h02.16.960,PRaM,2021.2.3,MacIntel,60.0024001,61b8f3437b89212fae0dfade
3,2.82,space,2.6869,0,109,109,130,1,,,5f00d65cb69f9e20f144e404,643916325c9eb520c954923f,2023-04-14_10h02.16.960,PRaM,2021.2.3,MacIntel,60.0024001,61b8f3437b89212fae0dfade
1,2.5072,space,1.0011,0,110,110,108,1,,,5f00d65cb69f9e20f144e404,643916325c9eb520c954923f,2023-04-14_10h02.16.960,PRaM,2021.2.3,MacIntel,60.0024001,61b8f3437b89212fae0dfade
5,2.0537,space,0.3703,0,111,111,236,1,,,5f00d65cb69f9e20f144e404,643916325c9eb520c954923f,2023-04-14_10h02.16.960,PRaM,2021.2.3,MacIntel,60.0024001,61b8f3437b89212fae0dfade
5,2.0536,space,0.3578,0,112,112,147,1,,,5f00d65cb69f9e20f144e404,643916325c9eb520c954923f,2023-04-14_10h02.16.960,PRaM,2021.2.3,MacIntel,60.0024001,61b8f3437b89212fae0dfade
5,2.4694,space,0.983,0,113,113,298,1,,,5f00d65cb69f9e20f144e404,643916325c9eb520c954923f,2023-04-14_10h02.16.960,PRaM,2021.2.3,MacIntel,60.0024001,61b8f3437b89212fae0dfade
5,1.6858,space,0.7673,0,114,114,96,1,,,5f00d65cb69f9e20f144e404,643916325c9eb520c954923f,2023-04-14_10h02.16.960,PRaM,2021.2.3,MacIntel,60.0024001,61b8f3437b89212fae0dfade
5,2.2522,space,0.4603,0,115,115,169,1,,,5f00d65cb69f9e20f144e404,643916325c9eb520c954923f,2023-04-14_10h02.16.960,PRaM,2021.2.3,MacIntel,60.0024001,61b8f3437b89212fae0dfade
4,1.92,space,0.5923,0,116,116,31,1,,,5f00d65cb69f9e20f144e404,643916325c9eb520c954923f,2023-04-14_10h02.16.960,PRaM,2021.2.3,MacIntel,60.0024001,61b8f3437b89212fae0dfade
6,5.3067,space,3.6416,0,117,117,254,1,,,5f00d65cb69f9e20f144e404,643916325c9eb520c954923f,2023-04-14_10h02.16.960,PRaM,2021.2.3,MacIntel,60.0024001,61b8f3437b89212fae0dfade
6,3.1192,space,1.4684,0,118,118,45,1,,,5f00d65cb69f9e20f144e404,643916325c9eb520c954923f,2023-04-14_10h02.16.960,PRaM,2021.2.3,MacIntel,60.0024001,61b8f3437b89212fae0dfade
5,12.2738,space,11.6849,0,119,119,80,1,,,5f00d65cb69f9e20f144e404,643916325c9eb520c954923f,2023-04-14_10h02.16.960,PRaM,2021.2.3,MacIntel,60.0024001,61b8f3437b89212fae0dfade
5,1.5559,space,0.0248,0,120,120,340,1,,,5f00d65cb69f9e20f144e404,643916325c9eb520c954923f,2023-04-14_10h02.16.960,PRaM,2021.2.3,MacIntel,60.0024001,61b8f3437b89212fae0dfade
7,13.2871,space,11.6508,0,121,121,105,1,,,5f00d65cb69f9e20f144e404,643916325c9eb520c954923f,2023-04-14_10h02.16.960,PRaM,2021.2.3,MacIntel,60.0024001,61b8f3437b89212fae0dfade
5,1.9358,space,0.0905,0,122,122,78,1,,,5f00d65cb69f9e20f144e404,643916325c9eb520c954923f,2023-04-14_10h02.16.960,PRaM,2021.2.3,MacIntel,60.0024001,61b8f3437b89212fae0dfade
4,1.8366,space,0.125,0,123,123,63,1,,,5f00d65cb69f9e20f144e404,643916325c9eb520c954923f,2023-04-14_10h02.16.960,PRaM,2021.2.3,MacIntel,60.0024001,61b8f3437b89212fae0dfade
6,13.3231,space,24.286,0,124,124,307,1,,,5f00d65cb69f9e20f144e404,643916325c9eb520c954923f,2023-04-14_10h02.16.960,PRaM,2021.2.3,MacIntel,60.0024001,61b8f3437b89212fae0dfade
5,1.8131,space,0.3013,0,125,125,224,1,,,5f00d65cb69f9e20f144e404,643916325c9eb520c954923f,2023-04-14_10h02.16.960,PRaM,2021.2.3,MacIntel,60.0024001,61b8f3437b89212fae0dfade
4,24.7873,space,23.8018,0,126,126,97,1,,,5f00d65cb69f9e20f144e404,643916325c9eb520c954923f,2023-04-14_10h02.16.960,PRaM,2021.2.3,MacIntel,60.0024001,61b8f3437b89212fae0dfade
6,3.2564,space,1.606,0,127,127,62,1,,,5f00d65cb69f9e20f144e404,643916325c9eb520c954923f,2023-04-14_10h02.16.960,PRaM,2021.2.3,MacIntel,60.0024001,61b8f3437b89212fae0dfade
2,3.6731,space,2.0365,0,128,128,34,1,,,5f00d65cb69f9e20f144e404,643916325c9eb520c954923f,2023-04-14_10h02.16.960,PRaM,2021.2.3,MacIntel,60.0024001,61b8f3437b89212fae0dfade
5,9.8384,space,8.1858,0,129,129,256,1,,,5f00d65cb69f9e20f144e404,643916325c9eb520c954923f,2023-04-14_10h02.16.960,PRaM,2021.2.3,MacIntel,60.0024001,61b8f3437b89212fae0dfade
4,2.27,space,0.6398,0,130,130,365,1,,,5f00d65cb69f9e20f144e404,643916325c9eb520c954923f,2023-04-14_10h02.16.960,PRaM,2021.2.3,MacIntel,60.0024001,61b8f3437b89212fae0dfade
7,2.5055,space,0.6602,0,131,131,199,1,,,5f00d65cb69f9e20f144e404,643916325c9eb520c954923f,2023-04-14_10h02.16.960,PRaM,2021.2.3,MacIntel,60.0024001,61b8f3437b89212fae0dfade
2,3.062,space,1.3224,0,132,132,198,1,,,5f00d65cb69f9e20f144e404,643916325c9eb520c954923f,2023-04-14_10h02.16.960,PRaM,2021.2.3,MacIntel,60.0024001,61b8f3437b89212fae0dfade
3,2.1727,space,0.6964,0,133,133,316,1,,,5f00d65cb69f9e20f144e404,643916325c9eb520c954923f,2023-04-14_10h02.16.960,PRaM,2021.2.3,MacIntel,60.0024001,61b8f3437b89212fae0dfade
3,25.9058,space,33.7562,0,134,134,240,1,,,5f00d65cb69f9e20f144e404,643916325c9eb520c954923f,2023-04-14_10h02.16.960,PRaM,2021.2.3,MacIntel,60.0024001,61b8f3437b89212fae0dfade
6,1.9977,space,0.8365,0,135,135,350,1,,,5f00d65cb69f9e20f144e404,643916325c9eb520c954923f,2023-04-14_10h02.16.960,PRaM,2021.2.3,MacIntel,60.0024001,61b8f3437b89212fae0dfade
5,1.7396,space,0.4743,0,136,136,219,1,,,5f00d65cb69f9e20f144e404,643916325c9eb520c954923f,2023-04-14_10h02.16.960,PRaM,2021.2.3,MacIntel,60.0024001,61b8f3437b89212fae0dfade
7,3.5413,space,1.7588,0,137,137,19,1,,,5f00d65cb69f9e20f144e404,643916325c9eb520c954923f,2023-04-14_10h02.16.960,PRaM,2021.2.3,MacIntel,60.0024001,61b8f3437b89212fae0dfade
6,1.9555,space,0.2519,0,138,138,246,1,,,5f00d65cb69f9e20f144e404,643916325c9eb520c954923f,2023-04-14_10h02.16.960,PRaM,2021.2.3,MacIntel,60.0024001,61b8f3437b89212fae0dfade
6,1.7693,space,0.3079,0,139,139,25,1,,,5f00d65cb69f9e20f144e404,643916325c9eb520c954923f,2023-04-14_10h02.16.960,PRaM,2021.2.3,MacIntel,60.0024001,61b8f3437b89212fae0dfade
7,1.8736,space,0.3498,0,140,140,337,1,,,5f00d65cb69f9e20f144e404,643916325c9eb520c954923f,2023-04-14_10h02.16.960,PRaM,2021.2.3,MacIntel,60.0024001,61b8f3437b89212fae0dfade
7,1.8178,space,0.7945,0,141,141,117,1,,,5f00d65cb69f9e20f144e404,643916325c9eb520c954923f,2023-04-14_10h02.16.960,PRaM,2021.2.3,MacIntel,60.0024001,61b8f3437b89212fae0dfade
5,1.8373,space,0.4636,0,142,142,206,1,,,5f00d65cb69f9e20f144e404,643916325c9eb520c954923f,2023-04-14_10h02.16.960,PRaM,2021.2.3,MacIntel,60.0024001,61b8f3437b89212fae0dfade
5,1.4525,space,0.0064,0,143,143,257,1,,,5f00d65cb69f9e20f144e404,643916325c9eb520c954923f,2023-04-14_10h02.16.960,PRaM,2021.2.3,MacIntel,60.0024001,61b8f3437b89212fae0dfade
6,1.3554,space,0.3321,0,144,144,336,1,,,5f00d65cb69f9e20f144e404,643916325c9eb520c954923f,2023-04-14_10h02.16.960,PRaM,2021.2.3,MacIntel,60.0024001,61b8f3437b89212fae0dfade
4,2.2552,space,0.5843,0,145,145,37,1,,,5f00d65cb69f9e20f144e404,643916325c9eb520c954923f,2023-04-14_10h02.16.960,PRaM,2021.2.3,MacIntel,60.0024001,61b8f3437b89212fae0dfade
5,1.686,space,0.3019,0,146,146,341,1,,,5f00d65cb69f9e20f144e404,643916325c9eb520c954923f,2023-04-14_10h02.16.960,PRaM,2021.2.3,MacIntel,60.0024001,61b8f3437b89212fae0dfade
5,1.1013,space,0.7912,0,147,147,162,1,,,5f00d65cb69f9e20f144e404,643916325c9eb520c954923f,2023-04-14_10h02.16.960,PRaM,2021.2.3,MacIntel,60.0024001,61b8f3437b89212fae0dfade
2,2.7029,space,0.9892,0,148,148,217,1,,,5f00d65cb69f9e20f144e404,643916325c9eb520c954923f,2023-04-14_10h02.16.960,PRaM,2021.2.3,MacIntel,60.0024001,61b8f3437b89212fae0dfade
3,4.5888,space,2.9201,0,149,149,73,1,,,5f00d65cb69f9e20f144e404,643916325c9eb520c954923f,2023-04-14_10h02.16.960,PRaM,2021.2.3,MacIntel,60.0024001,61b8f3437b89212fae0dfade
1,3.2718,space,1.5764,0,150,150,308,1,,,5f00d65cb69f9e20f144e404,643916325c9eb520c954923f,2023-04-14_10h02.16.960,PRaM,2021.2.3,MacIntel,60.0024001,61b8f3437b89212fae0dfade
3,2.7709,space,1.0785,0,151,151,157,1,,,5f00d65cb69f9e20f144e404,643916325c9eb520c954923f,2023-04-14_10h02.16.960,PRaM,2021.2.3,MacIntel,60.0024001,61b8f3437b89212fae0dfade
4,8.4525,space,41.4196,0,152,152,18,1,,,5f00d65cb69f9e20f144e404,643916325c9eb520c954923f,2023-04-14_10h02.16.960,PRaM,2021.2.3,MacIntel,60.0024001,61b8f3437b89212fae0dfade
6,2.7311,space,1.3166,0,153,153,302,1,,,5f00d65cb69f9e20f144e404,643916325c9eb520c954923f,2023-04-14_10h02.16.960,PRaM,2021.2.3,MacIntel,60.0024001,61b8f3437b89212fae0dfade
5,3.0196,space,1.3506,0,154,154,118,1,,,5f00d65cb69f9e20f144e404,643916325c9eb520c954923f,2023-04-14_10h02.16.960,PRaM,2021.2.3,MacIntel,60.0024001,61b8f3437b89212fae0dfade
3,12.0358,space,10.3794,0,155,155,184,1,,,5f00d65cb69f9e20f144e404,643916325c9eb520c954923f,2023-04-14_10h02.16.960,PRaM,2021.2.3,MacIntel,60.0024001,61b8f3437b89212fae0dfade
3,11.6278,space,10.3152,0,156,156,273,1,,,5f00d65cb69f9e20f144e404,643916325c9eb520c954923f,2023-04-14_10h02.16.960,PRaM,2021.2.3,MacIntel,60.0024001,61b8f3437b89212fae0dfade
7,2.8725,space,1.3103,0,157,157,208,1,,,5f00d65cb69f9e20f144e404,643916325c9eb520c954923f,2023-04-14_10h02.16.960,PRaM,2021.2.3,MacIntel,60.0024001,61b8f3437b89212fae0dfade
6,2.0524,space,0.307,0,158,158,252,1,,,5f00d65cb69f9e20f144e404,643916325c9eb520c954923f,2023-04-14_10h02.16.960,PRaM,2021.2.3,MacIntel,60.0024001,61b8f3437b89212fae0dfade
1,3.8082,space,2.105,0,159,159,290,1,,,5f00d65cb69f9e20f144e404,643916325c9eb520c954923f,2023-04-14_10h02.16.960,PRaM,2021.2.3,MacIntel,60.0024001,61b8f3437b89212fae0dfade
6,4.2723,space,2.803,0,160,160,103,1,,,5f00d65cb69f9e20f144e404,643916325c9eb520c954923f,2023-04-14_10h02.16.960,PRaM,2021.2.3,MacIntel,60.0024001,61b8f3437b89212fae0dfade
8,3.754,space,2.2323,0,161,161,297,1,,,5f00d65cb69f9e20f144e404,643916325c9eb520c954923f,2023-04-14_10h02.16.960,PRaM,2021.2.3,MacIntel,60.0024001,61b8f3437b89212fae0dfade
6,2.0206,space,0.2678,0,162,162,327,1,,,5f00d65cb69f9e20f144e404,643916325c9eb520c954923f,2023-04-14_10h02.16.960,PRaM,2021.2.3,MacIntel,60.0024001,61b8f3437b89212fae0dfade
2,2.3795,space,0.7724,0,163,163,338,1,,,5f00d65cb69f9e20f144e404,643916325c9eb520c954923f,2023-04-14_10h02.16.960,PRaM,2021.2.3,MacIntel,60.0024001,61b8f3437b89212fae0dfade
2,1.6401,space,0.3189,0,164,164,27,1,,,5f00d65cb69f9e20f144e404,643916325c9eb520c954923f,2023-04-14_10h02.16.960,PRaM,2021.2.3,MacIntel,60.0024001,61b8f3437b89212fae0dfade
2,2.0224,space,0.4046,0,165,165,10,1,,,5f00d65cb69f9e20f144e404,643916325c9eb520c954923f,2023-04-14_10h02.16.960,PRaM,2021.2.3,MacIntel,60.0024001,61b8f3437b89212fae0dfade
7,2.8218,space,1.2375,0,166,166,151,1,,,5f00d65cb69f9e20f144e404,643916325c9eb520c954923f,2023-04-14_10h02.16.960,PRaM,2021.2.3,MacIntel,60.0024001,61b8f3437b89212fae0dfade
3,3.0058,space,1.323,0,167,167,87,1,,,5f00d65cb69f9e20f144e404,643916325c9eb520c954923f,2023-04-14_10h02.16.960,PRaM,2021.2.3,MacIntel,60.0024001,61b8f3437b89212fae0dfade
3,2.1463,space,1.1513,0,168,168,81,1,,,5f00d65cb69f9e20f144e404,643916325c9eb520c954923f,2023-04-14_10h02.16.960,PRaM,2021.2.3,MacIntel,60.0024001,61b8f3437b89212fae0dfade
2,5.5857,space,3.9179,0,169,169,313,1,,,5f00d65cb69f9e20f144e404,643916325c9eb520c954923f,2023-04-14_10h02.16.960,PRaM,2021.2.3,MacIntel,60.0024001,61b8f3437b89212fae0dfade
6,2.5736,space,2.0577,0,170,170,181,1,,,5f00d65cb69f9e20f144e404,643916325c9eb520c954923f,2023-04-14_10h02.16.960,PRaM,2021.2.3,MacIntel,60.0024001,61b8f3437b89212fae0dfade
4,29.282,space,27.8266,0,171,171,163,1,,,5f00d65cb69f9e20f144e404,643916325c9eb520c954923f,2023-04-14_10h02.16.960,PRaM,2021.2.3,MacIntel,60.0024001,61b8f3437b89212fae0dfade
3,15.4706,space,13.7941,0,172,172,95,1,,,5f00d65cb69f9e20f144e404,643916325c9eb520c954923f,2023-04-14_10h02.16.960,PRaM,2021.2.3,MacIntel,60.0024001,61b8f3437b89212fae0dfade
7,11.5558,space,9.8522,0,173,173,238,1,,,5f00d65cb69f9e20f144e404,643916325c9eb520c954923f,2023-04-14_10h02.16.960,PRaM,2021.2.3,MacIntel,60.0024001,61b8f3437b89212fae0dfade
6,1.819,space,0.9252,0,174,174,261,1,,,5f00d65cb69f9e20f144e404,643916325c9eb520c954923f,2023-04-14_10h02.16.960,PRaM,2021.2.3,MacIntel,60.0024001,61b8f3437b89212fae0dfade
6,8.9632,space,19.1212,0,175,175,110,1,,,5f00d65cb69f9e20f144e404,643916325c9eb520c954923f,2023-04-14_10h02.16.960,PRaM,2021.2.3,MacIntel,60.0024001,61b8f3437b89212fae0dfade
6,1.4144,space,0.6577,0,176,176,140,1,,,5f00d65cb69f9e20f144e404,643916325c9eb520c954923f,2023-04-14_10h02.16.960,PRaM,2021.2.3,MacIntel,60.0024001,61b8f3437b89212fae0dfade
6,2.3411,space,2.7117,0,177,177,351,1,,,5f00d65cb69f9e20f144e404,643916325c9eb520c954923f,2023-04-14_10h02.16.960,PRaM,2021.2.3,MacIntel,60.0024001,61b8f3437b89212fae0dfade
6,3.8222,space,2.1519,0,178,178,293,1,,,5f00d65cb69f9e20f144e404,643916325c9eb520c954923f,2023-04-14_10h02.16.960,PRaM,2021.2.3,MacIntel,60.0024001,61b8f3437b89212fae0dfade
6,2.7558,space,1.2177,0,179,179,150,1,,,5f00d65cb69f9e20f144e404,643916325c9eb520c954923f,2023-04-14_10h02.16.960,PRaM,2021.2.3,MacIntel,60.0024001,61b8f3437b89212fae0dfade
7,1.4417,space,0.0707,0,180,180,16,1,,,5f00d65cb69f9e20f144e404,643916325c9eb520c954923f,2023-04-14_10h02.16.960,PRaM,2021.2.3,MacIntel,60.0024001,61b8f3437b89212fae0dfade
1,5.505,space,3.7026,0,181,181,342,1,,,5f00d65cb69f9e20f144e404,643916325c9eb520c954923f,2023-04-14_10h02.16.960,PRaM,2021.2.3,MacIntel,60.0024001,61b8f3437b89212fae0dfade
6,19.2613,space,19.5087,0,182,182,60,1,,,5f00d65cb69f9e20f144e404,643916325c9eb520c954923f,2023-04-14_10h02.16.960,PRaM,2021.2.3,MacIntel,60.0024001,61b8f3437b89212fae0dfade
6,1.789,space,0.1041,0,183,183,331,1,,,5f00d65cb69f9e20f144e404,643916325c9eb520c954923f,2023-04-14_10h02.16.960,PRaM,2021.2.3,MacIntel,60.0024001,61b8f3437b89212fae0dfade
6,1.1398,space,0.3197,0,184,184,7,1,,,5f00d65cb69f9e20f144e404,643916325c9eb520c954923f,2023-04-14_10h02.16.960,PRaM,2021.2.3,MacIntel,60.0024001,61b8f3437b89212fae0dfade
7,1.6397,space,1.0044,0,185,185,277,1,,,5f00d65cb69f9e20f144e404,643916325c9eb520c954923f,2023-04-14_10h02.16.960,PRaM,2021.2.3,MacIntel,60.0024001,61b8f3437b89212fae0dfade
4,2.2212,space,1.8377,0,186,186,44,1,,,5f00d65cb69f9e20f144e404,643916325c9eb520c954923f,2023-04-14_10h02.16.960,PRaM,2021.2.3,MacIntel,60.0024001,61b8f3437b89212fae0dfade
3,1.823,space,0.1691,0,187,187,215,1,,,5f00d65cb69f9e20f144e404,643916325c9eb520c954923f,2023-04-14_10h02.16.960,PRaM,2021.2.3,MacIntel,60.0024001,61b8f3437b89212fae0dfade
7,1.7201,space,0.0186,0,188,188,139,1,,,5f00d65cb69f9e20f144e404,643916325c9eb520c954923f,2023-04-14_10h02.16.960,PRaM,2021.2.3,MacIntel,60.0024001,61b8f3437b89212fae0dfade
1,2.6692,space,0.973,0,189,189,67,1,,,5f00d65cb69f9e20f144e404,643916325c9eb520c954923f,2023-04-14_10h02.16.960,PRaM,2021.2.3,MacIntel,60.0024001,61b8f3437b89212fae0dfade
2,2.748,space,1.0901,0,190,190,229,1,,,5f00d65cb69f9e20f144e404,643916325c9eb520c954923f,2023-04-14_10h02.16.960,PRaM,2021.2.3,MacIntel,60.0024001,61b8f3437b89212fae0dfade
2,1.5032,space,1.1726,0,191,191,35,1,,,5f00d65cb69f9e20f144e404,643916325c9eb520c954923f,2023-04-14_10h02.16.960,PRaM,2021.2.3,MacIntel,60.0024001,61b8f3437b89212fae0dfade
9,6.1168,space,4.6367,0,192,192,222,1,,,5f00d65cb69f9e20f144e404,643916325c9eb520c954923f,2023-04-14_10h02.16.960,PRaM,2021.2.3,MacIntel,60.0024001,61b8f3437b89212fae0dfade
5,2.1703,space,0.3764,0,193,193,272,1,,,5f00d65cb69f9e20f144e404,643916325c9eb520c954923f,2023-04-14_10h02.16.960,PRaM,2021.2.3,MacIntel,60.0024001,61b8f3437b89212fae0dfade
6,2.2422,space,1.2197,0,194,194,29,1,,,5f00d65cb69f9e20f144e404,643916325c9eb520c954923f,2023-04-14_10h02.16.960,PRaM,2021.2.3,MacIntel,60.0024001,61b8f3437b89212fae0dfade
6,12.0113,space,36.5668,0,195,195,83,1,,,5f00d65cb69f9e20f144e404,643916325c9eb520c954923f,2023-04-14_10h02.16.960,PRaM,2021.2.3,MacIntel,60.0024001,61b8f3437b89212fae0dfade
6,1.0484,space,1.1567,0,196,196,51,1,,,5f00d65cb69f9e20f144e404,643916325c9eb520c954923f,2023-04-14_10h02.16.960,PRaM,2021.2.3,MacIntel,60.0024001,61b8f3437b89212fae0dfade
1,3.1527,space,1.5848,0,197,197,232,1,,,5f00d65cb69f9e20f144e404,643916325c9eb520c954923f,2023-04-14_10h02.16.960,PRaM,2021.2.3,MacIntel,60.0024001,61b8f3437b89212fae0dfade
2,2.1056,space,0.443,0,198,198,160,1,,,5f00d65cb69f9e20f144e404,643916325c9eb520c954923f,2023-04-14_10h02.16.960,PRaM,2021.2.3,MacIntel,60.0024001,61b8f3437b89212fae0dfade
7,2.5368,space,1.069,0,199,199,152,1,,,5f00d65cb69f9e20f144e404,643916325c9eb520c954923f,2023-04-14_10h02.16.960,PRaM,2021.2.3,MacIntel,60.0024001,61b8f3437b89212fae0dfade
3,3.2038,space,1.5196,0,200,200,305,1,,,5f00d65cb69f9e20f144e404,643916325c9eb520c954923f,2023-04-14_10h02.16.960,PRaM,2021.2.3,MacIntel,60.0024001,61b8f3437b89212fae0dfade
3,3.6127,space,7.8892,0,201,201,22,1,,,5f00d65cb69f9e20f144e404,643916325c9eb520c954923f,2023-04-14_10h02.16.960,PRaM,2021.2.3,MacIntel,60.0024001,61b8f3437b89212fae0dfade
7,2.3244,space,0.5648,0,202,202,288,1,,,5f00d65cb69f9e20f144e404,643916325c9eb520c954923f,2023-04-14_10h02.16.960,PRaM,2021.2.3,MacIntel,60.0024001,61b8f3437b89212fae0dfade
6,2.1201,space,0.2568,0,203,203,314,1,,,5f00d65cb69f9e20f144e404,643916325c9eb520c954923f,2023-04-14_10h02.16.960,PRaM,2021.2.3,MacIntel,60.0024001,61b8f3437b89212fae0dfade
6,1.3718,space,0.3269,0,204,204,182,1,,,5f00d65cb69f9e20f144e404,643916325c9eb520c954923f,2023-04-14_10h02.16.960,PRaM,2021.2.3,MacIntel,60.0024001,61b8f3437b89212fae0dfade
4,2.2895,space,0.4527,0,205,205,28,1,,,5f00d65cb69f9e20f144e404,643916325c9eb520c954923f,2023-04-14_10h02.16.960,PRaM,2021.2.3,MacIntel,60.0024001,61b8f3437b89212fae0dfade
3,1.8539,space,0.4008,0,206,206,79,1,,,5f00d65cb69f9e20f144e404,643916325c9eb520c954923f,2023-04-14_10h02.16.960,PRaM,2021.2.3,MacIntel,60.0024001,61b8f3437b89212fae0dfade
7,2.6782,space,0.9765,0,207,207,14,1,,,5f00d65cb69f9e20f144e404,643916325c9eb520c954923f,2023-04-14_10h02.16.960,PRaM,2021.2.3,MacIntel,60.0024001,61b8f3437b89212fae0dfade
4,2.0865,space,0.2884,0,208,208,329,1,,,5f00d65cb69f9e20f144e404,643916325c9eb520c954923f,2023-04-14_10h02.16.960,PRaM,2021.2.3,MacIntel,60.0024001,61b8f3437b89212fae0dfade
3,2.156,space,0.7353,0,209,209,250,1,,,5f00d65cb69f9e20f144e404,643916325c9eb520c954923f,2023-04-14_10h02.16.960,PRaM,2021.2.3,MacIntel,60.0024001,61b8f3437b89212fae0dfade
4,64.8494,space,67.0096,0,210,210,52,1,,,5f00d65cb69f9e20f144e404,643916325c9eb520c954923f,2023-04-14_10h02.16.960,PRaM,2021.2.3,MacIntel,60.0024001,61b8f3437b89212fae0dfade
6,7.13,space,10.984,0,211,211,304,1,,,5f00d65cb69f9e20f144e404,643916325c9eb520c954923f,2023-04-14_10h02.16.960,PRaM,2021.2.3,MacIntel,60.0024001,61b8f3437b89212fae0dfade
4,3.1621,space,1.3857,0,212,212,24,1,,,5f00d65cb69f9e20f144e404,643916325c9eb520c954923f,2023-04-14_10h02.16.960,PRaM,2021.2.3,MacIntel,60.0024001,61b8f3437b89212fae0dfade
6,9.2453,space,7.5922,0,213,213,145,1,,,5f00d65cb69f9e20f144e404,643916325c9eb520c954923f,2023-04-14_10h02.16.960,PRaM,2021.2.3,MacIntel,60.0024001,61b8f3437b89212fae0dfade
6,1.5557,space,22.423,0,214,214,202,1,,,5f00d65cb69f9e20f144e404,643916325c9eb520c954923f,2023-04-14_10h02.16.960,PRaM,2021.2.3,MacIntel,60.0024001,61b8f3437b89212fae0dfade
4,4.052,space,2.6595,0,215,215,89,1,,,5f00d65cb69f9e20f144e404,643916325c9eb520c954923f,2023-04-14_10h02.16.960,PRaM,2021.2.3,MacIntel,60.0024001,61b8f3437b89212fae0dfade
8,27.9205,space,26.26,0,216,216,280,1,,,5f00d65cb69f9e20f144e404,643916325c9eb520c954923f,2023-04-14_10h02.16.960,PRaM,2021.2.3,MacIntel,60.0024001,61b8f3437b89212fae0dfade
5,1.7043,space,0.0886,0,217,217,167,1,,,5f00d65cb69f9e20f144e404,643916325c9eb520c954923f,2023-04-14_10h02.16.960,PRaM,2021.2.3,MacIntel,60.0024001,61b8f3437b89212fae0dfade
3,2.2728,space,0.7223,0,218,218,368,1,,,5f00d65cb69f9e20f144e404,643916325c9eb520c954923f,2023-04-14_10h02.16.960,PRaM,2021.2.3,MacIntel,60.0024001,61b8f3437b89212fae0dfade
3,3.4446,space,1.8881,0,219,219,30,1,,,5f00d65cb69f9e20f144e404,643916325c9eb520c954923f,2023-04-14_10h02.16.960,PRaM,2021.2.3,MacIntel,60.0024001,61b8f3437b89212fae0dfade
5,2.685,space,0.8869,0,220,220,356,1,,,5f00d65cb69f9e20f144e404,643916325c9eb520c954923f,2023-04-14_10h02.16.960,PRaM,2021.2.3,MacIntel,60.0024001,61b8f3437b89212fae0dfade
6,2.0057,space,0.2411,0,221,221,104,1,,,5f00d65cb69f9e20f144e404,643916325c9eb520c954923f,2023-04-14_10h02.16.960,PRaM,2021.2.3,MacIntel,60.0024001,61b8f3437b89212fae0dfade
7,1.9539,space,0.0354,0,222,222,53,1,,,5f00d65cb69f9e20f144e404,643916325c9eb520c954923f,2023-04-14_10h02.16.960,PRaM,2021.2.3,MacIntel,60.0024001,61b8f3437b89212fae0dfade
7,1.9562,space,0.2524,0,223,223,221,1,,,5f00d65cb69f9e20f144e404,643916325c9eb520c954923f,2023-04-14_10h02.16.960,PRaM,2021.2.3,MacIntel,60.0024001,61b8f3437b89212fae0dfade
1,3.0027,space,1.3852,0,224,224,50,1,,,5f00d65cb69f9e20f144e404,643916325c9eb520c954923f,2023-04-14_10h02.16.960,PRaM,2021.2.3,MacIntel,60.0024001,61b8f3437b89212fae0dfade
5,2.2857,space,0.5582,0,225,225,176,1,,,5f00d65cb69f9e20f144e404,643916325c9eb520c954923f,2023-04-14_10h02.16.960,PRaM,2021.2.3,MacIntel,60.0024001,61b8f3437b89212fae0dfade
4,1.8044,space,0.4157,0,226,226,265,1,,,5f00d65cb69f9e20f144e404,643916325c9eb520c954923f,2023-04-14_10h02.16.960,PRaM,2021.2.3,MacIntel,60.0024001,61b8f3437b89212fae0dfade
7,46.9301,space,45.2623,0,227,227,269,1,,,5f00d65cb69f9e20f144e404,643916325c9eb520c954923f,2023-04-14_10h02.16.960,PRaM,2021.2.3,MacIntel,60.0024001,61b8f3437b89212fae0dfade
8,1.9188,space,0.2977,0,228,228,192,1,,,5f00d65cb69f9e20f144e404,643916325c9eb520c954923f,2023-04-14_10h02.16.960,PRaM,2021.2.3,MacIntel,60.0024001,61b8f3437b89212fae0dfade
3,17.8426,space,16.0841,0,229,229,144,1,,,5f00d65cb69f9e20f144e404,643916325c9eb520c954923f,2023-04-14_10h02.16.960,PRaM,2021.2.3,MacIntel,60.0024001,61b8f3437b89212fae0dfade
8,3.4546,space,1.7067,0,230,230,328,1,,,5f00d65cb69f9e20f144e404,643916325c9eb520c954923f,2023-04-14_10h02.16.960,PRaM,2021.2.3,MacIntel,60.0024001,61b8f3437b89212fae0dfade
8,1.3697,space,0.3282,0,231,231,33,1,,,5f00d65cb69f9e20f144e404,643916325c9eb520c954923f,2023-04-14_10h02.16.960,PRaM,2021.2.3,MacIntel,60.0024001,61b8f3437b89212fae0dfade
8,3.7363,space,1.9891,0,232,232,59,1,,,5f00d65cb69f9e20f144e404,643916325c9eb520c954923f,2023-04-14_10h02.16.960,PRaM,2021.2.3,MacIntel,60.0024001,61b8f3437b89212fae0dfade
9,3.064,space,1.381,0,233,233,242,1,,,5f00d65cb69f9e20f144e404,643916325c9eb520c954923f,2023-04-14_10h02.16.960,PRaM,2021.2.3,MacIntel,60.0024001,61b8f3437b89212fae0dfade
7,2.4549,space,0.5687,0,234,234,12,1,,,5f00d65cb69f9e20f144e404,643916325c9eb520c954923f,2023-04-14_10h02.16.960,PRaM,2021.2.3,MacIntel,60.0024001,61b8f3437b89212fae0dfade
7,1.4582,space,0.3506,0,235,235,196,1,,,5f00d65cb69f9e20f144e404,643916325c9eb520c954923f,2023-04-14_10h02.16.960,PRaM,2021.2.3,MacIntel,60.0024001,61b8f3437b89212fae0dfade
8,2.0885,space,0.2613,0,236,236,136,1,,,5f00d65cb69f9e20f144e404,643916325c9eb520c954923f,2023-04-14_10h02.16.960,PRaM,2021.2.3,MacIntel,60.0024001,61b8f3437b89212fae0dfade
7,2.039,space,0.7354,0,237,237,228,1,,,5f00d65cb69f9e20f144e404,643916325c9eb520c954923f,2023-04-14_10h02.16.960,PRaM,2021.2.3,MacIntel,60.0024001,61b8f3437b89212fae0dfade
6,1.7216,space,0.5687,0,238,238,153,1,,,5f00d65cb69f9e20f144e404,643916325c9eb520c954923f,2023-04-14_10h02.16.960,PRaM,2021.2.3,MacIntel,60.0024001,61b8f3437b89212fae0dfade
3,4.7214,space,3.018,0,239,239,158,1,,,5f00d65cb69f9e20f144e404,643916325c9eb520c954923f,2023-04-14_10h02.16.960,PRaM,2021.2.3,MacIntel,60.0024001,61b8f3437b89212fae0dfade
6,12.4864,space,10.7432,0,240,240,255,1,,,5f00d65cb69f9e20f144e404,643916325c9eb520c954923f,2023-04-14_10h02.16.960,PRaM,2021.2.3,MacIntel,60.0024001,61b8f3437b89212fae0dfade
7,2.7846,space,0.8535,0,241,241,197,1,,,5f00d65cb69f9e20f144e404,643916325c9eb520c954923f,2023-04-14_10h02.16.960,PRaM,2021.2.3,MacIntel,60.0024001,61b8f3437b89212fae0dfade
7,1.2195,space,0.7202,0,242,242,347,1,,,5f00d65cb69f9e20f144e404,643916325c9eb520c954923f,2023-04-14_10h02.16.960,PRaM,2021.2.3,MacIntel,60.0024001,61b8f3437b89212fae0dfade
5,1.8543,space,0.1055,0,243,243,26,1,,,5f00d65cb69f9e20f144e404,643916325c9eb520c954923f,2023-04-14_10h02.16.960,PRaM,2021.2.3,MacIntel,60.0024001,61b8f3437b89212fae0dfade
6,4.8198,space,2.9274,0,244,244,56,1,,,5f00d65cb69f9e20f144e404,643916325c9eb520c954923f,2023-04-14_10h02.16.960,PRaM,2021.2.3,MacIntel,60.0024001,61b8f3437b89212fae0dfade
6,2.9968,space,1.6127,0,245,245,1,1,,,5f00d65cb69f9e20f144e404,643916325c9eb520c954923f,2023-04-14_10h02.16.960,PRaM,2021.2.3,MacIntel,60.0024001,61b8f3437b89212fae0dfade
7,1.4705,space,0.4722,0,246,246,233,1,,,5f00d65cb69f9e20f144e404,643916325c9eb520c954923f,2023-04-14_10h02.16.960,PRaM,2021.2.3,MacIntel,60.0024001,61b8f3437b89212fae0dfade
8,1.2715,space,0.9794,0,247,247,211,1,,,5f00d65cb69f9e20f144e404,643916325c9eb520c954923f,2023-04-14_10h02.16.960,PRaM,2021.2.3,MacIntel,60.0024001,61b8f3437b89212fae0dfade
6,2.2049,space,1.0757,0,248,248,355,1,,,5f00d65cb69f9e20f144e404,643916325c9eb520c954923f,2023-04-14_10h02.16.960,PRaM,2021.2.3,MacIntel,60.0024001,61b8f3437b89212fae0dfade
5,2.7542,space,1.1166,0,249,249,170,1,,,5f00d65cb69f9e20f144e404,643916325c9eb520c954923f,2023-04-14_10h02.16.960,PRaM,2021.2.3,MacIntel,60.0024001,61b8f3437b89212fae0dfade
7,2.8574,space,0.9407,0,250,250,112,1,,,5f00d65cb69f9e20f144e404,643916325c9eb520c954923f,2023-04-14_10h02.16.960,PRaM,2021.2.3,MacIntel,60.0024001,61b8f3437b89212fae0dfade
6,2.0028,space,0.1174,0,251,251,127,1,,,5f00d65cb69f9e20f144e404,643916325c9eb520c954923f,2023-04-14_10h02.16.960,PRaM,2021.2.3,MacIntel,60.0024001,61b8f3437b89212fae0dfade
8,1.6203,space,0.4347,0,252,252,43,1,,,5f00d65cb69f9e20f144e404,643916325c9eb520c954923f,2023-04-14_10h02.16.960,PRaM,2021.2.3,MacIntel,60.0024001,61b8f3437b89212fae0dfade
6,3.5889,space,1.7547,0,253,253,165,1,,,5f00d65cb69f9e20f144e404,643916325c9eb520c954923f,2023-04-14_10h02.16.960,PRaM,2021.2.3,MacIntel,60.0024001,61b8f3437b89212fae0dfade
6,32.7971,space,32.0898,0,254,254,47,1,,,5f00d65cb69f9e20f144e404,643916325c9eb520c954923f,2023-04-14_10h02.16.960,PRaM,2021.2.3,MacIntel,60.0024001,61b8f3437b89212fae0dfade
4,31.1612,space,29.7351,0,255,255,11,1,,,5f00d65cb69f9e20f144e404,643916325c9eb520c954923f,2023-04-14_10h02.16.960,PRaM,2021.2.3,MacIntel,60.0024001,61b8f3437b89212fae0dfade
7,7.0023,space,9.0018,0,256,256,325,1,,,5f00d65cb69f9e20f144e404,643916325c9eb520c954923f,2023-04-14_10h02.16.960,PRaM,2021.2.3,MacIntel,60.0024001,61b8f3437b89212fae0dfade
2,3.2636,space,1.6426,0,257,257,113,1,,,5f00d65cb69f9e20f144e404,643916325c9eb520c954923f,2023-04-14_10h02.16.960,PRaM,2021.2.3,MacIntel,60.0024001,61b8f3437b89212fae0dfade
6,4.172,space,2.5852,0,258,258,263,1,,,5f00d65cb69f9e20f144e404,643916325c9eb520c954923f,2023-04-14_10h02.16.960,PRaM,2021.2.3,MacIntel,60.0024001,61b8f3437b89212fae0dfade
7,2.2867,space,0.7635,0,259,259,93,1,,,5f00d65cb69f9e20f144e404,643916325c9eb520c954923f,2023-04-14_10h02.16.960,PRaM,2021.2.3,MacIntel,60.0024001,61b8f3437b89212fae0dfade
4,23.9524,space,23.3289,0,260,260,41,1,,,5f00d65cb69f9e20f144e404,643916325c9eb520c954923f,2023-04-14_10h02.16.960,PRaM,2021.2.3,MacIntel,60.0024001,61b8f3437b89212fae0dfade
6,2.1063,space,0.422,0,261,261,343,1,,,5f00d65cb69f9e20f144e404,643916325c9eb520c954923f,2023-04-14_10h02.16.960,PRaM,2021.2.3,MacIntel,60.0024001,61b8f3437b89212fae0dfade
6,1.1237,space,1.156,0,262,262,278,1,,,5f00d65cb69f9e20f144e404,643916325c9eb520c954923f,2023-04-14_10h02.16.960,PRaM,2021.2.3,MacIntel,60.0024001,61b8f3437b89212fae0dfade
3,4.2193,space,2.5196,0,263,263,253,1,,,5f00d65cb69f9e20f144e404,643916325c9eb520c954923f,2023-04-14_10h02.16.960,PRaM,2021.2.3,MacIntel,60.0024001,61b8f3437b89212fae0dfade
8,2.1059,space,0.5382,0,264,264,17,1,,,5f00d65cb69f9e20f144e404,643916325c9eb520c954923f,2023-04-14_10h02.16.960,PRaM,2021.2.3,MacIntel,60.0024001,61b8f3437b89212fae0dfade
5,2.0212,space,0.3866,0,265,265,124,1,,,5f00d65cb69f9e20f144e404,643916325c9eb520c954923f,2023-04-14_10h02.16.960,PRaM,2021.2.3,MacIntel,60.0024001,61b8f3437b89212fae0dfade
2,2.5547,space,0.7693,0,266,266,122,1,,,5f00d65cb69f9e20f144e404,643916325c9eb520c954923f,2023-04-14_10h02.16.960,PRaM,2021.2.3,MacIntel,60.0024001,61b8f3437b89212fae0dfade
6,2.1709,space,0.4928,0,267,267,40,1,,,5f00d65cb69f9e20f144e404,643916325c9eb520c954923f,2023-04-14_10h02.16.960,PRaM,2021.2.3,MacIntel,60.0024001,61b8f3437b89212fae0dfade
5,1.4563,space,0.0862,0,268,268,332,1,,,5f00d65cb69f9e20f144e404,643916325c9eb520c954923f,2023-04-14_10h02.16.960,PRaM,2021.2.3,MacIntel,60.0024001,61b8f3437b89212fae0dfade
6,3.0372,space,1.2178,0,269,269,6,1,,,5f00d65cb69f9e20f144e404,643916325c9eb520c954923f,2023-04-14_10h02.16.960,PRaM,2021.2.3,MacIntel,60.0024001,61b8f3437b89212fae0dfade
6,2.053,space,0.3463,0,270,270,266,1,,,5f00d65cb69f9e20f144e404,643916325c9eb520c954923f,2023-04-14_10h02.16.960,PRaM,2021.2.3,MacIntel,60.0024001,61b8f3437b89212fae0dfade
7,2.5708,space,0.918,0,271,271,264,1,,,5f00d65cb69f9e20f144e404,643916325c9eb520c954923f,2023-04-14_10h02.16.960,PRaM,2021.2.3,MacIntel,60.0024001,61b8f3437b89212fae0dfade
6,4.1107,space,2.4525,0,272,272,86,1,,,5f00d65cb69f9e20f144e404,643916325c9eb520c954923f,2023-04-14_10h02.16.960,PRaM,2021.2.3,MacIntel,60.0024001,61b8f3437b89212fae0dfade
9,1.686,space,0.2718,0,273,273,276,1,,,5f00d65cb69f9e20f144e404,643916325c9eb520c954923f,2023-04-14_10h02.16.960,PRaM,2021.2.3,MacIntel,60.0024001,61b8f3437b89212fae0dfade
4,2.189,space,0.5177,0,274,274,303,1,,,5f00d65cb69f9e20f144e404,643916325c9eb520c954923f,2023-04-14_10h02.16.960,PRaM,2021.2.3,MacIntel,60.0024001,61b8f3437b89212fae0dfade
7,2.1539,space,0.3694,0,275,275,4,1,,,5f00d65cb69f9e20f144e404,643916325c9eb520c954923f,2023-04-14_10h02.16.960,PRaM,2021.2.3,MacIntel,60.0024001,61b8f3437b89212fae0dfade
7,20.998,space,19.772,0,276,276,90,1,,,5f00d65cb69f9e20f144e404,643916325c9eb520c954923f,2023-04-14_10h02.16.960,PRaM,2021.2.3,MacIntel,60.0024001,61b8f3437b89212fae0dfade
6,1.8908,space,1.1045,0,277,277,119,1,,,5f00d65cb69f9e20f144e404,643916325c9eb520c954923f,2023-04-14_10h02.16.960,PRaM,2021.2.3,MacIntel,60.0024001,61b8f3437b89212fae0dfade
5,2.6199,space,0.8701,0,278,278,311,1,,,5f00d65cb69f9e20f144e404,643916325c9eb520c954923f,2023-04-14_10h02.16.960,PRaM,2021.2.3,MacIntel,60.0024001,61b8f3437b89212fae0dfade
4,1.8677,space,0.3947,0,279,279,148,1,,,5f00d65cb69f9e20f144e404,643916325c9eb520c954923f,2023-04-14_10h02.16.960,PRaM,2021.2.3,MacIntel,60.0024001,61b8f3437b89212fae0dfade
7,1.7209,space,0.0062,0,280,280,366,1,,,5f00d65cb69f9e20f144e404,643916325c9eb520c954923f,2023-04-14_10h02.16.960,PRaM,2021.2.3,MacIntel,60.0024001,61b8f3437b89212fae0dfade
7,1.5207,space,0.158,0,281,281,320,1,,,5f00d65cb69f9e20f144e404,643916325c9eb520c954923f,2023-04-14_10h02.16.960,PRaM,2021.2.3,MacIntel,60.0024001,61b8f3437b89212fae0dfade
2,6.2777,space,4.5288,0,282,282,231,1,,,5f00d65cb69f9e20f144e404,643916325c9eb520c954923f,2023-04-14_10h02.16.960,PRaM,2021.2.3,MacIntel,60.0024001,61b8f3437b89212fae0dfade
8,1.8377,space,0.14,0,283,283,326,1,,,5f00d65cb69f9e20f144e404,643916325c9eb520c954923f,2023-04-14_10h02.16.960,PRaM,2021.2.3,MacIntel,60.0024001,61b8f3437b89212fae0dfade
2,3.1377,space,1.5507,0,284,284,234,1,,,5f00d65cb69f9e20f144e404,643916325c9eb520c954923f,2023-04-14_10h02.16.960,PRaM,2021.2.3,MacIntel,60.0024001,61b8f3437b89212fae0dfade
6,3.0536,space,1.7303,0,285,285,230,1,,,5f00d65cb69f9e20f144e404,643916325c9eb520c954923f,2023-04-14_10h02.16.960,PRaM,2021.2.3,MacIntel,60.0024001,61b8f3437b89212fae0dfade
3,3.0041,space,1.4084,0,286,286,135,1,,,5f00d65cb69f9e20f144e404,643916325c9eb520c954923f,2023-04-14_10h02.16.960,PRaM,2021.2.3,MacIntel,60.0024001,61b8f3437b89212fae0dfade
8,3.7366,space,2.0843,0,287,287,115,1,,,5f00d65cb69f9e20f144e404,643916325c9eb520c954923f,2023-04-14_10h02.16.960,PRaM,2021.2.3,MacIntel,60.0024001,61b8f3437b89212fae0dfade
3,1.7881,space,4.512,0,288,288,155,1,,,5f00d65cb69f9e20f144e404,643916325c9eb520c954923f,2023-04-14_10h02.16.960,PRaM,2021.2.3,MacIntel,60.0024001,61b8f3437b89212fae0dfade
8,2.432,space,0.8246,0,289,289,372,1,,,5f00d65cb69f9e20f144e404,643916325c9eb520c954923f,2023-04-14_10h02.16.960,PRaM,2021.2.3,MacIntel,60.0024001,61b8f3437b89212fae0dfade
4,45.8269,space,44.2071,0,290,290,227,1,,,5f00d65cb69f9e20f144e404,643916325c9eb520c954923f,2023-04-14_10h02.16.960,PRaM,2021.2.3,MacIntel,60.0024001,61b8f3437b89212fae0dfade
5,4.9221,space,3.2703,0,291,291,191,1,,,5f00d65cb69f9e20f144e404,643916325c9eb520c954923f,2023-04-14_10h02.16.960,PRaM,2021.2.3,MacIntel,60.0024001,61b8f3437b89212fae0dfade
1,4.0543,space,2.5895,0,292,292,190,1,,,5f00d65cb69f9e20f144e404,643916325c9eb520c954923f,2023-04-14_10h02.16.960,PRaM,2021.2.3,MacIntel,60.0024001,61b8f3437b89212fae0dfade
6,1.6207,space,0.6343,0,293,293,274,1,,,5f00d65cb69f9e20f144e404,643916325c9eb520c954923f,2023-04-14_10h02.16.960,PRaM,2021.2.3,MacIntel,60.0024001,61b8f3437b89212fae0dfade
8,4.0235,space,2.3403,0,294,294,363,1,,,5f00d65cb69f9e20f144e404,643916325c9eb520c954923f,2023-04-14_10h02.16.960,PRaM,2021.2.3,MacIntel,60.0024001,61b8f3437b89212fae0dfade
5,1.7712,space,0.0315,0,295,295,374,1,,,5f00d65cb69f9e20f144e404,643916325c9eb520c954923f,2023-04-14_10h02.16.960,PRaM,2021.2.3,MacIntel,60.0024001,61b8f3437b89212fae0dfade
6,9.7486,space,8.0979,0,296,296,98,1,,,5f00d65cb69f9e20f144e404,643916325c9eb520c954923f,2023-04-14_10h02.16.960,PRaM,2021.2.3,MacIntel,60.0024001,61b8f3437b89212fae0dfade
3,2.6215,space,1.0351,0,297,297,212,1,,,5f00d65cb69f9e20f144e404,643916325c9eb520c954923f,2023-04-14_10h02.16.960,PRaM,2021.2.3,MacIntel,60.0024001,61b8f3437b89212fae0dfade
8,4.4745,space,3.4169,0,298,298,120,1,,,5f00d65cb69f9e20f144e404,643916325c9eb520c954923f,2023-04-14_10h02.16.960,PRaM,2021.2.3,MacIntel,60.0024001,61b8f3437b89212fae0dfade
1,2.5459,space,0.8181,0,299,299,339,1,,,5f00d65cb69f9e20f144e404,643916325c9eb520c954923f,2023-04-14_10h02.16.960,PRaM,2021.2.3,MacIntel,60.0024001,61b8f3437b89212fae0dfade
7,2.5516,space,0.8088,0,300,300,82,1,,,5f00d65cb69f9e20f144e404,643916325c9eb520c954923f,2023-04-14_10h02.16.960,PRaM,2021.2.3,MacIntel,60.0024001,61b8f3437b89212fae0dfade
6,1.4718,space,0.3181,0,301,301,178,1,,,5f00d65cb69f9e20f144e404,643916325c9eb520c954923f,2023-04-14_10h02.16.960,PRaM,2021.2.3,MacIntel,60.0024001,61b8f3437b89212fae0dfade
3,2.0222,space,0.3687,0,302,302,2,1,,,5f00d65cb69f9e20f144e404,643916325c9eb520c954923f,2023-04-14_10h02.16.960,PRaM,2021.2.3,MacIntel,60.0024001,61b8f3437b89212fae0dfade
1,3.9574,space,2.4872,0,303,303,295,1,,,5f00d65cb69f9e20f144e404,643916325c9eb520c954923f,2023-04-14_10h02.16.960,PRaM,2021.2.3,MacIntel,60.0024001,61b8f3437b89212fae0dfade
6,2.9546,space,1.2024,0,304,304,251,1,,,5f00d65cb69f9e20f144e404,643916325c9eb520c954923f,2023-04-14_10h02.16.960,PRaM,2021.2.3,MacIntel,60.0024001,61b8f3437b89212fae0dfade
6,3.5432,space,1.7607,0,305,305,226,1,,,5f00d65cb69f9e20f144e404,643916325c9eb520c954923f,2023-04-14_10h02.16.960,PRaM,2021.2.3,MacIntel,60.0024001,61b8f3437b89212fae0dfade
5,1.6368,space,0.7008,0,306,306,187,1,,,5f00d65cb69f9e20f144e404,643916325c9eb520c954923f,2023-04-14_10h02.16.960,PRaM,2021.2.3,MacIntel,60.0024001,61b8f3437b89212fae0dfade
5,16.3462,space,14.7043,0,307,307,376,1,,,5f00d65cb69f9e20f144e404,643916325c9eb520c954923f,2023-04-14_10h02.16.960,PRaM,2021.2.3,MacIntel,60.0024001,61b8f3437b89212fae0dfade
4,2.0193,space,22.5716,0,308,308,268,1,,,5f00d65cb69f9e20f144e404,643916325c9eb520c954923f,2023-04-14_10h02.16.960,PRaM,2021.2.3,MacIntel,60.0024001,61b8f3437b89212fae0dfade
7,1.5278,space,1.3583,0,309,309,279,1,,,5f00d65cb69f9e20f144e404,643916325c9eb520c954923f,2023-04-14_10h02.16.960,PRaM,2021.2.3,MacIntel,60.0024001,61b8f3437b89212fae0dfade
4,26.0723,space,24.5224,0,310,310,128,1,,,5f00d65cb69f9e20f144e404,643916325c9eb520c954923f,2023-04-14_10h02.16.960,PRaM,2021.2.3,MacIntel,60.0024001,61b8f3437b89212fae0dfade
6,3.0022,space,1.3042,0,311,311,352,1,,,5f00d65cb69f9e20f144e404,643916325c9eb520c954923f,2023-04-14_10h02.16.960,PRaM,2021.2.3,MacIntel,60.0024001,61b8f3437b89212fae0dfade
3,15.4592,space,13.8094,0,312,312,345,1,,,5f00d65cb69f9e20f144e404,643916325c9eb520c954923f,2023-04-14_10h02.16.960,PRaM,2021.2.3,MacIntel,60.0024001,61b8f3437b89212fae0dfade
3,1.4035,space,0.6538,0,313,313,287,1,,,5f00d65cb69f9e20f144e404,643916325c9eb520c954923f,2023-04-14_10h02.16.960,PRaM,2021.2.3,MacIntel,60.0024001,61b8f3437b89212fae0dfade
9,1.9048,space,0.2357,0,314,314,323,1,,,5f00d65cb69f9e20f144e404,643916325c9eb520c954923f,2023-04-14_10h02.16.960,PRaM,2021.2.3,MacIntel,60.0024001,61b8f3437b89212fae0dfade
8,1.3691,space,0.6792,0,315,315,334,1,,,5f00d65cb69f9e20f144e404,643916325c9eb520c954923f,2023-04-14_10h02.16.960,PRaM,2021.2.3,MacIntel,60.0024001,61b8f3437b89212fae0dfade
2,2.9902,space,1.2866,0,316,316,203,1,,,5f00d65cb69f9e20f144e404,643916325c9eb520c954923f,2023-04-14_10h02.16.960,PRaM,2021.2.3,MacIntel,60.0024001,61b8f3437b89212fae0dfade
2,1.1032,space,4.4017,0,317,317,58,1,,,5f00d65cb69f9e20f144e404,643916325c9eb520c954923f,2023-04-14_10h02.16.960,PRaM,2021.2.3,MacIntel,60.0024001,61b8f3437b89212fae0dfade
5,1.7778,space,0.0893,0,318,318,362,1,,,5f00d65cb69f9e20f144e404,643916325c9eb520c954923f,2023-04-14_10h02.16.960,PRaM,2021.2.3,MacIntel,60.0024001,61b8f3437b89212fae0dfade
7,10.9876,space,9.5768,0,319,319,84,1,,,5f00d65cb69f9e20f144e404,643916325c9eb520c954923f,2023-04-14_10h02.16.960,PRaM,2021.2.3,MacIntel,60.0024001,61b8f3437b89212fae0dfade
3,4.9284,space,3.2966,0,320,320,330,1,,,5f00d65cb69f9e20f144e404,643916325c9eb520c954923f,2023-04-14_10h02.16.960,PRaM,2021.2.3,MacIntel,60.0024001,61b8f3437b89212fae0dfade
8,8.2066,space,6.6582,0,321,321,291,1,,,5f00d65cb69f9e20f144e404,643916325c9eb520c954923f,2023-04-14_10h02.16.960,PRaM,2021.2.3,MacIntel,60.0024001,61b8f3437b89212fae0dfade
7,2.6872,space,1.0412,0,322,322,0,1,,,5f00d65cb69f9e20f144e404,643916325c9eb520c954923f,2023-04-14_10h02.16.960,PRaM,2021.2.3,MacIntel,60.0024001,61b8f3437b89212fae0dfade
7,1.3554,space,0.2108,0,323,323,132,1,,,5f00d65cb69f9e20f144e404,643916325c9eb520c954923f,2023-04-14_10h02.16.960,PRaM,2021.2.3,MacIntel,60.0024001,61b8f3437b89212fae0dfade
6,3.2027,space,1.4274,0,324,324,205,1,,,5f00d65cb69f9e20f144e404,643916325c9eb520c954923f,2023-04-14_10h02.16.960,PRaM,2021.2.3,MacIntel,60.0024001,61b8f3437b89212fae0dfade
6,1.5546,space,0.1133,0,325,325,168,1,,,5f00d65cb69f9e20f144e404,643916325c9eb520c954923f,2023-04-14_10h02.16.960,PRaM,2021.2.3,MacIntel,60.0024001,61b8f3437b89212fae0dfade
3,5.5887,space,3.9229,0,326,326,283,1,,,5f00d65cb69f9e20f144e404,643916325c9eb520c954923f,2023-04-14_10h02.16.960,PRaM,2021.2.3,MacIntel,60.0024001,61b8f3437b89212fae0dfade
3,2.6709,space,38.9743,0,327,327,36,1,,,5f00d65cb69f9e20f144e404,643916325c9eb520c954923f,2023-04-14_10h02.16.960,PRaM,2021.2.3,MacIntel,60.0024001,61b8f3437b89212fae0dfade
3,1.2964,space,0.3676,0,328,328,284,1,,,5f00d65cb69f9e20f144e404,643916325c9eb520c954923f,2023-04-14_10h02.16.960,PRaM,2021.2.3,MacIntel,60.0024001,61b8f3437b89212fae0dfade
2,1.8022,space,0.0703,0,329,329,300,1,,,5f00d65cb69f9e20f144e404,643916325c9eb520c954923f,2023-04-14_10h02.16.960,PRaM,2021.2.3,MacIntel,60.0024001,61b8f3437b89212fae0dfade
8,2.1059,space,0.4051,0,330,330,271,1,,,5f00d65cb69f9e20f144e404,643916325c9eb520c954923f,2023-04-14_10h02.16.960,PRaM,2021.2.3,MacIntel,60.0024001,61b8f3437b89212fae0dfade
2,3.2112,space,1.3686,0,331,331,111,1,,,5f00d65cb69f9e20f144e404,643916325c9eb520c954923f,2023-04-14_10h02.16.960,PRaM,2021.2.3,MacIntel,60.0024001,61b8f3437b89212fae0dfade
6,2.736,space,1.0589,0,332,332,359,1,,,5f00d65cb69f9e20f144e404,643916325c9eb520c954923f,2023-04-14_10h02.16.960,PRaM,2021.2.3,MacIntel,60.0024001,61b8f3437b89212fae0dfade
6,1.3725,space,0.2179,0,333,333,126,1,,,5f00d65cb69f9e20f144e404,643916325c9eb520c954923f,2023-04-14_10h02.16.960,PRaM,2021.2.3,MacIntel,60.0024001,61b8f3437b89212fae0dfade
1,2.1872,space,0.4794,0,334,334,189,1,,,5f00d65cb69f9e20f144e404,643916325c9eb520c954923f,2023-04-14_10h02.16.960,PRaM,2021.2.3,MacIntel,60.0024001,61b8f3437b89212fae0dfade
7,2.2694,space,1.0257,0,335,335,333,1,,,5f00d65cb69f9e20f144e404,643916325c9eb520c954923f,2023-04-14_10h02.16.960,PRaM,2021.2.3,MacIntel,60.0024001,61b8f3437b89212fae0dfade
8,14.676,space,12.9912,0,336,336,282,1,,,5f00d65cb69f9e20f144e404,643916325c9eb520c954923f,2023-04-14_10h02.16.960,PRaM,2021.2.3,MacIntel,60.0024001,61b8f3437b89212fae0dfade
8,2.5371,space,1.137,0,337,337,71,1,,,5f00d65cb69f9e20f144e404,643916325c9eb520c954923f,2023-04-14_10h02.16.960,PRaM,2021.2.3,MacIntel,60.0024001,61b8f3437b89212fae0dfade
3,2.5207,space,0.7774,0,338,338,171,1,,,5f00d65cb69f9e20f144e404,643916325c9eb520c954923f,2023-04-14_10h02.16.960,PRaM,2021.2.3,MacIntel,60.0024001,61b8f3437b89212fae0dfade
7,3.4387,space,1.7685,0,339,339,102,1,,,5f00d65cb69f9e20f144e404,643916325c9eb520c954923f,2023-04-14_10h02.16.960,PRaM,2021.2.3,MacIntel,60.0024001,61b8f3437b89212fae0dfade
2,3.521,space,2.1529,0,340,340,68,1,,,5f00d65cb69f9e20f144e404,643916325c9eb520c954923f,2023-04-14_10h02.16.960,PRaM,2021.2.3,MacIntel,60.0024001,61b8f3437b89212fae0dfade
6,2.8042,space,1.4262,0,341,341,223,1,,,5f00d65cb69f9e20f144e404,643916325c9eb520c954923f,2023-04-14_10h02.16.960,PRaM,2021.2.3,MacIntel,60.0024001,61b8f3437b89212fae0dfade
7,34.172,space,32.6828,0,342,342,75,1,,,5f00d65cb69f9e20f144e404,643916325c9eb520c954923f,2023-04-14_10h02.16.960,PRaM,2021.2.3,MacIntel,60.0024001,61b8f3437b89212fae0dfade
4,16.8142,space,15.8999,0,343,343,354,1,,,5f00d65cb69f9e20f144e404,643916325c9eb520c954923f,2023-04-14_10h02.16.960,PRaM,2021.2.3,MacIntel,60.0024001,61b8f3437b89212fae0dfade
4,1.6054,space,15.3235,0,344,344,116,1,,,5f00d65cb69f9e20f144e404,643916325c9eb520c954923f,2023-04-14_10h02.16.960,PRaM,2021.2.3,MacIntel,60.0024001,61b8f3437b89212fae0dfade
5,1.4607,space,0.122,0,345,345,299,1,,,5f00d65cb69f9e20f144e404,643916325c9eb520c954923f,2023-04-14_10h02.16.960,PRaM,2021.2.3,MacIntel,60.0024001,61b8f3437b89212fae0dfade
5,1.1039,space,0.8015,0,346,346,357,1,,,5f00d65cb69f9e20f144e404,643916325c9eb520c954923f,2023-04-14_10h02.16.960,PRaM,2021.2.3,MacIntel,60.0024001,61b8f3437b89212fae0dfade
5,2.1222,space,0.3107,0,347,347,76,1,,,5f00d65cb69f9e20f144e404,643916325c9eb520c954923f,2023-04-14_10h02.16.960,PRaM,2021.2.3,MacIntel,60.0024001,61b8f3437b89212fae0dfade
7,2.1907,space,0.5197,0,348,348,46,1,,,5f00d65cb69f9e20f144e404,643916325c9eb520c954923f,2023-04-14_10h02.16.960,PRaM,2021.2.3,MacIntel,60.0024001,61b8f3437b89212fae0dfade
6,2.7135,space,1.1513,0,349,349,235,1,,,5f00d65cb69f9e20f144e404,643916325c9eb520c954923f,2023-04-14_10h02.16.960,PRaM,2021.2.3,MacIntel,60.0024001,61b8f3437b89212fae0dfade
5,5.6387,space,4.0219,0,350,350,20,1,,,5f00d65cb69f9e20f144e404,643916325c9eb520c954923f,2023-04-14_10h02.16.960,PRaM,2021.2.3,MacIntel,60.0024001,61b8f3437b89212fae0dfade
2,2.0538,space,0.6702,0,351,351,188,1,,,5f00d65cb69f9e20f144e404,643916325c9eb520c954923f,2023-04-14_10h02.16.960,PRaM,2021.2.3,MacIntel,60.0024001,61b8f3437b89212fae0dfade
2,1.2534,space,17.0483,0,352,352,369,1,,,5f00d65cb69f9e20f144e404,643916325c9eb520c954923f,2023-04-14_10h02.16.960,PRaM,2021.2.3,MacIntel,60.0024001,61b8f3437b89212fae0dfade
2,1.3796,space,0.2849,0,353,353,129,1,,,5f00d65cb69f9e20f144e404,643916325c9eb520c954923f,2023-04-14_10h02.16.960,PRaM,2021.2.3,MacIntel,60.0024001,61b8f3437b89212fae0dfade
7,6.6389,space,5.1686,0,354,354,216,1,,,5f00d65cb69f9e20f144e404,643916325c9eb520c954923f,2023-04-14_10h02.16.960,PRaM,2021.2.3,MacIntel,60.0024001,61b8f3437b89212fae0dfade
8,1.6522,space,0.1367,0,355,355,239,1,,,5f00d65cb69f9e20f144e404,643916325c9eb520c954923f,2023-04-14_10h02.16.960,PRaM,2021.2.3,MacIntel,60.0024001,61b8f3437b89212fae0dfade
2,1.9703,space,0.3064,0,356,356,245,1,,,5f00d65cb69f9e20f144e404,643916325c9eb520c954923f,2023-04-14_10h02.16.960,PRaM,2021.2.3,MacIntel,60.0024001,61b8f3437b89212fae0dfade
5,1.7864,space,0.7588,0,357,357,349,1,,,5f00d65cb69f9e20f144e404,643916325c9eb520c954923f,2023-04-14_10h02.16.960,PRaM,2021.2.3,MacIntel,60.0024001,61b8f3437b89212fae0dfade
5,4.087,space,2.5178,0,358,358,201,1,,,5f00d65cb69f9e20f144e404,643916325c9eb520c954923f,2023-04-14_10h02.16.960,PRaM,2021.2.3,MacIntel,60.0024001,61b8f3437b89212fae0dfade
5,1.7087,space,1.2018,0,359,359,101,1,,,5f00d65cb69f9e20f144e404,643916325c9eb520c954923f,2023-04-14_10h02.16.960,PRaM,2021.2.3,MacIntel,60.0024001,61b8f3437b89212fae0dfade
6,1.9709,space,0.4052,0,360,360,85,1,,,5f00d65cb69f9e20f144e404,643916325c9eb520c954923f,2023-04-14_10h02.16.960,PRaM,2021.2.3,MacIntel,60.0024001,61b8f3437b89212fae0dfade
4,13.9638,space,14.6629,0,361,361,13,1,,,5f00d65cb69f9e20f144e404,643916325c9eb520c954923f,2023-04-14_10h02.16.960,PRaM,2021.2.3,MacIntel,60.0024001,61b8f3437b89212fae0dfade
4,2.7196,space,1.9455,0,362,362,109,1,,,5f00d65cb69f9e20f144e404,643916325c9eb520c954923f,2023-04-14_10h02.16.960,PRaM,2021.2.3,MacIntel,60.0024001,61b8f3437b89212fae0dfade
1,3.6768,space,1.8834,0,363,363,248,1,,,5f00d65cb69f9e20f144e404,643916325c9eb520c954923f,2023-04-14_10h02.16.960,PRaM,2021.2.3,MacIntel,60.0024001,61b8f3437b89212fae0dfade
7,2.0536,space,0.4563,0,364,364,173,1,,,5f00d65cb69f9e20f144e404,643916325c9eb520c954923f,2023-04-14_10h02.16.960,PRaM,2021.2.3,MacIntel,60.0024001,61b8f3437b89212fae0dfade
8,3.386,space,1.6211,0,365,365,285,1,,,5f00d65cb69f9e20f144e404,643916325c9eb520c954923f,2023-04-14_10h02.16.960,PRaM,2021.2.3,MacIntel,60.0024001,61b8f3437b89212fae0dfade
9,2.3216,space,0.905,0,366,366,3,1,,,5f00d65cb69f9e20f144e404,643916325c9eb520c954923f,2023-04-14_10h02.16.960,PRaM,2021.2.3,MacIntel,60.0024001,61b8f3437b89212fae0dfade
7,2.053,space,0.3729,0,367,367,194,1,,,5f00d65cb69f9e20f144e404,643916325c9eb520c954923f,2023-04-14_10h02.16.960,PRaM,2021.2.3,MacIntel,60.0024001,61b8f3437b89212fae0dfade
6,5.0612,space,3.2101,0,368,368,175,1,,,5f00d65cb69f9e20f144e404,643916325c9eb520c954923f,2023-04-14_10h02.16.960,PRaM,2021.2.3,MacIntel,60.0024001,61b8f3437b89212fae0dfade
3,2.0245,space,1.9685,0,369,369,210,1,,,5f00d65cb69f9e20f144e404,643916325c9eb520c954923f,2023-04-14_10h02.16.960,PRaM,2021.2.3,MacIntel,60.0024001,61b8f3437b89212fae0dfade
8,2.7422,space,1.0863,0,370,370,225,1,,,5f00d65cb69f9e20f144e404,643916325c9eb520c954923f,2023-04-14_10h02.16.960,PRaM,2021.2.3,MacIntel,60.0024001,61b8f3437b89212fae0dfade
6,4.261,space,2.4337,0,371,371,177,1,,,5f00d65cb69f9e20f144e404,643916325c9eb520c954923f,2023-04-14_10h02.16.960,PRaM,2021.2.3,MacIntel,60.0024001,61b8f3437b89212fae0dfade
6,1.4196,space,0.6204,0,372,372,114,1,,,5f00d65cb69f9e20f144e404,643916325c9eb520c954923f,2023-04-14_10h02.16.960,PRaM,2021.2.3,MacIntel,60.0024001,61b8f3437b89212fae0dfade
7,2.3018,space,0.6242,0,373,373,66,1,,,5f00d65cb69f9e20f144e404,643916325c9eb520c954923f,2023-04-14_10h02.16.960,PRaM,2021.2.3,MacIntel,60.0024001,61b8f3437b89212fae0dfade
1,4.6486,space,2.9544,0,374,374,318,1,,,5f00d65cb69f9e20f144e404,643916325c9eb520c954923f,2023-04-14_10h02.16.960,PRaM,2021.2.3,MacIntel,60.0024001,61b8f3437b89212fae0dfade
3,2.7364,space,0.917,0,375,375,15,1,,,5f00d65cb69f9e20f144e404,643916325c9eb520c954923f,2023-04-14_10h02.16.960,PRaM,2021.2.3,MacIntel,60.0024001,61b8f3437b89212fae0dfade
6,3.2095,space,1.7264,0,376,376,164,1,,,5f00d65cb69f9e20f144e404,643916325c9eb520c954923f,2023-04-14_10h02.16.960,PRaM,2021.2.3,MacIntel,60.0024001,61b8f3437b89212fae0dfade
7,1.9378,space,0.2343,0,377,377,74,1,,,5f00d65cb69f9e20f144e404,643916325c9eb520c954923f,2023-04-14_10h02.16.960,PRaM,2021.2.3,MacIntel,60.0024001,61b8f3437b89212fae0dfade
