Rating.response,Rating.rt,EndTrial.keys,EndTrial.rt,trials.thisRepN,trials.thisTrialN,trials.thisN,trials.thisIndex,trials.ran,Pos1,Pos2,participant,session,date,expName,psychopyVersion,OS,frameRate,study_id
6,8.1143,space,10.749,0,0,0,21,1,,,5f105b47d36c8701ec112317,6437f2ef13f46ea53ed957e8,2023-04-13_13h18.12.202,PRaM,2021.2.3,Linux x86_64,60.01680471,61b8f3437b89212fae0dfadf
3,4.4205,space,3.019,0,1,1,32,1,,,5f105b47d36c8701ec112317,6437f2ef13f46ea53ed957e8,2023-04-13_13h18.12.202,PRaM,2021.2.3,Linux x86_64,60.01680471,61b8f3437b89212fae0dfadf
8,5.0586,space,14.8337,0,2,2,137,1,,,5f105b47d36c8701ec112317,6437f2ef13f46ea53ed957e8,2023-04-13_13h18.12.202,PRaM,2021.2.3,Linux x86_64,60.01680471,61b8f3437b89212fae0dfadf
6,6.0851,space,6.9665,0,3,3,216,1,,,5f105b47d36c8701ec112317,6437f2ef13f46ea53ed957e8,2023-04-13_13h18.12.202,PRaM,2021.2.3,Linux x86_64,60.01680471,61b8f3437b89212fae0dfadf
3,2.9738,space,1.6441,0,4,4,353,1,,,5f105b47d36c8701ec112317,6437f2ef13f46ea53ed957e8,2023-04-13_13h18.12.202,PRaM,2021.2.3,Linux x86_64,60.01680471,61b8f3437b89212fae0dfadf
6,13.8355,space,12.167,0,5,5,174,1,,,5f105b47d36c8701ec112317,6437f2ef13f46ea53ed957e8,2023-04-13_13h18.12.202,PRaM,2021.2.3,Linux x86_64,60.01680471,61b8f3437b89212fae0dfadf
3,8.7742,space,7.1807,0,6,6,265,1,,,5f105b47d36c8701ec112317,6437f2ef13f46ea53ed957e8,2023-04-13_13h18.12.202,PRaM,2021.2.3,Linux x86_64,60.01680471,61b8f3437b89212fae0dfadf
7,3.0032,space,1.4381,0,7,7,274,1,,,5f105b47d36c8701ec112317,6437f2ef13f46ea53ed957e8,2023-04-13_13h18.12.202,PRaM,2021.2.3,Linux x86_64,60.01680471,61b8f3437b89212fae0dfadf
7,2.523,space,0.851,0,8,8,239,1,,,5f105b47d36c8701ec112317,6437f2ef13f46ea53ed957e8,2023-04-13_13h18.12.202,PRaM,2021.2.3,Linux x86_64,60.01680471,61b8f3437b89212fae0dfadf
4,3.1128,space,1.389,0,9,9,237,1,,,5f105b47d36c8701ec112317,6437f2ef13f46ea53ed957e8,2023-04-13_13h18.12.202,PRaM,2021.2.3,Linux x86_64,60.01680471,61b8f3437b89212fae0dfadf
6,3.8975,space,2.2381,0,10,10,301,1,,,5f105b47d36c8701ec112317,6437f2ef13f46ea53ed957e8,2023-04-13_13h18.12.202,PRaM,2021.2.3,Linux x86_64,60.01680471,61b8f3437b89212fae0dfadf
4,3.5577,space,1.9014,0,11,11,332,1,,,5f105b47d36c8701ec112317,6437f2ef13f46ea53ed957e8,2023-04-13_13h18.12.202,PRaM,2021.2.3,Linux x86_64,60.01680471,61b8f3437b89212fae0dfadf
6,2.4253,space,0.7212,0,12,12,165,1,,,5f105b47d36c8701ec112317,6437f2ef13f46ea53ed957e8,2023-04-13_13h18.12.202,PRaM,2021.2.3,Linux x86_64,60.01680471,61b8f3437b89212fae0dfadf
3,2.8247,space,1.2002,0,13,13,212,1,,,5f105b47d36c8701ec112317,6437f2ef13f46ea53ed957e8,2023-04-13_13h18.12.202,PRaM,2021.2.3,Linux x86_64,60.01680471,61b8f3437b89212fae0dfadf
7,2.743,space,1.0663,0,14,14,85,1,,,5f105b47d36c8701ec112317,6437f2ef13f46ea53ed957e8,2023-04-13_13h18.12.202,PRaM,2021.2.3,Linux x86_64,60.01680471,61b8f3437b89212fae0dfadf
4,2.9267,space,1.4178,0,15,15,227,1,,,5f105b47d36c8701ec112317,6437f2ef13f46ea53ed957e8,2023-04-13_13h18.12.202,PRaM,2021.2.3,Linux x86_64,60.01680471,61b8f3437b89212fae0dfadf
4,4.2911,space,2.7395,0,16,16,317,1,,,5f105b47d36c8701ec112317,6437f2ef13f46ea53ed957e8,2023-04-13_13h18.12.202,PRaM,2021.2.3,Linux x86_64,60.01680471,61b8f3437b89212fae0dfadf
3,2.6304,space,0.909,0,17,17,356,1,,,5f105b47d36c8701ec112317,6437f2ef13f46ea53ed957e8,2023-04-13_13h18.12.202,PRaM,2021.2.3,Linux x86_64,60.01680471,61b8f3437b89212fae0dfadf
2,2.8371,space,1.0862,0,18,18,235,1,,,5f105b47d36c8701ec112317,6437f2ef13f46ea53ed957e8,2023-04-13_13h18.12.202,PRaM,2021.2.3,Linux x86_64,60.01680471,61b8f3437b89212fae0dfadf
6,2.6398,space,2.72,0,19,19,179,1,,,5f105b47d36c8701ec112317,6437f2ef13f46ea53ed957e8,2023-04-13_13h18.12.202,PRaM,2021.2.3,Linux x86_64,60.01680471,61b8f3437b89212fae0dfadf
7,2.2932,space,0.4994,0,20,20,112,1,,,5f105b47d36c8701ec112317,6437f2ef13f46ea53ed957e8,2023-04-13_13h18.12.202,PRaM,2021.2.3,Linux x86_64,60.01680471,61b8f3437b89212fae0dfadf
8,18.0253,space,16.7835,0,21,21,117,1,,,5f105b47d36c8701ec112317,6437f2ef13f46ea53ed957e8,2023-04-13_13h18.12.202,PRaM,2021.2.3,Linux x86_64,60.01680471,61b8f3437b89212fae0dfadf
8,5.2474,space,3.5179,0,22,22,242,1,,,5f105b47d36c8701ec112317,6437f2ef13f46ea53ed957e8,2023-04-13_13h18.12.202,PRaM,2021.2.3,Linux x86_64,60.01680471,61b8f3437b89212fae0dfadf
4,7.4246,space,5.8849,0,23,23,116,1,,,5f105b47d36c8701ec112317,6437f2ef13f46ea53ed957e8,2023-04-13_13h18.12.202,PRaM,2021.2.3,Linux x86_64,60.01680471,61b8f3437b89212fae0dfadf
4,2.5661,space,0.9172,0,24,24,229,1,,,5f105b47d36c8701ec112317,6437f2ef13f46ea53ed957e8,2023-04-13_13h18.12.202,PRaM,2021.2.3,Linux x86_64,60.01680471,61b8f3437b89212fae0dfadf
3,2.147,space,0.4369,0,25,25,157,1,,,5f105b47d36c8701ec112317,6437f2ef13f46ea53ed957e8,2023-04-13_13h18.12.202,PRaM,2021.2.3,Linux x86_64,60.01680471,61b8f3437b89212fae0dfadf
9,2.928,space,1.2233,0,26,26,225,1,,,5f105b47d36c8701ec112317,6437f2ef13f46ea53ed957e8,2023-04-13_13h18.12.202,PRaM,2021.2.3,Linux x86_64,60.01680471,61b8f3437b89212fae0dfadf
5,2.6403,space,0.9014,0,27,27,371,1,,,5f105b47d36c8701ec112317,6437f2ef13f46ea53ed957e8,2023-04-13_13h18.12.202,PRaM,2021.2.3,Linux x86_64,60.01680471,61b8f3437b89212fae0dfadf
2,2.3382,space,0.5697,0,28,28,130,1,,,5f105b47d36c8701ec112317,6437f2ef13f46ea53ed957e8,2023-04-13_13h18.12.202,PRaM,2021.2.3,Linux x86_64,60.01680471,61b8f3437b89212fae0dfadf
4,2.958,space,1.2236,0,29,29,126,1,,,5f105b47d36c8701ec112317,6437f2ef13f46ea53ed957e8,2023-04-13_13h18.12.202,PRaM,2021.2.3,Linux x86_64,60.01680471,61b8f3437b89212fae0dfadf
6,3.4264,space,1.9071,0,30,30,345,1,,,5f105b47d36c8701ec112317,6437f2ef13f46ea53ed957e8,2023-04-13_13h18.12.202,PRaM,2021.2.3,Linux x86_64,60.01680471,61b8f3437b89212fae0dfadf
4,2.3628,space,0.7097,0,31,31,155,1,,,5f105b47d36c8701ec112317,6437f2ef13f46ea53ed957e8,2023-04-13_13h18.12.202,PRaM,2021.2.3,Linux x86_64,60.01680471,61b8f3437b89212fae0dfadf
3,8.6527,space,6.8183,0,32,32,177,1,,,5f105b47d36c8701ec112317,6437f2ef13f46ea53ed957e8,2023-04-13_13h18.12.202,PRaM,2021.2.3,Linux x86_64,60.01680471,61b8f3437b89212fae0dfadf
6,2.2829,space,0.6324,0,33,33,280,1,,,5f105b47d36c8701ec112317,6437f2ef13f46ea53ed957e8,2023-04-13_13h18.12.202,PRaM,2021.2.3,Linux x86_64,60.01680471,61b8f3437b89212fae0dfadf
7,3.5214,space,1.6844,0,34,34,285,1,,,5f105b47d36c8701ec112317,6437f2ef13f46ea53ed957e8,2023-04-13_13h18.12.202,PRaM,2021.2.3,Linux x86_64,60.01680471,61b8f3437b89212fae0dfadf
6,2.8535,space,1.2712,0,35,35,97,1,,,5f105b47d36c8701ec112317,6437f2ef13f46ea53ed957e8,2023-04-13_13h18.12.202,PRaM,2021.2.3,Linux x86_64,60.01680471,61b8f3437b89212fae0dfadf
3,3.4585,space,1.6922,0,36,36,293,1,,,5f105b47d36c8701ec112317,6437f2ef13f46ea53ed957e8,2023-04-13_13h18.12.202,PRaM,2021.2.3,Linux x86_64,60.01680471,61b8f3437b89212fae0dfadf
5,2.4042,space,0.7503,0,37,37,201,1,,,5f105b47d36c8701ec112317,6437f2ef13f46ea53ed957e8,2023-04-13_13h18.12.202,PRaM,2021.2.3,Linux x86_64,60.01680471,61b8f3437b89212fae0dfadf
4,2.3309,space,0.6833,0,38,38,329,1,,,5f105b47d36c8701ec112317,6437f2ef13f46ea53ed957e8,2023-04-13_13h18.12.202,PRaM,2021.2.3,Linux x86_64,60.01680471,61b8f3437b89212fae0dfadf
3,4.4925,space,2.6394,0,39,39,262,1,,,5f105b47d36c8701ec112317,6437f2ef13f46ea53ed957e8,2023-04-13_13h18.12.202,PRaM,2021.2.3,Linux x86_64,60.01680471,61b8f3437b89212fae0dfadf
4,4.3568,space,2.623,0,40,40,104,1,,,5f105b47d36c8701ec112317,6437f2ef13f46ea53ed957e8,2023-04-13_13h18.12.202,PRaM,2021.2.3,Linux x86_64,60.01680471,61b8f3437b89212fae0dfadf
5,3.4301,space,1.7032,0,41,41,238,1,,,5f105b47d36c8701ec112317,6437f2ef13f46ea53ed957e8,2023-04-13_13h18.12.202,PRaM,2021.2.3,Linux x86_64,60.01680471,61b8f3437b89212fae0dfadf
2,2.9949,space,1.5675,0,42,42,103,1,,,5f105b47d36c8701ec112317,6437f2ef13f46ea53ed957e8,2023-04-13_13h18.12.202,PRaM,2021.2.3,Linux x86_64,60.01680471,61b8f3437b89212fae0dfadf
6,2.2085,space,0.5493,0,43,43,328,1,,,5f105b47d36c8701ec112317,6437f2ef13f46ea53ed957e8,2023-04-13_13h18.12.202,PRaM,2021.2.3,Linux x86_64,60.01680471,61b8f3437b89212fae0dfadf
9,2.6756,space,1.0039,0,44,44,53,1,,,5f105b47d36c8701ec112317,6437f2ef13f46ea53ed957e8,2023-04-13_13h18.12.202,PRaM,2021.2.3,Linux x86_64,60.01680471,61b8f3437b89212fae0dfadf
6,3.0088,space,2.6177,0,45,45,361,1,,,5f105b47d36c8701ec112317,6437f2ef13f46ea53ed957e8,2023-04-13_13h18.12.202,PRaM,2021.2.3,Linux x86_64,60.01680471,61b8f3437b89212fae0dfadf
4,2.8912,space,1.1886,0,46,46,164,1,,,5f105b47d36c8701ec112317,6437f2ef13f46ea53ed957e8,2023-04-13_13h18.12.202,PRaM,2021.2.3,Linux x86_64,60.01680471,61b8f3437b89212fae0dfadf
6,2.4202,space,0.6713,0,47,47,88,1,,,5f105b47d36c8701ec112317,6437f2ef13f46ea53ed957e8,2023-04-13_13h18.12.202,PRaM,2021.2.3,Linux x86_64,60.01680471,61b8f3437b89212fae0dfadf
2,2.3263,space,0.5853,0,48,48,321,1,,,5f105b47d36c8701ec112317,6437f2ef13f46ea53ed957e8,2023-04-13_13h18.12.202,PRaM,2021.2.3,Linux x86_64,60.01680471,61b8f3437b89212fae0dfadf
5,2.3748,space,0.6201,0,49,49,46,1,,,5f105b47d36c8701ec112317,6437f2ef13f46ea53ed957e8,2023-04-13_13h18.12.202,PRaM,2021.2.3,Linux x86_64,60.01680471,61b8f3437b89212fae0dfadf
4,1.9857,space,0.2708,0,50,50,267,1,,,5f105b47d36c8701ec112317,6437f2ef13f46ea53ed957e8,2023-04-13_13h18.12.202,PRaM,2021.2.3,Linux x86_64,60.01680471,61b8f3437b89212fae0dfadf
2,2.1907,space,0.4859,0,51,51,89,1,,,5f105b47d36c8701ec112317,6437f2ef13f46ea53ed957e8,2023-04-13_13h18.12.202,PRaM,2021.2.3,Linux x86_64,60.01680471,61b8f3437b89212fae0dfadf
2,1.8759,space,0.1191,0,52,52,258,1,,,5f105b47d36c8701ec112317,6437f2ef13f46ea53ed957e8,2023-04-13_13h18.12.202,PRaM,2021.2.3,Linux x86_64,60.01680471,61b8f3437b89212fae0dfadf
8,3.3973,space,1.5877,0,53,53,226,1,,,5f105b47d36c8701ec112317,6437f2ef13f46ea53ed957e8,2023-04-13_13h18.12.202,PRaM,2021.2.3,Linux x86_64,60.01680471,61b8f3437b89212fae0dfadf
4,3.4609,space,1.7405,0,54,54,307,1,,,5f105b47d36c8701ec112317,6437f2ef13f46ea53ed957e8,2023-04-13_13h18.12.202,PRaM,2021.2.3,Linux x86_64,60.01680471,61b8f3437b89212fae0dfadf
5,3.1393,space,1.4025,0,55,55,282,1,,,5f105b47d36c8701ec112317,6437f2ef13f46ea53ed957e8,2023-04-13_13h18.12.202,PRaM,2021.2.3,Linux x86_64,60.01680471,61b8f3437b89212fae0dfadf
1,2.669,space,0.8494,0,56,56,41,1,,,5f105b47d36c8701ec112317,6437f2ef13f46ea53ed957e8,2023-04-13_13h18.12.202,PRaM,2021.2.3,Linux x86_64,60.01680471,61b8f3437b89212fae0dfadf
5,3.1444,space,1.3655,0,57,57,362,1,,,5f105b47d36c8701ec112317,6437f2ef13f46ea53ed957e8,2023-04-13_13h18.12.202,PRaM,2021.2.3,Linux x86_64,60.01680471,61b8f3437b89212fae0dfadf
8,2.4365,space,0.6366,0,58,58,17,1,,,5f105b47d36c8701ec112317,6437f2ef13f46ea53ed957e8,2023-04-13_13h18.12.202,PRaM,2021.2.3,Linux x86_64,60.01680471,61b8f3437b89212fae0dfadf
8,2.4572,space,0.8531,0,59,59,61,1,,,5f105b47d36c8701ec112317,6437f2ef13f46ea53ed957e8,2023-04-13_13h18.12.202,PRaM,2021.2.3,Linux x86_64,60.01680471,61b8f3437b89212fae0dfadf
5,2.8921,space,1.2388,0,60,60,52,1,,,5f105b47d36c8701ec112317,6437f2ef13f46ea53ed957e8,2023-04-13_13h18.12.202,PRaM,2021.2.3,Linux x86_64,60.01680471,61b8f3437b89212fae0dfadf
3,3.7688,space,3.5517,0,61,61,257,1,,,5f105b47d36c8701ec112317,6437f2ef13f46ea53ed957e8,2023-04-13_13h18.12.202,PRaM,2021.2.3,Linux x86_64,60.01680471,61b8f3437b89212fae0dfadf
8,4.2265,space,2.9681,0,62,62,147,1,,,5f105b47d36c8701ec112317,6437f2ef13f46ea53ed957e8,2023-04-13_13h18.12.202,PRaM,2021.2.3,Linux x86_64,60.01680471,61b8f3437b89212fae0dfadf
6,3.3256,space,1.5704,0,63,63,240,1,,,5f105b47d36c8701ec112317,6437f2ef13f46ea53ed957e8,2023-04-13_13h18.12.202,PRaM,2021.2.3,Linux x86_64,60.01680471,61b8f3437b89212fae0dfadf
8,4.5391,space,2.8649,0,64,64,326,1,,,5f105b47d36c8701ec112317,6437f2ef13f46ea53ed957e8,2023-04-13_13h18.12.202,PRaM,2021.2.3,Linux x86_64,60.01680471,61b8f3437b89212fae0dfadf
3,7.837,space,6.0012,0,65,65,24,1,,,5f105b47d36c8701ec112317,6437f2ef13f46ea53ed957e8,2023-04-13_13h18.12.202,PRaM,2021.2.3,Linux x86_64,60.01680471,61b8f3437b89212fae0dfadf
3,3.1221,space,1.4054,0,66,66,27,1,,,5f105b47d36c8701ec112317,6437f2ef13f46ea53ed957e8,2023-04-13_13h18.12.202,PRaM,2021.2.3,Linux x86_64,60.01680471,61b8f3437b89212fae0dfadf
7,3.8075,space,2.1074,0,67,67,3,1,,,5f105b47d36c8701ec112317,6437f2ef13f46ea53ed957e8,2023-04-13_13h18.12.202,PRaM,2021.2.3,Linux x86_64,60.01680471,61b8f3437b89212fae0dfadf
6,3.4355,space,1.7005,0,68,68,154,1,,,5f105b47d36c8701ec112317,6437f2ef13f46ea53ed957e8,2023-04-13_13h18.12.202,PRaM,2021.2.3,Linux x86_64,60.01680471,61b8f3437b89212fae0dfadf
7,3.2741,space,1.8015,0,69,69,372,1,,,5f105b47d36c8701ec112317,6437f2ef13f46ea53ed957e8,2023-04-13_13h18.12.202,PRaM,2021.2.3,Linux x86_64,60.01680471,61b8f3437b89212fae0dfadf
7,2.2234,space,0.503,0,70,70,338,1,,,5f105b47d36c8701ec112317,6437f2ef13f46ea53ed957e8,2023-04-13_13h18.12.202,PRaM,2021.2.3,Linux x86_64,60.01680471,61b8f3437b89212fae0dfadf
7,3.1753,space,1.4366,0,71,71,337,1,,,5f105b47d36c8701ec112317,6437f2ef13f46ea53ed957e8,2023-04-13_13h18.12.202,PRaM,2021.2.3,Linux x86_64,60.01680471,61b8f3437b89212fae0dfadf
3,2.3406,space,0.6505,0,72,72,241,1,,,5f105b47d36c8701ec112317,6437f2ef13f46ea53ed957e8,2023-04-13_13h18.12.202,PRaM,2021.2.3,Linux x86_64,60.01680471,61b8f3437b89212fae0dfadf
4,3.0383,space,1.2388,0,73,73,168,1,,,5f105b47d36c8701ec112317,6437f2ef13f46ea53ed957e8,2023-04-13_13h18.12.202,PRaM,2021.2.3,Linux x86_64,60.01680471,61b8f3437b89212fae0dfadf
5,2.7724,space,1.4834,0,74,74,160,1,,,5f105b47d36c8701ec112317,6437f2ef13f46ea53ed957e8,2023-04-13_13h18.12.202,PRaM,2021.2.3,Linux x86_64,60.01680471,61b8f3437b89212fae0dfadf
5,3.592,space,1.9666,0,75,75,358,1,,,5f105b47d36c8701ec112317,6437f2ef13f46ea53ed957e8,2023-04-13_13h18.12.202,PRaM,2021.2.3,Linux x86_64,60.01680471,61b8f3437b89212fae0dfadf
4,4.2118,space,2.5396,0,76,76,374,1,,,5f105b47d36c8701ec112317,6437f2ef13f46ea53ed957e8,2023-04-13_13h18.12.202,PRaM,2021.2.3,Linux x86_64,60.01680471,61b8f3437b89212fae0dfadf
3,3.3435,space,1.5882,0,77,77,48,1,,,5f105b47d36c8701ec112317,6437f2ef13f46ea53ed957e8,2023-04-13_13h18.12.202,PRaM,2021.2.3,Linux x86_64,60.01680471,61b8f3437b89212fae0dfadf
4,2.9022,space,1.2015,0,78,78,184,1,,,5f105b47d36c8701ec112317,6437f2ef13f46ea53ed957e8,2023-04-13_13h18.12.202,PRaM,2021.2.3,Linux x86_64,60.01680471,61b8f3437b89212fae0dfadf
4,2.1134,space,0.3535,0,79,79,163,1,,,5f105b47d36c8701ec112317,6437f2ef13f46ea53ed957e8,2023-04-13_13h18.12.202,PRaM,2021.2.3,Linux x86_64,60.01680471,61b8f3437b89212fae0dfadf
7,3.2077,space,1.4687,0,80,80,66,1,,,5f105b47d36c8701ec112317,6437f2ef13f46ea53ed957e8,2023-04-13_13h18.12.202,PRaM,2021.2.3,Linux x86_64,60.01680471,61b8f3437b89212fae0dfadf
6,3.5847,space,1.8012,0,81,81,141,1,,,5f105b47d36c8701ec112317,6437f2ef13f46ea53ed957e8,2023-04-13_13h18.12.202,PRaM,2021.2.3,Linux x86_64,60.01680471,61b8f3437b89212fae0dfadf
4,2.7254,space,0.9672,0,82,82,316,1,,,5f105b47d36c8701ec112317,6437f2ef13f46ea53ed957e8,2023-04-13_13h18.12.202,PRaM,2021.2.3,Linux x86_64,60.01680471,61b8f3437b89212fae0dfadf
8,2.4247,space,0.769,0,83,83,60,1,,,5f105b47d36c8701ec112317,6437f2ef13f46ea53ed957e8,2023-04-13_13h18.12.202,PRaM,2021.2.3,Linux x86_64,60.01680471,61b8f3437b89212fae0dfadf
6,4.4235,space,3.0705,0,84,84,171,1,,,5f105b47d36c8701ec112317,6437f2ef13f46ea53ed957e8,2023-04-13_13h18.12.202,PRaM,2021.2.3,Linux x86_64,60.01680471,61b8f3437b89212fae0dfadf
9,6.3733,space,4.9721,0,85,85,276,1,,,5f105b47d36c8701ec112317,6437f2ef13f46ea53ed957e8,2023-04-13_13h18.12.202,PRaM,2021.2.3,Linux x86_64,60.01680471,61b8f3437b89212fae0dfadf
7,3.6243,space,1.9191,0,86,86,291,1,,,5f105b47d36c8701ec112317,6437f2ef13f46ea53ed957e8,2023-04-13_13h18.12.202,PRaM,2021.2.3,Linux x86_64,60.01680471,61b8f3437b89212fae0dfadf
8,3.0923,space,1.3962,0,87,87,135,1,,,5f105b47d36c8701ec112317,6437f2ef13f46ea53ed957e8,2023-04-13_13h18.12.202,PRaM,2021.2.3,Linux x86_64,60.01680471,61b8f3437b89212fae0dfadf
6,3.6125,space,1.8394,0,88,88,127,1,,,5f105b47d36c8701ec112317,6437f2ef13f46ea53ed957e8,2023-04-13_13h18.12.202,PRaM,2021.2.3,Linux x86_64,60.01680471,61b8f3437b89212fae0dfadf
7,2.9491,space,1.2158,0,89,89,99,1,,,5f105b47d36c8701ec112317,6437f2ef13f46ea53ed957e8,2023-04-13_13h18.12.202,PRaM,2021.2.3,Linux x86_64,60.01680471,61b8f3437b89212fae0dfadf
2,2.3566,space,0.601,0,90,90,35,1,,,5f105b47d36c8701ec112317,6437f2ef13f46ea53ed957e8,2023-04-13_13h18.12.202,PRaM,2021.2.3,Linux x86_64,60.01680471,61b8f3437b89212fae0dfadf
3,2.5052,space,0.7529,0,91,91,253,1,,,5f105b47d36c8701ec112317,6437f2ef13f46ea53ed957e8,2023-04-13_13h18.12.202,PRaM,2021.2.3,Linux x86_64,60.01680471,61b8f3437b89212fae0dfadf
3,2.7266,space,1.188,0,92,92,71,1,,,5f105b47d36c8701ec112317,6437f2ef13f46ea53ed957e8,2023-04-13_13h18.12.202,PRaM,2021.2.3,Linux x86_64,60.01680471,61b8f3437b89212fae0dfadf
7,2.8084,space,1.069,0,93,93,270,1,,,5f105b47d36c8701ec112317,6437f2ef13f46ea53ed957e8,2023-04-13_13h18.12.202,PRaM,2021.2.3,Linux x86_64,60.01680471,61b8f3437b89212fae0dfadf
4,2.6281,space,0.9362,0,94,94,359,1,,,5f105b47d36c8701ec112317,6437f2ef13f46ea53ed957e8,2023-04-13_13h18.12.202,PRaM,2021.2.3,Linux x86_64,60.01680471,61b8f3437b89212fae0dfadf
8,3.492,space,1.7659,0,95,95,219,1,,,5f105b47d36c8701ec112317,6437f2ef13f46ea53ed957e8,2023-04-13_13h18.12.202,PRaM,2021.2.3,Linux x86_64,60.01680471,61b8f3437b89212fae0dfadf
2,2.062,space,0.2848,0,96,96,210,1,,,5f105b47d36c8701ec112317,6437f2ef13f46ea53ed957e8,2023-04-13_13h18.12.202,PRaM,2021.2.3,Linux x86_64,60.01680471,61b8f3437b89212fae0dfadf
1,4.2032,space,2.6391,0,97,97,247,1,,,5f105b47d36c8701ec112317,6437f2ef13f46ea53ed957e8,2023-04-13_13h18.12.202,PRaM,2021.2.3,Linux x86_64,60.01680471,61b8f3437b89212fae0dfadf
1,5.5619,space,4.0888,0,98,98,194,1,,,5f105b47d36c8701ec112317,6437f2ef13f46ea53ed957e8,2023-04-13_13h18.12.202,PRaM,2021.2.3,Linux x86_64,60.01680471,61b8f3437b89212fae0dfadf
8,2.8177,space,0.9958,0,99,99,333,1,,,5f105b47d36c8701ec112317,6437f2ef13f46ea53ed957e8,2023-04-13_13h18.12.202,PRaM,2021.2.3,Linux x86_64,60.01680471,61b8f3437b89212fae0dfadf
3,3.6266,space,1.9149,0,100,100,373,1,,,5f105b47d36c8701ec112317,6437f2ef13f46ea53ed957e8,2023-04-13_13h18.12.202,PRaM,2021.2.3,Linux x86_64,60.01680471,61b8f3437b89212fae0dfadf
4,3.382,space,1.633,0,101,101,189,1,,,5f105b47d36c8701ec112317,6437f2ef13f46ea53ed957e8,2023-04-13_13h18.12.202,PRaM,2021.2.3,Linux x86_64,60.01680471,61b8f3437b89212fae0dfadf
3,2.49,space,0.767,0,102,102,354,1,,,5f105b47d36c8701ec112317,6437f2ef13f46ea53ed957e8,2023-04-13_13h18.12.202,PRaM,2021.2.3,Linux x86_64,60.01680471,61b8f3437b89212fae0dfadf
2,2.61,space,0.8523,0,103,103,217,1,,,5f105b47d36c8701ec112317,6437f2ef13f46ea53ed957e8,2023-04-13_13h18.12.202,PRaM,2021.2.3,Linux x86_64,60.01680471,61b8f3437b89212fae0dfadf
7,3.1554,space,1.3692,0,104,104,288,1,,,5f105b47d36c8701ec112317,6437f2ef13f46ea53ed957e8,2023-04-13_13h18.12.202,PRaM,2021.2.3,Linux x86_64,60.01680471,61b8f3437b89212fae0dfadf
4,3.6546,space,1.8683,0,105,105,98,1,,,5f105b47d36c8701ec112317,6437f2ef13f46ea53ed957e8,2023-04-13_13h18.12.202,PRaM,2021.2.3,Linux x86_64,60.01680471,61b8f3437b89212fae0dfadf
3,3.2913,space,1.6696,0,106,106,84,1,,,5f105b47d36c8701ec112317,6437f2ef13f46ea53ed957e8,2023-04-13_13h18.12.202,PRaM,2021.2.3,Linux x86_64,60.01680471,61b8f3437b89212fae0dfadf
2,2.2247,space,0.4662,0,107,107,287,1,,,5f105b47d36c8701ec112317,6437f2ef13f46ea53ed957e8,2023-04-13_13h18.12.202,PRaM,2021.2.3,Linux x86_64,60.01680471,61b8f3437b89212fae0dfadf
2,1.8173,space,0.0716,0,108,108,249,1,,,5f105b47d36c8701ec112317,6437f2ef13f46ea53ed957e8,2023-04-13_13h18.12.202,PRaM,2021.2.3,Linux x86_64,60.01680471,61b8f3437b89212fae0dfadf
7,3.1578,space,1.3532,0,109,109,158,1,,,5f105b47d36c8701ec112317,6437f2ef13f46ea53ed957e8,2023-04-13_13h18.12.202,PRaM,2021.2.3,Linux x86_64,60.01680471,61b8f3437b89212fae0dfadf
5,3.2898,space,1.7005,0,110,110,6,1,,,5f105b47d36c8701ec112317,6437f2ef13f46ea53ed957e8,2023-04-13_13h18.12.202,PRaM,2021.2.3,Linux x86_64,60.01680471,61b8f3437b89212fae0dfadf
1,4.2368,space,2.4722,0,111,111,273,1,,,5f105b47d36c8701ec112317,6437f2ef13f46ea53ed957e8,2023-04-13_13h18.12.202,PRaM,2021.2.3,Linux x86_64,60.01680471,61b8f3437b89212fae0dfadf
1,5.025,space,3.1561,0,112,112,188,1,,,5f105b47d36c8701ec112317,6437f2ef13f46ea53ed957e8,2023-04-13_13h18.12.202,PRaM,2021.2.3,Linux x86_64,60.01680471,61b8f3437b89212fae0dfadf
8,4.1041,space,2.6047,0,113,113,64,1,,,5f105b47d36c8701ec112317,6437f2ef13f46ea53ed957e8,2023-04-13_13h18.12.202,PRaM,2021.2.3,Linux x86_64,60.01680471,61b8f3437b89212fae0dfadf
2,3.8879,space,2.1071,0,114,114,54,1,,,5f105b47d36c8701ec112317,6437f2ef13f46ea53ed957e8,2023-04-13_13h18.12.202,PRaM,2021.2.3,Linux x86_64,60.01680471,61b8f3437b89212fae0dfadf
7,2.9251,space,1.2402,0,115,115,298,1,,,5f105b47d36c8701ec112317,6437f2ef13f46ea53ed957e8,2023-04-13_13h18.12.202,PRaM,2021.2.3,Linux x86_64,60.01680471,61b8f3437b89212fae0dfadf
8,1.7421,space,0.822,0,116,116,334,1,,,5f105b47d36c8701ec112317,6437f2ef13f46ea53ed957e8,2023-04-13_13h18.12.202,PRaM,2021.2.3,Linux x86_64,60.01680471,61b8f3437b89212fae0dfadf
6,3.5034,space,1.7859,0,117,117,215,1,,,5f105b47d36c8701ec112317,6437f2ef13f46ea53ed957e8,2023-04-13_13h18.12.202,PRaM,2021.2.3,Linux x86_64,60.01680471,61b8f3437b89212fae0dfadf
2,2.6654,space,1.0492,0,118,118,376,1,,,5f105b47d36c8701ec112317,6437f2ef13f46ea53ed957e8,2023-04-13_13h18.12.202,PRaM,2021.2.3,Linux x86_64,60.01680471,61b8f3437b89212fae0dfadf
1,3.5136,space,1.7202,0,119,119,67,1,,,5f105b47d36c8701ec112317,6437f2ef13f46ea53ed957e8,2023-04-13_13h18.12.202,PRaM,2021.2.3,Linux x86_64,60.01680471,61b8f3437b89212fae0dfadf
6,4.4377,space,2.6565,0,120,120,149,1,,,5f105b47d36c8701ec112317,6437f2ef13f46ea53ed957e8,2023-04-13_13h18.12.202,PRaM,2021.2.3,Linux x86_64,60.01680471,61b8f3437b89212fae0dfadf
4,5.6133,space,3.887,0,121,121,377,1,,,5f105b47d36c8701ec112317,6437f2ef13f46ea53ed957e8,2023-04-13_13h18.12.202,PRaM,2021.2.3,Linux x86_64,60.01680471,61b8f3437b89212fae0dfadf
3,2.2459,space,0.5695,0,122,122,128,1,,,5f105b47d36c8701ec112317,6437f2ef13f46ea53ed957e8,2023-04-13_13h18.12.202,PRaM,2021.2.3,Linux x86_64,60.01680471,61b8f3437b89212fae0dfadf
4,2.3408,space,0.5854,0,123,123,256,1,,,5f105b47d36c8701ec112317,6437f2ef13f46ea53ed957e8,2023-04-13_13h18.12.202,PRaM,2021.2.3,Linux x86_64,60.01680471,61b8f3437b89212fae0dfadf
3,2.6179,space,0.8854,0,124,124,78,1,,,5f105b47d36c8701ec112317,6437f2ef13f46ea53ed957e8,2023-04-13_13h18.12.202,PRaM,2021.2.3,Linux x86_64,60.01680471,61b8f3437b89212fae0dfadf
4,2.233,space,0.4861,0,125,125,220,1,,,5f105b47d36c8701ec112317,6437f2ef13f46ea53ed957e8,2023-04-13_13h18.12.202,PRaM,2021.2.3,Linux x86_64,60.01680471,61b8f3437b89212fae0dfadf
6,2.611,space,0.9142,0,126,126,74,1,,,5f105b47d36c8701ec112317,6437f2ef13f46ea53ed957e8,2023-04-13_13h18.12.202,PRaM,2021.2.3,Linux x86_64,60.01680471,61b8f3437b89212fae0dfadf
3,2.7212,space,0.9208,0,127,127,11,1,,,5f105b47d36c8701ec112317,6437f2ef13f46ea53ed957e8,2023-04-13_13h18.12.202,PRaM,2021.2.3,Linux x86_64,60.01680471,61b8f3437b89212fae0dfadf
4,2.0586,space,0.2624,0,128,128,286,1,,,5f105b47d36c8701ec112317,6437f2ef13f46ea53ed957e8,2023-04-13_13h18.12.202,PRaM,2021.2.3,Linux x86_64,60.01680471,61b8f3437b89212fae0dfadf
7,2.5381,space,0.7844,0,129,129,350,1,,,5f105b47d36c8701ec112317,6437f2ef13f46ea53ed957e8,2023-04-13_13h18.12.202,PRaM,2021.2.3,Linux x86_64,60.01680471,61b8f3437b89212fae0dfadf
6,3.7204,space,1.987,0,130,130,346,1,,,5f105b47d36c8701ec112317,6437f2ef13f46ea53ed957e8,2023-04-13_13h18.12.202,PRaM,2021.2.3,Linux x86_64,60.01680471,61b8f3437b89212fae0dfadf
3,4.691,space,2.8833,0,131,131,181,1,,,5f105b47d36c8701ec112317,6437f2ef13f46ea53ed957e8,2023-04-13_13h18.12.202,PRaM,2021.2.3,Linux x86_64,60.01680471,61b8f3437b89212fae0dfadf
4,3.0261,space,1.5388,0,132,132,40,1,,,5f105b47d36c8701ec112317,6437f2ef13f46ea53ed957e8,2023-04-13_13h18.12.202,PRaM,2021.2.3,Linux x86_64,60.01680471,61b8f3437b89212fae0dfadf
7,2.9491,space,2.0727,0,133,133,304,1,,,5f105b47d36c8701ec112317,6437f2ef13f46ea53ed957e8,2023-04-13_13h18.12.202,PRaM,2021.2.3,Linux x86_64,60.01680471,61b8f3437b89212fae0dfadf
5,4.3393,space,2.6366,0,134,134,370,1,,,5f105b47d36c8701ec112317,6437f2ef13f46ea53ed957e8,2023-04-13_13h18.12.202,PRaM,2021.2.3,Linux x86_64,60.01680471,61b8f3437b89212fae0dfadf
8,2.3584,space,0.6843,0,135,135,222,1,,,5f105b47d36c8701ec112317,6437f2ef13f46ea53ed957e8,2023-04-13_13h18.12.202,PRaM,2021.2.3,Linux x86_64,60.01680471,61b8f3437b89212fae0dfadf
7,2.5113,space,0.7168,0,136,136,58,1,,,5f105b47d36c8701ec112317,6437f2ef13f46ea53ed957e8,2023-04-13_13h18.12.202,PRaM,2021.2.3,Linux x86_64,60.01680471,61b8f3437b89212fae0dfadf
3,2.4788,space,0.8197,0,137,137,101,1,,,5f105b47d36c8701ec112317,6437f2ef13f46ea53ed957e8,2023-04-13_13h18.12.202,PRaM,2021.2.3,Linux x86_64,60.01680471,61b8f3437b89212fae0dfadf
6,2.7907,space,1.0508,0,138,138,204,1,,,5f105b47d36c8701ec112317,6437f2ef13f46ea53ed957e8,2023-04-13_13h18.12.202,PRaM,2021.2.3,Linux x86_64,60.01680471,61b8f3437b89212fae0dfadf
3,3.7951,space,2.0991,0,139,139,283,1,,,5f105b47d36c8701ec112317,6437f2ef13f46ea53ed957e8,2023-04-13_13h18.12.202,PRaM,2021.2.3,Linux x86_64,60.01680471,61b8f3437b89212fae0dfadf
6,2.6472,space,0.9269,0,140,140,4,1,,,5f105b47d36c8701ec112317,6437f2ef13f46ea53ed957e8,2023-04-13_13h18.12.202,PRaM,2021.2.3,Linux x86_64,60.01680471,61b8f3437b89212fae0dfadf
4,3.3723,space,1.6348,0,141,141,9,1,,,5f105b47d36c8701ec112317,6437f2ef13f46ea53ed957e8,2023-04-13_13h18.12.202,PRaM,2021.2.3,Linux x86_64,60.01680471,61b8f3437b89212fae0dfadf
4,3.3564,space,1.5373,0,142,142,25,1,,,5f105b47d36c8701ec112317,6437f2ef13f46ea53ed957e8,2023-04-13_13h18.12.202,PRaM,2021.2.3,Linux x86_64,60.01680471,61b8f3437b89212fae0dfadf
3,2.778,space,1.0552,0,143,143,65,1,,,5f105b47d36c8701ec112317,6437f2ef13f46ea53ed957e8,2023-04-13_13h18.12.202,PRaM,2021.2.3,Linux x86_64,60.01680471,61b8f3437b89212fae0dfadf
8,3.0211,space,1.2151,0,144,144,277,1,,,5f105b47d36c8701ec112317,6437f2ef13f46ea53ed957e8,2023-04-13_13h18.12.202,PRaM,2021.2.3,Linux x86_64,60.01680471,61b8f3437b89212fae0dfadf
4,4.1904,space,2.4071,0,145,145,368,1,,,5f105b47d36c8701ec112317,6437f2ef13f46ea53ed957e8,2023-04-13_13h18.12.202,PRaM,2021.2.3,Linux x86_64,60.01680471,61b8f3437b89212fae0dfadf
2,2.7933,space,1.1536,0,146,146,254,1,,,5f105b47d36c8701ec112317,6437f2ef13f46ea53ed957e8,2023-04-13_13h18.12.202,PRaM,2021.2.3,Linux x86_64,60.01680471,61b8f3437b89212fae0dfadf
7,1.7894,space,0.0331,0,147,147,290,1,,,5f105b47d36c8701ec112317,6437f2ef13f46ea53ed957e8,2023-04-13_13h18.12.202,PRaM,2021.2.3,Linux x86_64,60.01680471,61b8f3437b89212fae0dfadf
6,4.2505,space,2.4309,0,148,148,129,1,,,5f105b47d36c8701ec112317,6437f2ef13f46ea53ed957e8,2023-04-13_13h18.12.202,PRaM,2021.2.3,Linux x86_64,60.01680471,61b8f3437b89212fae0dfadf
2,2.2786,space,0.52,0,149,149,243,1,,,5f105b47d36c8701ec112317,6437f2ef13f46ea53ed957e8,2023-04-13_13h18.12.202,PRaM,2021.2.3,Linux x86_64,60.01680471,61b8f3437b89212fae0dfadf
6,3.0567,space,1.2198,0,150,150,139,1,,,5f105b47d36c8701ec112317,6437f2ef13f46ea53ed957e8,2023-04-13_13h18.12.202,PRaM,2021.2.3,Linux x86_64,60.01680471,61b8f3437b89212fae0dfadf
7,2.4247,space,1.5928,0,151,151,263,1,,,5f105b47d36c8701ec112317,6437f2ef13f46ea53ed957e8,2023-04-13_13h18.12.202,PRaM,2021.2.3,Linux x86_64,60.01680471,61b8f3437b89212fae0dfadf
4,2.0259,space,0.3543,0,152,152,26,1,,,5f105b47d36c8701ec112317,6437f2ef13f46ea53ed957e8,2023-04-13_13h18.12.202,PRaM,2021.2.3,Linux x86_64,60.01680471,61b8f3437b89212fae0dfadf
2,2.7112,space,1.0063,0,153,153,289,1,,,5f105b47d36c8701ec112317,6437f2ef13f46ea53ed957e8,2023-04-13_13h18.12.202,PRaM,2021.2.3,Linux x86_64,60.01680471,61b8f3437b89212fae0dfadf
3,2.4504,space,0.6906,0,154,154,152,1,,,5f105b47d36c8701ec112317,6437f2ef13f46ea53ed957e8,2023-04-13_13h18.12.202,PRaM,2021.2.3,Linux x86_64,60.01680471,61b8f3437b89212fae0dfadf
5,2.2233,space,0.5201,0,155,155,205,1,,,5f105b47d36c8701ec112317,6437f2ef13f46ea53ed957e8,2023-04-13_13h18.12.202,PRaM,2021.2.3,Linux x86_64,60.01680471,61b8f3437b89212fae0dfadf
6,2.3235,space,0.6846,0,156,156,313,1,,,5f105b47d36c8701ec112317,6437f2ef13f46ea53ed957e8,2023-04-13_13h18.12.202,PRaM,2021.2.3,Linux x86_64,60.01680471,61b8f3437b89212fae0dfadf
6,2.6359,space,0.7918,0,157,157,186,1,,,5f105b47d36c8701ec112317,6437f2ef13f46ea53ed957e8,2023-04-13_13h18.12.202,PRaM,2021.2.3,Linux x86_64,60.01680471,61b8f3437b89212fae0dfadf
,,space,0.9744,0,158,158,320,1,,,5f105b47d36c8701ec112317,6437f2ef13f46ea53ed957e8,2023-04-13_13h18.12.202,PRaM,2021.2.3,Linux x86_64,60.01680471,61b8f3437b89212fae0dfadf
4,5.6237,space,3.8967,0,159,159,111,1,,,5f105b47d36c8701ec112317,6437f2ef13f46ea53ed957e8,2023-04-13_13h18.12.202,PRaM,2021.2.3,Linux x86_64,60.01680471,61b8f3437b89212fae0dfadf
3,2.6425,space,1.086,0,160,160,252,1,,,5f105b47d36c8701ec112317,6437f2ef13f46ea53ed957e8,2023-04-13_13h18.12.202,PRaM,2021.2.3,Linux x86_64,60.01680471,61b8f3437b89212fae0dfadf
3,6.4906,space,4.8666,0,161,161,339,1,,,5f105b47d36c8701ec112317,6437f2ef13f46ea53ed957e8,2023-04-13_13h18.12.202,PRaM,2021.2.3,Linux x86_64,60.01680471,61b8f3437b89212fae0dfadf
3,2.4415,space,0.7543,0,162,162,308,1,,,5f105b47d36c8701ec112317,6437f2ef13f46ea53ed957e8,2023-04-13_13h18.12.202,PRaM,2021.2.3,Linux x86_64,60.01680471,61b8f3437b89212fae0dfadf
2,1.8305,space,0.1037,0,163,163,248,1,,,5f105b47d36c8701ec112317,6437f2ef13f46ea53ed957e8,2023-04-13_13h18.12.202,PRaM,2021.2.3,Linux x86_64,60.01680471,61b8f3437b89212fae0dfadf
1,2.5082,space,0.8179,0,164,164,131,1,,,5f105b47d36c8701ec112317,6437f2ef13f46ea53ed957e8,2023-04-13_13h18.12.202,PRaM,2021.2.3,Linux x86_64,60.01680471,61b8f3437b89212fae0dfadf
1,3.1707,space,1.6885,0,165,165,266,1,,,5f105b47d36c8701ec112317,6437f2ef13f46ea53ed957e8,2023-04-13_13h18.12.202,PRaM,2021.2.3,Linux x86_64,60.01680471,61b8f3437b89212fae0dfadf
7,2.8632,space,1.1378,0,166,166,132,1,,,5f105b47d36c8701ec112317,6437f2ef13f46ea53ed957e8,2023-04-13_13h18.12.202,PRaM,2021.2.3,Linux x86_64,60.01680471,61b8f3437b89212fae0dfadf
6,2.6204,space,1.7372,0,167,167,92,1,,,5f105b47d36c8701ec112317,6437f2ef13f46ea53ed957e8,2023-04-13_13h18.12.202,PRaM,2021.2.3,Linux x86_64,60.01680471,61b8f3437b89212fae0dfadf
5,2.024,space,0.419,0,168,168,305,1,,,5f105b47d36c8701ec112317,6437f2ef13f46ea53ed957e8,2023-04-13_13h18.12.202,PRaM,2021.2.3,Linux x86_64,60.01680471,61b8f3437b89212fae0dfadf
7,1.9188,space,0.2241,0,169,169,20,1,,,5f105b47d36c8701ec112317,6437f2ef13f46ea53ed957e8,2023-04-13_13h18.12.202,PRaM,2021.2.3,Linux x86_64,60.01680471,61b8f3437b89212fae0dfadf
5,2.5094,space,0.7662,0,170,170,341,1,,,5f105b47d36c8701ec112317,6437f2ef13f46ea53ed957e8,2023-04-13_13h18.12.202,PRaM,2021.2.3,Linux x86_64,60.01680471,61b8f3437b89212fae0dfadf
3,2.2446,space,0.6032,0,171,171,5,1,,,5f105b47d36c8701ec112317,6437f2ef13f46ea53ed957e8,2023-04-13_13h18.12.202,PRaM,2021.2.3,Linux x86_64,60.01680471,61b8f3437b89212fae0dfadf
3,2.8905,space,1.0404,0,172,172,369,1,,,5f105b47d36c8701ec112317,6437f2ef13f46ea53ed957e8,2023-04-13_13h18.12.202,PRaM,2021.2.3,Linux x86_64,60.01680471,61b8f3437b89212fae0dfadf
7,3.5573,space,1.8859,0,173,173,233,1,,,5f105b47d36c8701ec112317,6437f2ef13f46ea53ed957e8,2023-04-13_13h18.12.202,PRaM,2021.2.3,Linux x86_64,60.01680471,61b8f3437b89212fae0dfadf
8,1.8425,space,0.1865,0,174,174,325,1,,,5f105b47d36c8701ec112317,6437f2ef13f46ea53ed957e8,2023-04-13_13h18.12.202,PRaM,2021.2.3,Linux x86_64,60.01680471,61b8f3437b89212fae0dfadf
3,2.9256,space,1.3397,0,175,175,296,1,,,5f105b47d36c8701ec112317,6437f2ef13f46ea53ed957e8,2023-04-13_13h18.12.202,PRaM,2021.2.3,Linux x86_64,60.01680471,61b8f3437b89212fae0dfadf
2,2.5546,space,0.8754,0,176,176,30,1,,,5f105b47d36c8701ec112317,6437f2ef13f46ea53ed957e8,2023-04-13_13h18.12.202,PRaM,2021.2.3,Linux x86_64,60.01680471,61b8f3437b89212fae0dfadf
5,1.741,space,0.7788,0,177,177,331,1,,,5f105b47d36c8701ec112317,6437f2ef13f46ea53ed957e8,2023-04-13_13h18.12.202,PRaM,2021.2.3,Linux x86_64,60.01680471,61b8f3437b89212fae0dfadf
1,2.372,space,0.7024,0,178,178,190,1,,,5f105b47d36c8701ec112317,6437f2ef13f46ea53ed957e8,2023-04-13_13h18.12.202,PRaM,2021.2.3,Linux x86_64,60.01680471,61b8f3437b89212fae0dfadf
9,3.858,space,2.1844,0,179,179,197,1,,,5f105b47d36c8701ec112317,6437f2ef13f46ea53ed957e8,2023-04-13_13h18.12.202,PRaM,2021.2.3,Linux x86_64,60.01680471,61b8f3437b89212fae0dfadf
7,2.3949,space,0.755,0,180,180,110,1,,,5f105b47d36c8701ec112317,6437f2ef13f46ea53ed957e8,2023-04-13_13h18.12.202,PRaM,2021.2.3,Linux x86_64,60.01680471,61b8f3437b89212fae0dfadf
4,2.0251,space,0.3187,0,181,181,364,1,,,5f105b47d36c8701ec112317,6437f2ef13f46ea53ed957e8,2023-04-13_13h18.12.202,PRaM,2021.2.3,Linux x86_64,60.01680471,61b8f3437b89212fae0dfadf
6,1.6924,space,0.6106,0,182,182,347,1,,,5f105b47d36c8701ec112317,6437f2ef13f46ea53ed957e8,2023-04-13_13h18.12.202,PRaM,2021.2.3,Linux x86_64,60.01680471,61b8f3437b89212fae0dfadf
2,3.9572,space,2.1192,0,183,183,167,1,,,5f105b47d36c8701ec112317,6437f2ef13f46ea53ed957e8,2023-04-13_13h18.12.202,PRaM,2021.2.3,Linux x86_64,60.01680471,61b8f3437b89212fae0dfadf
,,space,1.2199,0,184,184,314,1,,,5f105b47d36c8701ec112317,6437f2ef13f46ea53ed957e8,2023-04-13_13h18.12.202,PRaM,2021.2.3,Linux x86_64,60.01680471,61b8f3437b89212fae0dfadf
7,2.3623,space,0.6935,0,185,185,279,1,,,5f105b47d36c8701ec112317,6437f2ef13f46ea53ed957e8,2023-04-13_13h18.12.202,PRaM,2021.2.3,Linux x86_64,60.01680471,61b8f3437b89212fae0dfadf
4,2.1721,space,0.5306,0,186,186,100,1,,,5f105b47d36c8701ec112317,6437f2ef13f46ea53ed957e8,2023-04-13_13h18.12.202,PRaM,2021.2.3,Linux x86_64,60.01680471,61b8f3437b89212fae0dfadf
3,2.2188,space,0.5183,0,187,187,268,1,,,5f105b47d36c8701ec112317,6437f2ef13f46ea53ed957e8,2023-04-13_13h18.12.202,PRaM,2021.2.3,Linux x86_64,60.01680471,61b8f3437b89212fae0dfadf
2,2.1929,space,0.5538,0,188,188,303,1,,,5f105b47d36c8701ec112317,6437f2ef13f46ea53ed957e8,2023-04-13_13h18.12.202,PRaM,2021.2.3,Linux x86_64,60.01680471,61b8f3437b89212fae0dfadf
1,3.0432,space,1.4162,0,189,189,275,1,,,5f105b47d36c8701ec112317,6437f2ef13f46ea53ed957e8,2023-04-13_13h18.12.202,PRaM,2021.2.3,Linux x86_64,60.01680471,61b8f3437b89212fae0dfadf
2,2.0602,space,0.4037,0,190,190,36,1,,,5f105b47d36c8701ec112317,6437f2ef13f46ea53ed957e8,2023-04-13_13h18.12.202,PRaM,2021.2.3,Linux x86_64,60.01680471,61b8f3437b89212fae0dfadf
6,2.0801,space,0.4199,0,191,191,42,1,,,5f105b47d36c8701ec112317,6437f2ef13f46ea53ed957e8,2023-04-13_13h18.12.202,PRaM,2021.2.3,Linux x86_64,60.01680471,61b8f3437b89212fae0dfadf
5,3.2239,space,1.4896,0,192,192,183,1,,,5f105b47d36c8701ec112317,6437f2ef13f46ea53ed957e8,2023-04-13_13h18.12.202,PRaM,2021.2.3,Linux x86_64,60.01680471,61b8f3437b89212fae0dfadf
7,3.1412,space,1.4995,0,193,193,83,1,,,5f105b47d36c8701ec112317,6437f2ef13f46ea53ed957e8,2023-04-13_13h18.12.202,PRaM,2021.2.3,Linux x86_64,60.01680471,61b8f3437b89212fae0dfadf
6,2.7975,space,1.0177,0,194,194,138,1,,,5f105b47d36c8701ec112317,6437f2ef13f46ea53ed957e8,2023-04-13_13h18.12.202,PRaM,2021.2.3,Linux x86_64,60.01680471,61b8f3437b89212fae0dfadf
4,1.8427,space,0.1352,0,195,195,124,1,,,5f105b47d36c8701ec112317,6437f2ef13f46ea53ed957e8,2023-04-13_13h18.12.202,PRaM,2021.2.3,Linux x86_64,60.01680471,61b8f3437b89212fae0dfadf
1,2.2084,space,0.6035,0,196,196,330,1,,,5f105b47d36c8701ec112317,6437f2ef13f46ea53ed957e8,2023-04-13_13h18.12.202,PRaM,2021.2.3,Linux x86_64,60.01680471,61b8f3437b89212fae0dfadf
6,2.7224,space,0.9551,0,197,197,357,1,,,5f105b47d36c8701ec112317,6437f2ef13f46ea53ed957e8,2023-04-13_13h18.12.202,PRaM,2021.2.3,Linux x86_64,60.01680471,61b8f3437b89212fae0dfadf
8,1.9424,space,0.2365,0,198,198,323,1,,,5f105b47d36c8701ec112317,6437f2ef13f46ea53ed957e8,2023-04-13_13h18.12.202,PRaM,2021.2.3,Linux x86_64,60.01680471,61b8f3437b89212fae0dfadf
1,4.139,space,2.5012,0,199,199,312,1,,,5f105b47d36c8701ec112317,6437f2ef13f46ea53ed957e8,2023-04-13_13h18.12.202,PRaM,2021.2.3,Linux x86_64,60.01680471,61b8f3437b89212fae0dfadf
7,3.1874,space,1.3842,0,200,200,310,1,,,5f105b47d36c8701ec112317,6437f2ef13f46ea53ed957e8,2023-04-13_13h18.12.202,PRaM,2021.2.3,Linux x86_64,60.01680471,61b8f3437b89212fae0dfadf
2,2.3683,space,0.6535,0,201,201,318,1,,,5f105b47d36c8701ec112317,6437f2ef13f46ea53ed957e8,2023-04-13_13h18.12.202,PRaM,2021.2.3,Linux x86_64,60.01680471,61b8f3437b89212fae0dfadf
2,2.3234,space,0.67,0,202,202,195,1,,,5f105b47d36c8701ec112317,6437f2ef13f46ea53ed957e8,2023-04-13_13h18.12.202,PRaM,2021.2.3,Linux x86_64,60.01680471,61b8f3437b89212fae0dfadf
8,3.1741,space,1.5017,0,203,203,56,1,,,5f105b47d36c8701ec112317,6437f2ef13f46ea53ed957e8,2023-04-13_13h18.12.202,PRaM,2021.2.3,Linux x86_64,60.01680471,61b8f3437b89212fae0dfadf
1,2.4391,space,0.7386,0,204,204,261,1,,,5f105b47d36c8701ec112317,6437f2ef13f46ea53ed957e8,2023-04-13_13h18.12.202,PRaM,2021.2.3,Linux x86_64,60.01680471,61b8f3437b89212fae0dfadf
6,2.112,space,0.4398,0,205,205,102,1,,,5f105b47d36c8701ec112317,6437f2ef13f46ea53ed957e8,2023-04-13_13h18.12.202,PRaM,2021.2.3,Linux x86_64,60.01680471,61b8f3437b89212fae0dfadf
8,2.9753,space,1.3336,0,206,206,59,1,,,5f105b47d36c8701ec112317,6437f2ef13f46ea53ed957e8,2023-04-13_13h18.12.202,PRaM,2021.2.3,Linux x86_64,60.01680471,61b8f3437b89212fae0dfadf
8,1.7914,space,0.2126,0,207,207,319,1,,,5f105b47d36c8701ec112317,6437f2ef13f46ea53ed957e8,2023-04-13_13h18.12.202,PRaM,2021.2.3,Linux x86_64,60.01680471,61b8f3437b89212fae0dfadf
4,2.8626,space,1.2529,0,208,208,125,1,,,5f105b47d36c8701ec112317,6437f2ef13f46ea53ed957e8,2023-04-13_13h18.12.202,PRaM,2021.2.3,Linux x86_64,60.01680471,61b8f3437b89212fae0dfadf
2,2.0445,space,0.5353,0,209,209,231,1,,,5f105b47d36c8701ec112317,6437f2ef13f46ea53ed957e8,2023-04-13_13h18.12.202,PRaM,2021.2.3,Linux x86_64,60.01680471,61b8f3437b89212fae0dfadf
6,3.1595,space,1.4407,0,210,210,348,1,,,5f105b47d36c8701ec112317,6437f2ef13f46ea53ed957e8,2023-04-13_13h18.12.202,PRaM,2021.2.3,Linux x86_64,60.01680471,61b8f3437b89212fae0dfadf
2,2.5915,space,0.8179,0,211,211,236,1,,,5f105b47d36c8701ec112317,6437f2ef13f46ea53ed957e8,2023-04-13_13h18.12.202,PRaM,2021.2.3,Linux x86_64,60.01680471,61b8f3437b89212fae0dfadf
6,2.5905,space,0.8042,0,212,212,93,1,,,5f105b47d36c8701ec112317,6437f2ef13f46ea53ed957e8,2023-04-13_13h18.12.202,PRaM,2021.2.3,Linux x86_64,60.01680471,61b8f3437b89212fae0dfadf
5,1.9635,space,0.1674,0,213,213,0,1,,,5f105b47d36c8701ec112317,6437f2ef13f46ea53ed957e8,2023-04-13_13h18.12.202,PRaM,2021.2.3,Linux x86_64,60.01680471,61b8f3437b89212fae0dfadf
8,2.4554,space,0.7171,0,214,214,51,1,,,5f105b47d36c8701ec112317,6437f2ef13f46ea53ed957e8,2023-04-13_13h18.12.202,PRaM,2021.2.3,Linux x86_64,60.01680471,61b8f3437b89212fae0dfadf
2,2.3656,space,0.9014,0,215,215,278,1,,,5f105b47d36c8701ec112317,6437f2ef13f46ea53ed957e8,2023-04-13_13h18.12.202,PRaM,2021.2.3,Linux x86_64,60.01680471,61b8f3437b89212fae0dfadf
3,2.0441,space,0.2341,0,216,216,198,1,,,5f105b47d36c8701ec112317,6437f2ef13f46ea53ed957e8,2023-04-13_13h18.12.202,PRaM,2021.2.3,Linux x86_64,60.01680471,61b8f3437b89212fae0dfadf
1,2.9409,space,1.7178,0,217,217,107,1,,,5f105b47d36c8701ec112317,6437f2ef13f46ea53ed957e8,2023-04-13_13h18.12.202,PRaM,2021.2.3,Linux x86_64,60.01680471,61b8f3437b89212fae0dfadf
5,2.3787,space,0.9337,0,218,218,355,1,,,5f105b47d36c8701ec112317,6437f2ef13f46ea53ed957e8,2023-04-13_13h18.12.202,PRaM,2021.2.3,Linux x86_64,60.01680471,61b8f3437b89212fae0dfadf
6,2.3755,space,0.5865,0,219,219,69,1,,,5f105b47d36c8701ec112317,6437f2ef13f46ea53ed957e8,2023-04-13_13h18.12.202,PRaM,2021.2.3,Linux x86_64,60.01680471,61b8f3437b89212fae0dfadf
5,2.1659,space,0.5088,0,220,220,96,1,,,5f105b47d36c8701ec112317,6437f2ef13f46ea53ed957e8,2023-04-13_13h18.12.202,PRaM,2021.2.3,Linux x86_64,60.01680471,61b8f3437b89212fae0dfadf
2,3.1568,space,1.5378,0,221,221,50,1,,,5f105b47d36c8701ec112317,6437f2ef13f46ea53ed957e8,2023-04-13_13h18.12.202,PRaM,2021.2.3,Linux x86_64,60.01680471,61b8f3437b89212fae0dfadf
4,2.2579,space,0.4776,0,222,222,185,1,,,5f105b47d36c8701ec112317,6437f2ef13f46ea53ed957e8,2023-04-13_13h18.12.202,PRaM,2021.2.3,Linux x86_64,60.01680471,61b8f3437b89212fae0dfadf
,,space,1.0552,0,223,223,79,1,,,5f105b47d36c8701ec112317,6437f2ef13f46ea53ed957e8,2023-04-13_13h18.12.202,PRaM,2021.2.3,Linux x86_64,60.01680471,61b8f3437b89212fae0dfadf
5,2.7332,space,1.2833,0,224,224,148,1,,,5f105b47d36c8701ec112317,6437f2ef13f46ea53ed957e8,2023-04-13_13h18.12.202,PRaM,2021.2.3,Linux x86_64,60.01680471,61b8f3437b89212fae0dfadf
3,2.0015,space,0.3493,0,225,225,153,1,,,5f105b47d36c8701ec112317,6437f2ef13f46ea53ed957e8,2023-04-13_13h18.12.202,PRaM,2021.2.3,Linux x86_64,60.01680471,61b8f3437b89212fae0dfadf
4,1.9249,space,0.2395,0,226,226,38,1,,,5f105b47d36c8701ec112317,6437f2ef13f46ea53ed957e8,2023-04-13_13h18.12.202,PRaM,2021.2.3,Linux x86_64,60.01680471,61b8f3437b89212fae0dfadf
3,2.4233,space,0.7166,0,227,227,209,1,,,5f105b47d36c8701ec112317,6437f2ef13f46ea53ed957e8,2023-04-13_13h18.12.202,PRaM,2021.2.3,Linux x86_64,60.01680471,61b8f3437b89212fae0dfadf
7,3.0126,space,1.2694,0,228,228,335,1,,,5f105b47d36c8701ec112317,6437f2ef13f46ea53ed957e8,2023-04-13_13h18.12.202,PRaM,2021.2.3,Linux x86_64,60.01680471,61b8f3437b89212fae0dfadf
6,4.8582,space,3.3538,0,229,229,336,1,,,5f105b47d36c8701ec112317,6437f2ef13f46ea53ed957e8,2023-04-13_13h18.12.202,PRaM,2021.2.3,Linux x86_64,60.01680471,61b8f3437b89212fae0dfadf
4,2.2599,space,0.7502,0,230,230,344,1,,,5f105b47d36c8701ec112317,6437f2ef13f46ea53ed957e8,2023-04-13_13h18.12.202,PRaM,2021.2.3,Linux x86_64,60.01680471,61b8f3437b89212fae0dfadf
3,2.1103,space,0.9685,0,231,231,187,1,,,5f105b47d36c8701ec112317,6437f2ef13f46ea53ed957e8,2023-04-13_13h18.12.202,PRaM,2021.2.3,Linux x86_64,60.01680471,61b8f3437b89212fae0dfadf
6,3.176,space,1.5359,0,232,232,193,1,,,5f105b47d36c8701ec112317,6437f2ef13f46ea53ed957e8,2023-04-13_13h18.12.202,PRaM,2021.2.3,Linux x86_64,60.01680471,61b8f3437b89212fae0dfadf
7,2.6034,space,0.8769,0,233,233,114,1,,,5f105b47d36c8701ec112317,6437f2ef13f46ea53ed957e8,2023-04-13_13h18.12.202,PRaM,2021.2.3,Linux x86_64,60.01680471,61b8f3437b89212fae0dfadf
4,2.322,space,0.675,0,234,234,39,1,,,5f105b47d36c8701ec112317,6437f2ef13f46ea53ed957e8,2023-04-13_13h18.12.202,PRaM,2021.2.3,Linux x86_64,60.01680471,61b8f3437b89212fae0dfadf
6,2.0003,space,0.3982,0,235,235,196,1,,,5f105b47d36c8701ec112317,6437f2ef13f46ea53ed957e8,2023-04-13_13h18.12.202,PRaM,2021.2.3,Linux x86_64,60.01680471,61b8f3437b89212fae0dfadf
1,2.4338,space,0.7764,0,236,236,284,1,,,5f105b47d36c8701ec112317,6437f2ef13f46ea53ed957e8,2023-04-13_13h18.12.202,PRaM,2021.2.3,Linux x86_64,60.01680471,61b8f3437b89212fae0dfadf
6,3.0183,space,1.3505,0,237,237,105,1,,,5f105b47d36c8701ec112317,6437f2ef13f46ea53ed957e8,2023-04-13_13h18.12.202,PRaM,2021.2.3,Linux x86_64,60.01680471,61b8f3437b89212fae0dfadf
4,2.3373,space,0.9508,0,238,238,206,1,,,5f105b47d36c8701ec112317,6437f2ef13f46ea53ed957e8,2023-04-13_13h18.12.202,PRaM,2021.2.3,Linux x86_64,60.01680471,61b8f3437b89212fae0dfadf
3,2.5919,space,0.951,0,239,239,10,1,,,5f105b47d36c8701ec112317,6437f2ef13f46ea53ed957e8,2023-04-13_13h18.12.202,PRaM,2021.2.3,Linux x86_64,60.01680471,61b8f3437b89212fae0dfadf
2,2.4131,space,0.7712,0,240,240,15,1,,,5f105b47d36c8701ec112317,6437f2ef13f46ea53ed957e8,2023-04-13_13h18.12.202,PRaM,2021.2.3,Linux x86_64,60.01680471,61b8f3437b89212fae0dfadf
3,2.678,space,1.17,0,241,241,367,1,,,5f105b47d36c8701ec112317,6437f2ef13f46ea53ed957e8,2023-04-13_13h18.12.202,PRaM,2021.2.3,Linux x86_64,60.01680471,61b8f3437b89212fae0dfadf
3,2.8297,space,1.075,0,242,242,218,1,,,5f105b47d36c8701ec112317,6437f2ef13f46ea53ed957e8,2023-04-13_13h18.12.202,PRaM,2021.2.3,Linux x86_64,60.01680471,61b8f3437b89212fae0dfadf
3,2.2747,space,0.6043,0,243,243,294,1,,,5f105b47d36c8701ec112317,6437f2ef13f46ea53ed957e8,2023-04-13_13h18.12.202,PRaM,2021.2.3,Linux x86_64,60.01680471,61b8f3437b89212fae0dfadf
6,2.3824,space,0.7698,0,244,244,16,1,,,5f105b47d36c8701ec112317,6437f2ef13f46ea53ed957e8,2023-04-13_13h18.12.202,PRaM,2021.2.3,Linux x86_64,60.01680471,61b8f3437b89212fae0dfadf
3,2.6651,space,1.0173,0,245,245,250,1,,,5f105b47d36c8701ec112317,6437f2ef13f46ea53ed957e8,2023-04-13_13h18.12.202,PRaM,2021.2.3,Linux x86_64,60.01680471,61b8f3437b89212fae0dfadf
3,2.7255,space,1.1173,0,246,246,1,1,,,5f105b47d36c8701ec112317,6437f2ef13f46ea53ed957e8,2023-04-13_13h18.12.202,PRaM,2021.2.3,Linux x86_64,60.01680471,61b8f3437b89212fae0dfadf
1,2.2758,space,0.6366,0,247,247,106,1,,,5f105b47d36c8701ec112317,6437f2ef13f46ea53ed957e8,2023-04-13_13h18.12.202,PRaM,2021.2.3,Linux x86_64,60.01680471,61b8f3437b89212fae0dfadf
2,2.0942,space,0.4496,0,248,248,37,1,,,5f105b47d36c8701ec112317,6437f2ef13f46ea53ed957e8,2023-04-13_13h18.12.202,PRaM,2021.2.3,Linux x86_64,60.01680471,61b8f3437b89212fae0dfadf
2,2.4252,space,0.9071,0,249,249,113,1,,,5f105b47d36c8701ec112317,6437f2ef13f46ea53ed957e8,2023-04-13_13h18.12.202,PRaM,2021.2.3,Linux x86_64,60.01680471,61b8f3437b89212fae0dfadf
2,1.5975,space,0.6062,0,250,250,360,1,,,5f105b47d36c8701ec112317,6437f2ef13f46ea53ed957e8,2023-04-13_13h18.12.202,PRaM,2021.2.3,Linux x86_64,60.01680471,61b8f3437b89212fae0dfadf
6,3.8025,space,2.021,0,251,251,55,1,,,5f105b47d36c8701ec112317,6437f2ef13f46ea53ed957e8,2023-04-13_13h18.12.202,PRaM,2021.2.3,Linux x86_64,60.01680471,61b8f3437b89212fae0dfadf
7,2.524,space,0.7994,0,252,252,192,1,,,5f105b47d36c8701ec112317,6437f2ef13f46ea53ed957e8,2023-04-13_13h18.12.202,PRaM,2021.2.3,Linux x86_64,60.01680471,61b8f3437b89212fae0dfadf
6,4.5582,space,3.1034,0,253,253,80,1,,,5f105b47d36c8701ec112317,6437f2ef13f46ea53ed957e8,2023-04-13_13h18.12.202,PRaM,2021.2.3,Linux x86_64,60.01680471,61b8f3437b89212fae0dfadf
4,4.2772,space,2.5673,0,254,254,82,1,,,5f105b47d36c8701ec112317,6437f2ef13f46ea53ed957e8,2023-04-13_13h18.12.202,PRaM,2021.2.3,Linux x86_64,60.01680471,61b8f3437b89212fae0dfadf
3,2.1436,space,0.4803,0,255,255,343,1,,,5f105b47d36c8701ec112317,6437f2ef13f46ea53ed957e8,2023-04-13_13h18.12.202,PRaM,2021.2.3,Linux x86_64,60.01680471,61b8f3437b89212fae0dfadf
2,1.8507,space,0.3865,0,256,256,322,1,,,5f105b47d36c8701ec112317,6437f2ef13f46ea53ed957e8,2023-04-13_13h18.12.202,PRaM,2021.2.3,Linux x86_64,60.01680471,61b8f3437b89212fae0dfadf
3,3.3773,space,1.6662,0,257,257,95,1,,,5f105b47d36c8701ec112317,6437f2ef13f46ea53ed957e8,2023-04-13_13h18.12.202,PRaM,2021.2.3,Linux x86_64,60.01680471,61b8f3437b89212fae0dfadf
4,2.4238,space,0.6899,0,258,258,22,1,,,5f105b47d36c8701ec112317,6437f2ef13f46ea53ed957e8,2023-04-13_13h18.12.202,PRaM,2021.2.3,Linux x86_64,60.01680471,61b8f3437b89212fae0dfadf
4,1.9417,space,0.2747,0,259,259,33,1,,,5f105b47d36c8701ec112317,6437f2ef13f46ea53ed957e8,2023-04-13_13h18.12.202,PRaM,2021.2.3,Linux x86_64,60.01680471,61b8f3437b89212fae0dfadf
6,3.4574,space,1.6338,0,260,260,151,1,,,5f105b47d36c8701ec112317,6437f2ef13f46ea53ed957e8,2023-04-13_13h18.12.202,PRaM,2021.2.3,Linux x86_64,60.01680471,61b8f3437b89212fae0dfadf
2,2.6083,space,0.974,0,261,261,214,1,,,5f105b47d36c8701ec112317,6437f2ef13f46ea53ed957e8,2023-04-13_13h18.12.202,PRaM,2021.2.3,Linux x86_64,60.01680471,61b8f3437b89212fae0dfadf
2,2.4225,space,0.7022,0,262,262,191,1,,,5f105b47d36c8701ec112317,6437f2ef13f46ea53ed957e8,2023-04-13_13h18.12.202,PRaM,2021.2.3,Linux x86_64,60.01680471,61b8f3437b89212fae0dfadf
7,2.5158,space,0.8679,0,263,263,259,1,,,5f105b47d36c8701ec112317,6437f2ef13f46ea53ed957e8,2023-04-13_13h18.12.202,PRaM,2021.2.3,Linux x86_64,60.01680471,61b8f3437b89212fae0dfadf
3,2.3201,space,0.7912,0,264,264,311,1,,,5f105b47d36c8701ec112317,6437f2ef13f46ea53ed957e8,2023-04-13_13h18.12.202,PRaM,2021.2.3,Linux x86_64,60.01680471,61b8f3437b89212fae0dfadf
4,3.5801,space,1.9154,0,265,265,203,1,,,5f105b47d36c8701ec112317,6437f2ef13f46ea53ed957e8,2023-04-13_13h18.12.202,PRaM,2021.2.3,Linux x86_64,60.01680471,61b8f3437b89212fae0dfadf
6,1.9929,space,0.2812,0,266,266,340,1,,,5f105b47d36c8701ec112317,6437f2ef13f46ea53ed957e8,2023-04-13_13h18.12.202,PRaM,2021.2.3,Linux x86_64,60.01680471,61b8f3437b89212fae0dfadf
6,4.384,space,2.8346,0,267,267,170,1,,,5f105b47d36c8701ec112317,6437f2ef13f46ea53ed957e8,2023-04-13_13h18.12.202,PRaM,2021.2.3,Linux x86_64,60.01680471,61b8f3437b89212fae0dfadf
3,2.1771,space,0.5643,0,268,268,349,1,,,5f105b47d36c8701ec112317,6437f2ef13f46ea53ed957e8,2023-04-13_13h18.12.202,PRaM,2021.2.3,Linux x86_64,60.01680471,61b8f3437b89212fae0dfadf
6,2.5066,space,0.8034,0,269,269,180,1,,,5f105b47d36c8701ec112317,6437f2ef13f46ea53ed957e8,2023-04-13_13h18.12.202,PRaM,2021.2.3,Linux x86_64,60.01680471,61b8f3437b89212fae0dfadf
3,3.105,space,1.387,0,270,270,73,1,,,5f105b47d36c8701ec112317,6437f2ef13f46ea53ed957e8,2023-04-13_13h18.12.202,PRaM,2021.2.3,Linux x86_64,60.01680471,61b8f3437b89212fae0dfadf
1,2.8577,space,1.2184,0,271,271,63,1,,,5f105b47d36c8701ec112317,6437f2ef13f46ea53ed957e8,2023-04-13_13h18.12.202,PRaM,2021.2.3,Linux x86_64,60.01680471,61b8f3437b89212fae0dfadf
1,1.8579,space,0.2216,0,272,272,315,1,,,5f105b47d36c8701ec112317,6437f2ef13f46ea53ed957e8,2023-04-13_13h18.12.202,PRaM,2021.2.3,Linux x86_64,60.01680471,61b8f3437b89212fae0dfadf
2,1.8443,space,0.1715,0,273,273,224,1,,,5f105b47d36c8701ec112317,6437f2ef13f46ea53ed957e8,2023-04-13_13h18.12.202,PRaM,2021.2.3,Linux x86_64,60.01680471,61b8f3437b89212fae0dfadf
4,2.0084,space,0.3003,0,274,274,271,1,,,5f105b47d36c8701ec112317,6437f2ef13f46ea53ed957e8,2023-04-13_13h18.12.202,PRaM,2021.2.3,Linux x86_64,60.01680471,61b8f3437b89212fae0dfadf
7,2.4587,space,0.7518,0,275,275,134,1,,,5f105b47d36c8701ec112317,6437f2ef13f46ea53ed957e8,2023-04-13_13h18.12.202,PRaM,2021.2.3,Linux x86_64,60.01680471,61b8f3437b89212fae0dfadf
5,4.5814,space,2.8061,0,276,276,202,1,,,5f105b47d36c8701ec112317,6437f2ef13f46ea53ed957e8,2023-04-13_13h18.12.202,PRaM,2021.2.3,Linux x86_64,60.01680471,61b8f3437b89212fae0dfadf
4,2.4327,space,0.7066,0,277,277,44,1,,,5f105b47d36c8701ec112317,6437f2ef13f46ea53ed957e8,2023-04-13_13h18.12.202,PRaM,2021.2.3,Linux x86_64,60.01680471,61b8f3437b89212fae0dfadf
4,2.5566,space,0.8435,0,278,278,342,1,,,5f105b47d36c8701ec112317,6437f2ef13f46ea53ed957e8,2023-04-13_13h18.12.202,PRaM,2021.2.3,Linux x86_64,60.01680471,61b8f3437b89212fae0dfadf
2,2.5188,space,0.7628,0,279,279,108,1,,,5f105b47d36c8701ec112317,6437f2ef13f46ea53ed957e8,2023-04-13_13h18.12.202,PRaM,2021.2.3,Linux x86_64,60.01680471,61b8f3437b89212fae0dfadf
3,1.9097,space,0.2082,0,280,280,77,1,,,5f105b47d36c8701ec112317,6437f2ef13f46ea53ed957e8,2023-04-13_13h18.12.202,PRaM,2021.2.3,Linux x86_64,60.01680471,61b8f3437b89212fae0dfadf
5,2.6363,space,0.9172,0,281,281,351,1,,,5f105b47d36c8701ec112317,6437f2ef13f46ea53ed957e8,2023-04-13_13h18.12.202,PRaM,2021.2.3,Linux x86_64,60.01680471,61b8f3437b89212fae0dfadf
4,2.3134,space,0.6213,0,282,282,81,1,,,5f105b47d36c8701ec112317,6437f2ef13f46ea53ed957e8,2023-04-13_13h18.12.202,PRaM,2021.2.3,Linux x86_64,60.01680471,61b8f3437b89212fae0dfadf
4,3.2231,space,1.5191,0,283,283,324,1,,,5f105b47d36c8701ec112317,6437f2ef13f46ea53ed957e8,2023-04-13_13h18.12.202,PRaM,2021.2.3,Linux x86_64,60.01680471,61b8f3437b89212fae0dfadf
6,1.961,space,0.2618,0,284,284,211,1,,,5f105b47d36c8701ec112317,6437f2ef13f46ea53ed957e8,2023-04-13_13h18.12.202,PRaM,2021.2.3,Linux x86_64,60.01680471,61b8f3437b89212fae0dfadf
7,1.9572,space,0.2172,0,285,285,118,1,,,5f105b47d36c8701ec112317,6437f2ef13f46ea53ed957e8,2023-04-13_13h18.12.202,PRaM,2021.2.3,Linux x86_64,60.01680471,61b8f3437b89212fae0dfadf
6,2.2078,space,0.4818,0,286,286,43,1,,,5f105b47d36c8701ec112317,6437f2ef13f46ea53ed957e8,2023-04-13_13h18.12.202,PRaM,2021.2.3,Linux x86_64,60.01680471,61b8f3437b89212fae0dfadf
6,2.3391,space,0.59,0,287,287,142,1,,,5f105b47d36c8701ec112317,6437f2ef13f46ea53ed957e8,2023-04-13_13h18.12.202,PRaM,2021.2.3,Linux x86_64,60.01680471,61b8f3437b89212fae0dfadf
7,1.8084,space,0.0214,0,288,288,123,1,,,5f105b47d36c8701ec112317,6437f2ef13f46ea53ed957e8,2023-04-13_13h18.12.202,PRaM,2021.2.3,Linux x86_64,60.01680471,61b8f3437b89212fae0dfadf
7,2.3005,space,0.5528,0,289,289,255,1,,,5f105b47d36c8701ec112317,6437f2ef13f46ea53ed957e8,2023-04-13_13h18.12.202,PRaM,2021.2.3,Linux x86_64,60.01680471,61b8f3437b89212fae0dfadf
2,3.5908,space,1.8375,0,290,290,234,1,,,5f105b47d36c8701ec112317,6437f2ef13f46ea53ed957e8,2023-04-13_13h18.12.202,PRaM,2021.2.3,Linux x86_64,60.01680471,61b8f3437b89212fae0dfadf
3,3.7195,space,2.8497,0,291,291,150,1,,,5f105b47d36c8701ec112317,6437f2ef13f46ea53ed957e8,2023-04-13_13h18.12.202,PRaM,2021.2.3,Linux x86_64,60.01680471,61b8f3437b89212fae0dfadf
5,2.1404,space,1.0202,0,292,292,119,1,,,5f105b47d36c8701ec112317,6437f2ef13f46ea53ed957e8,2023-04-13_13h18.12.202,PRaM,2021.2.3,Linux x86_64,60.01680471,61b8f3437b89212fae0dfadf
6,4.404,space,3.8176,0,293,293,14,1,,,5f105b47d36c8701ec112317,6437f2ef13f46ea53ed957e8,2023-04-13_13h18.12.202,PRaM,2021.2.3,Linux x86_64,60.01680471,61b8f3437b89212fae0dfadf
2,2.3104,space,0.8374,0,294,294,144,1,,,5f105b47d36c8701ec112317,6437f2ef13f46ea53ed957e8,2023-04-13_13h18.12.202,PRaM,2021.2.3,Linux x86_64,60.01680471,61b8f3437b89212fae0dfadf
3,2.5123,space,1.002,0,295,295,94,1,,,5f105b47d36c8701ec112317,6437f2ef13f46ea53ed957e8,2023-04-13_13h18.12.202,PRaM,2021.2.3,Linux x86_64,60.01680471,61b8f3437b89212fae0dfadf
2,13.9241,space,12.4978,0,296,296,13,1,,,5f105b47d36c8701ec112317,6437f2ef13f46ea53ed957e8,2023-04-13_13h18.12.202,PRaM,2021.2.3,Linux x86_64,60.01680471,61b8f3437b89212fae0dfadf
2,1.776,space,0.1532,0,297,297,309,1,,,5f105b47d36c8701ec112317,6437f2ef13f46ea53ed957e8,2023-04-13_13h18.12.202,PRaM,2021.2.3,Linux x86_64,60.01680471,61b8f3437b89212fae0dfadf
3,1.4247,space,0.9855,0,298,298,28,1,,,5f105b47d36c8701ec112317,6437f2ef13f46ea53ed957e8,2023-04-13_13h18.12.202,PRaM,2021.2.3,Linux x86_64,60.01680471,61b8f3437b89212fae0dfadf
2,4.0729,space,2.3867,0,299,299,295,1,,,5f105b47d36c8701ec112317,6437f2ef13f46ea53ed957e8,2023-04-13_13h18.12.202,PRaM,2021.2.3,Linux x86_64,60.01680471,61b8f3437b89212fae0dfadf
4,1.8583,space,0.3368,0,300,300,172,1,,,5f105b47d36c8701ec112317,6437f2ef13f46ea53ed957e8,2023-04-13_13h18.12.202,PRaM,2021.2.3,Linux x86_64,60.01680471,61b8f3437b89212fae0dfadf
7,3.2257,space,1.829,0,301,301,72,1,,,5f105b47d36c8701ec112317,6437f2ef13f46ea53ed957e8,2023-04-13_13h18.12.202,PRaM,2021.2.3,Linux x86_64,60.01680471,61b8f3437b89212fae0dfadf
6,1.6209,space,0.1019,0,302,302,200,1,,,5f105b47d36c8701ec112317,6437f2ef13f46ea53ed957e8,2023-04-13_13h18.12.202,PRaM,2021.2.3,Linux x86_64,60.01680471,61b8f3437b89212fae0dfadf
3,2.9933,space,2.7153,0,303,303,175,1,,,5f105b47d36c8701ec112317,6437f2ef13f46ea53ed957e8,2023-04-13_13h18.12.202,PRaM,2021.2.3,Linux x86_64,60.01680471,61b8f3437b89212fae0dfadf
8,2.8489,space,1.1839,0,304,304,281,1,,,5f105b47d36c8701ec112317,6437f2ef13f46ea53ed957e8,2023-04-13_13h18.12.202,PRaM,2021.2.3,Linux x86_64,60.01680471,61b8f3437b89212fae0dfadf
6,2.1717,space,0.7917,0,305,305,12,1,,,5f105b47d36c8701ec112317,6437f2ef13f46ea53ed957e8,2023-04-13_13h18.12.202,PRaM,2021.2.3,Linux x86_64,60.01680471,61b8f3437b89212fae0dfadf
6,3.5136,space,1.7848,0,306,306,133,1,,,5f105b47d36c8701ec112317,6437f2ef13f46ea53ed957e8,2023-04-13_13h18.12.202,PRaM,2021.2.3,Linux x86_64,60.01680471,61b8f3437b89212fae0dfadf
3,13.2413,space,11.7849,0,307,307,146,1,,,5f105b47d36c8701ec112317,6437f2ef13f46ea53ed957e8,2023-04-13_13h18.12.202,PRaM,2021.2.3,Linux x86_64,60.01680471,61b8f3437b89212fae0dfadf
6,7.8645,space,6.5508,0,308,308,47,1,,,5f105b47d36c8701ec112317,6437f2ef13f46ea53ed957e8,2023-04-13_13h18.12.202,PRaM,2021.2.3,Linux x86_64,60.01680471,61b8f3437b89212fae0dfadf
5,5.4915,space,3.9872,0,309,309,182,1,,,5f105b47d36c8701ec112317,6437f2ef13f46ea53ed957e8,2023-04-13_13h18.12.202,PRaM,2021.2.3,Linux x86_64,60.01680471,61b8f3437b89212fae0dfadf
3,3.9431,space,2.2017,0,310,310,45,1,,,5f105b47d36c8701ec112317,6437f2ef13f46ea53ed957e8,2023-04-13_13h18.12.202,PRaM,2021.2.3,Linux x86_64,60.01680471,61b8f3437b89212fae0dfadf
6,7.1821,space,5.7854,0,311,311,223,1,,,5f105b47d36c8701ec112317,6437f2ef13f46ea53ed957e8,2023-04-13_13h18.12.202,PRaM,2021.2.3,Linux x86_64,60.01680471,61b8f3437b89212fae0dfadf
7,1.6402,space,0.0053,0,312,312,244,1,,,5f105b47d36c8701ec112317,6437f2ef13f46ea53ed957e8,2023-04-13_13h18.12.202,PRaM,2021.2.3,Linux x86_64,60.01680471,61b8f3437b89212fae0dfadf
6,1.6525,space,0.0557,0,313,313,352,1,,,5f105b47d36c8701ec112317,6437f2ef13f46ea53ed957e8,2023-04-13_13h18.12.202,PRaM,2021.2.3,Linux x86_64,60.01680471,61b8f3437b89212fae0dfadf
6,1.6319,space,0.2373,0,314,314,145,1,,,5f105b47d36c8701ec112317,6437f2ef13f46ea53ed957e8,2023-04-13_13h18.12.202,PRaM,2021.2.3,Linux x86_64,60.01680471,61b8f3437b89212fae0dfadf
2,2.5244,space,1.25,0,315,315,8,1,,,5f105b47d36c8701ec112317,6437f2ef13f46ea53ed957e8,2023-04-13_13h18.12.202,PRaM,2021.2.3,Linux x86_64,60.01680471,61b8f3437b89212fae0dfadf
7,37.1332,space,35.3875,0,316,316,365,1,,,5f105b47d36c8701ec112317,6437f2ef13f46ea53ed957e8,2023-04-13_13h18.12.202,PRaM,2021.2.3,Linux x86_64,60.01680471,61b8f3437b89212fae0dfadf
8,1.4873,space,0.2028,0,317,317,302,1,,,5f105b47d36c8701ec112317,6437f2ef13f46ea53ed957e8,2023-04-13_13h18.12.202,PRaM,2021.2.3,Linux x86_64,60.01680471,61b8f3437b89212fae0dfadf
2,1.7785,space,0.0353,0,318,318,2,1,,,5f105b47d36c8701ec112317,6437f2ef13f46ea53ed957e8,2023-04-13_13h18.12.202,PRaM,2021.2.3,Linux x86_64,60.01680471,61b8f3437b89212fae0dfadf
5,2.0073,space,0.2018,0,319,319,29,1,,,5f105b47d36c8701ec112317,6437f2ef13f46ea53ed957e8,2023-04-13_13h18.12.202,PRaM,2021.2.3,Linux x86_64,60.01680471,61b8f3437b89212fae0dfadf
3,1.9821,space,0.1861,0,320,320,87,1,,,5f105b47d36c8701ec112317,6437f2ef13f46ea53ed957e8,2023-04-13_13h18.12.202,PRaM,2021.2.3,Linux x86_64,60.01680471,61b8f3437b89212fae0dfadf
4,1.6932,space,0.4008,0,321,321,169,1,,,5f105b47d36c8701ec112317,6437f2ef13f46ea53ed957e8,2023-04-13_13h18.12.202,PRaM,2021.2.3,Linux x86_64,60.01680471,61b8f3437b89212fae0dfadf
3,2.0819,space,0.3001,0,322,322,23,1,,,5f105b47d36c8701ec112317,6437f2ef13f46ea53ed957e8,2023-04-13_13h18.12.202,PRaM,2021.2.3,Linux x86_64,60.01680471,61b8f3437b89212fae0dfadf
6,2.0074,space,0.2586,0,323,323,76,1,,,5f105b47d36c8701ec112317,6437f2ef13f46ea53ed957e8,2023-04-13_13h18.12.202,PRaM,2021.2.3,Linux x86_64,60.01680471,61b8f3437b89212fae0dfadf
6,1.79,space,0.5051,0,324,324,366,1,,,5f105b47d36c8701ec112317,6437f2ef13f46ea53ed957e8,2023-04-13_13h18.12.202,PRaM,2021.2.3,Linux x86_64,60.01680471,61b8f3437b89212fae0dfadf
2,1.7942,space,0.1439,0,325,325,31,1,,,5f105b47d36c8701ec112317,6437f2ef13f46ea53ed957e8,2023-04-13_13h18.12.202,PRaM,2021.2.3,Linux x86_64,60.01680471,61b8f3437b89212fae0dfadf
3,1.3895,space,0.1532,0,326,326,272,1,,,5f105b47d36c8701ec112317,6437f2ef13f46ea53ed957e8,2023-04-13_13h18.12.202,PRaM,2021.2.3,Linux x86_64,60.01680471,61b8f3437b89212fae0dfadf
7,2.5778,space,1.0534,0,327,327,297,1,,,5f105b47d36c8701ec112317,6437f2ef13f46ea53ed957e8,2023-04-13_13h18.12.202,PRaM,2021.2.3,Linux x86_64,60.01680471,61b8f3437b89212fae0dfadf
6,2.0073,space,0.3034,0,328,328,7,1,,,5f105b47d36c8701ec112317,6437f2ef13f46ea53ed957e8,2023-04-13_13h18.12.202,PRaM,2021.2.3,Linux x86_64,60.01680471,61b8f3437b89212fae0dfadf
6,1.9921,space,0.2198,0,329,329,166,1,,,5f105b47d36c8701ec112317,6437f2ef13f46ea53ed957e8,2023-04-13_13h18.12.202,PRaM,2021.2.3,Linux x86_64,60.01680471,61b8f3437b89212fae0dfadf
4,1.8456,space,0.0717,0,330,330,57,1,,,5f105b47d36c8701ec112317,6437f2ef13f46ea53ed957e8,2023-04-13_13h18.12.202,PRaM,2021.2.3,Linux x86_64,60.01680471,61b8f3437b89212fae0dfadf
2,1.79,space,0.1354,0,331,331,91,1,,,5f105b47d36c8701ec112317,6437f2ef13f46ea53ed957e8,2023-04-13_13h18.12.202,PRaM,2021.2.3,Linux x86_64,60.01680471,61b8f3437b89212fae0dfadf
9,2.0111,space,0.3106,0,332,332,207,1,,,5f105b47d36c8701ec112317,6437f2ef13f46ea53ed957e8,2023-04-13_13h18.12.202,PRaM,2021.2.3,Linux x86_64,60.01680471,61b8f3437b89212fae0dfadf
7,2.2606,space,0.5968,0,333,333,62,1,,,5f105b47d36c8701ec112317,6437f2ef13f46ea53ed957e8,2023-04-13_13h18.12.202,PRaM,2021.2.3,Linux x86_64,60.01680471,61b8f3437b89212fae0dfadf
6,1.5431,space,0.2149,0,334,334,264,1,,,5f105b47d36c8701ec112317,6437f2ef13f46ea53ed957e8,2023-04-13_13h18.12.202,PRaM,2021.2.3,Linux x86_64,60.01680471,61b8f3437b89212fae0dfadf
1,1.7654,space,0.0609,0,335,335,300,1,,,5f105b47d36c8701ec112317,6437f2ef13f46ea53ed957e8,2023-04-13_13h18.12.202,PRaM,2021.2.3,Linux x86_64,60.01680471,61b8f3437b89212fae0dfadf
9,2.4319,space,1.0015,0,336,336,363,1,,,5f105b47d36c8701ec112317,6437f2ef13f46ea53ed957e8,2023-04-13_13h18.12.202,PRaM,2021.2.3,Linux x86_64,60.01680471,61b8f3437b89212fae0dfadf
2,2.347,space,0.551,0,337,337,70,1,,,5f105b47d36c8701ec112317,6437f2ef13f46ea53ed957e8,2023-04-13_13h18.12.202,PRaM,2021.2.3,Linux x86_64,60.01680471,61b8f3437b89212fae0dfadf
7,2.0636,space,0.584,0,338,338,156,1,,,5f105b47d36c8701ec112317,6437f2ef13f46ea53ed957e8,2023-04-13_13h18.12.202,PRaM,2021.2.3,Linux x86_64,60.01680471,61b8f3437b89212fae0dfadf
2,2.0074,space,0.2695,0,339,339,245,1,,,5f105b47d36c8701ec112317,6437f2ef13f46ea53ed957e8,2023-04-13_13h18.12.202,PRaM,2021.2.3,Linux x86_64,60.01680471,61b8f3437b89212fae0dfadf
3,1.8772,space,0.6537,0,340,340,246,1,,,5f105b47d36c8701ec112317,6437f2ef13f46ea53ed957e8,2023-04-13_13h18.12.202,PRaM,2021.2.3,Linux x86_64,60.01680471,61b8f3437b89212fae0dfadf
2,2.5263,space,0.7389,0,341,341,122,1,,,5f105b47d36c8701ec112317,6437f2ef13f46ea53ed957e8,2023-04-13_13h18.12.202,PRaM,2021.2.3,Linux x86_64,60.01680471,61b8f3437b89212fae0dfadf
8,1.9781,space,0.3053,0,342,342,115,1,,,5f105b47d36c8701ec112317,6437f2ef13f46ea53ed957e8,2023-04-13_13h18.12.202,PRaM,2021.2.3,Linux x86_64,60.01680471,61b8f3437b89212fae0dfadf
3,1.6807,space,0.5701,0,343,343,34,1,,,5f105b47d36c8701ec112317,6437f2ef13f46ea53ed957e8,2023-04-13_13h18.12.202,PRaM,2021.2.3,Linux x86_64,60.01680471,61b8f3437b89212fae0dfadf
6,2.6267,space,1.1835,0,344,344,176,1,,,5f105b47d36c8701ec112317,6437f2ef13f46ea53ed957e8,2023-04-13_13h18.12.202,PRaM,2021.2.3,Linux x86_64,60.01680471,61b8f3437b89212fae0dfadf
4,1.9939,space,0.2576,0,345,345,68,1,,,5f105b47d36c8701ec112317,6437f2ef13f46ea53ed957e8,2023-04-13_13h18.12.202,PRaM,2021.2.3,Linux x86_64,60.01680471,61b8f3437b89212fae0dfadf
7,2.6562,space,0.9366,0,346,346,162,1,,,5f105b47d36c8701ec112317,6437f2ef13f46ea53ed957e8,2023-04-13_13h18.12.202,PRaM,2021.2.3,Linux x86_64,60.01680471,61b8f3437b89212fae0dfadf
8,9.8811,space,8.4497,0,347,347,86,1,,,5f105b47d36c8701ec112317,6437f2ef13f46ea53ed957e8,2023-04-13_13h18.12.202,PRaM,2021.2.3,Linux x86_64,60.01680471,61b8f3437b89212fae0dfadf
6,1.7088,space,0.002,0,348,348,19,1,,,5f105b47d36c8701ec112317,6437f2ef13f46ea53ed957e8,2023-04-13_13h18.12.202,PRaM,2021.2.3,Linux x86_64,60.01680471,61b8f3437b89212fae0dfadf
5,1.9192,space,0.1424,0,349,349,90,1,,,5f105b47d36c8701ec112317,6437f2ef13f46ea53ed957e8,2023-04-13_13h18.12.202,PRaM,2021.2.3,Linux x86_64,60.01680471,61b8f3437b89212fae0dfadf
6,9.6245,space,7.9144,0,350,350,306,1,,,5f105b47d36c8701ec112317,6437f2ef13f46ea53ed957e8,2023-04-13_13h18.12.202,PRaM,2021.2.3,Linux x86_64,60.01680471,61b8f3437b89212fae0dfadf
7,8.0405,space,6.3009,0,351,351,327,1,,,5f105b47d36c8701ec112317,6437f2ef13f46ea53ed957e8,2023-04-13_13h18.12.202,PRaM,2021.2.3,Linux x86_64,60.01680471,61b8f3437b89212fae0dfadf
4,2.3934,space,0.9543,0,352,352,221,1,,,5f105b47d36c8701ec112317,6437f2ef13f46ea53ed957e8,2023-04-13_13h18.12.202,PRaM,2021.2.3,Linux x86_64,60.01680471,61b8f3437b89212fae0dfadf
7,1.9937,space,0.2679,0,353,353,178,1,,,5f105b47d36c8701ec112317,6437f2ef13f46ea53ed957e8,2023-04-13_13h18.12.202,PRaM,2021.2.3,Linux x86_64,60.01680471,61b8f3437b89212fae0dfadf
2,1.6921,space,2.0838,0,354,354,251,1,,,5f105b47d36c8701ec112317,6437f2ef13f46ea53ed957e8,2023-04-13_13h18.12.202,PRaM,2021.2.3,Linux x86_64,60.01680471,61b8f3437b89212fae0dfadf
7,2.1995,space,0.5522,0,355,355,120,1,,,5f105b47d36c8701ec112317,6437f2ef13f46ea53ed957e8,2023-04-13_13h18.12.202,PRaM,2021.2.3,Linux x86_64,60.01680471,61b8f3437b89212fae0dfadf
6,1.6919,space,0.451,0,356,356,159,1,,,5f105b47d36c8701ec112317,6437f2ef13f46ea53ed957e8,2023-04-13_13h18.12.202,PRaM,2021.2.3,Linux x86_64,60.01680471,61b8f3437b89212fae0dfadf
5,1.8767,space,0.1426,0,357,357,173,1,,,5f105b47d36c8701ec112317,6437f2ef13f46ea53ed957e8,2023-04-13_13h18.12.202,PRaM,2021.2.3,Linux x86_64,60.01680471,61b8f3437b89212fae0dfadf
2,1.7402,space,0.3886,0,358,358,292,1,,,5f105b47d36c8701ec112317,6437f2ef13f46ea53ed957e8,2023-04-13_13h18.12.202,PRaM,2021.2.3,Linux x86_64,60.01680471,61b8f3437b89212fae0dfadf
6,2.5613,space,0.8851,0,359,359,136,1,,,5f105b47d36c8701ec112317,6437f2ef13f46ea53ed957e8,2023-04-13_13h18.12.202,PRaM,2021.2.3,Linux x86_64,60.01680471,61b8f3437b89212fae0dfadf
8,2.0274,space,0.3515,0,360,360,208,1,,,5f105b47d36c8701ec112317,6437f2ef13f46ea53ed957e8,2023-04-13_13h18.12.202,PRaM,2021.2.3,Linux x86_64,60.01680471,61b8f3437b89212fae0dfadf
5,2.4034,space,0.5909,0,361,361,199,1,,,5f105b47d36c8701ec112317,6437f2ef13f46ea53ed957e8,2023-04-13_13h18.12.202,PRaM,2021.2.3,Linux x86_64,60.01680471,61b8f3437b89212fae0dfadf
3,1.8387,space,0.105,0,362,362,161,1,,,5f105b47d36c8701ec112317,6437f2ef13f46ea53ed957e8,2023-04-13_13h18.12.202,PRaM,2021.2.3,Linux x86_64,60.01680471,61b8f3437b89212fae0dfadf
8,2.728,space,1.3214,0,363,363,143,1,,,5f105b47d36c8701ec112317,6437f2ef13f46ea53ed957e8,2023-04-13_13h18.12.202,PRaM,2021.2.3,Linux x86_64,60.01680471,61b8f3437b89212fae0dfadf
3,7.2443,space,5.5325,0,364,364,228,1,,,5f105b47d36c8701ec112317,6437f2ef13f46ea53ed957e8,2023-04-13_13h18.12.202,PRaM,2021.2.3,Linux x86_64,60.01680471,61b8f3437b89212fae0dfadf
6,9.4239,space,7.7676,0,365,365,213,1,,,5f105b47d36c8701ec112317,6437f2ef13f46ea53ed957e8,2023-04-13_13h18.12.202,PRaM,2021.2.3,Linux x86_64,60.01680471,61b8f3437b89212fae0dfadf
3,5.6695,space,3.9461,0,366,366,375,1,,,5f105b47d36c8701ec112317,6437f2ef13f46ea53ed957e8,2023-04-13_13h18.12.202,PRaM,2021.2.3,Linux x86_64,60.01680471,61b8f3437b89212fae0dfadf
6,2.5605,space,1.1875,0,367,367,121,1,,,5f105b47d36c8701ec112317,6437f2ef13f46ea53ed957e8,2023-04-13_13h18.12.202,PRaM,2021.2.3,Linux x86_64,60.01680471,61b8f3437b89212fae0dfadf
7,2.2219,space,0.6877,0,368,368,230,1,,,5f105b47d36c8701ec112317,6437f2ef13f46ea53ed957e8,2023-04-13_13h18.12.202,PRaM,2021.2.3,Linux x86_64,60.01680471,61b8f3437b89212fae0dfadf
3,3.2236,space,1.5018,0,369,369,49,1,,,5f105b47d36c8701ec112317,6437f2ef13f46ea53ed957e8,2023-04-13_13h18.12.202,PRaM,2021.2.3,Linux x86_64,60.01680471,61b8f3437b89212fae0dfadf
5,2.1928,space,0.4244,0,370,370,232,1,,,5f105b47d36c8701ec112317,6437f2ef13f46ea53ed957e8,2023-04-13_13h18.12.202,PRaM,2021.2.3,Linux x86_64,60.01680471,61b8f3437b89212fae0dfadf
3,1.9914,space,0.2375,0,371,371,18,1,,,5f105b47d36c8701ec112317,6437f2ef13f46ea53ed957e8,2023-04-13_13h18.12.202,PRaM,2021.2.3,Linux x86_64,60.01680471,61b8f3437b89212fae0dfadf
7,1.9741,space,0.2678,0,372,372,140,1,,,5f105b47d36c8701ec112317,6437f2ef13f46ea53ed957e8,2023-04-13_13h18.12.202,PRaM,2021.2.3,Linux x86_64,60.01680471,61b8f3437b89212fae0dfadf
6,3.4398,space,1.7189,0,373,373,269,1,,,5f105b47d36c8701ec112317,6437f2ef13f46ea53ed957e8,2023-04-13_13h18.12.202,PRaM,2021.2.3,Linux x86_64,60.01680471,61b8f3437b89212fae0dfadf
3,2.1959,space,0.8193,0,374,374,109,1,,,5f105b47d36c8701ec112317,6437f2ef13f46ea53ed957e8,2023-04-13_13h18.12.202,PRaM,2021.2.3,Linux x86_64,60.01680471,61b8f3437b89212fae0dfadf
2,1.6802,space,0.4496,0,375,375,299,1,,,5f105b47d36c8701ec112317,6437f2ef13f46ea53ed957e8,2023-04-13_13h18.12.202,PRaM,2021.2.3,Linux x86_64,60.01680471,61b8f3437b89212fae0dfadf
3,6.3928,space,4.6344,0,376,376,260,1,,,5f105b47d36c8701ec112317,6437f2ef13f46ea53ed957e8,2023-04-13_13h18.12.202,PRaM,2021.2.3,Linux x86_64,60.01680471,61b8f3437b89212fae0dfadf
8,2.6389,space,0.9727,0,377,377,75,1,,,5f105b47d36c8701ec112317,6437f2ef13f46ea53ed957e8,2023-04-13_13h18.12.202,PRaM,2021.2.3,Linux x86_64,60.01680471,61b8f3437b89212fae0dfadf
