Rating.response,Rating.rt,EndTrial.keys,EndTrial.rt,trials.thisRepN,trials.thisTrialN,trials.thisN,trials.thisIndex,trials.ran,Pos1,Pos2,participant,session,date,expName,psychopyVersion,OS,frameRate,study_id
3,5.8787,space,5.3798,0,0,0,213,1,,,5f483afd936e951d89408736,64377315aa362cdc4fe8bdc8,2023-04-12_23h16.04.839,PRaM,2021.2.3,Win32,60.14675809,61b8f3437b89212fae0dfadf
1,3.4825,space,2.1023,0,1,1,162,1,,,5f483afd936e951d89408736,64377315aa362cdc4fe8bdc8,2023-04-12_23h16.04.839,PRaM,2021.2.3,Win32,60.14675809,61b8f3437b89212fae0dfadf
6,2.6889,space,1.3166,0,2,2,45,1,,,5f483afd936e951d89408736,64377315aa362cdc4fe8bdc8,2023-04-12_23h16.04.839,PRaM,2021.2.3,Win32,60.14675809,61b8f3437b89212fae0dfadf
5,3.295,space,3.903,0,3,3,186,1,,,5f483afd936e951d89408736,64377315aa362cdc4fe8bdc8,2023-04-12_23h16.04.839,PRaM,2021.2.3,Win32,60.14675809,61b8f3437b89212fae0dfadf
1,2.9943,space,1.5167,0,4,4,41,1,,,5f483afd936e951d89408736,64377315aa362cdc4fe8bdc8,2023-04-12_23h16.04.839,PRaM,2021.2.3,Win32,60.14675809,61b8f3437b89212fae0dfadf
7,2.9125,space,1.6002,0,5,5,277,1,,,5f483afd936e951d89408736,64377315aa362cdc4fe8bdc8,2023-04-12_23h16.04.839,PRaM,2021.2.3,Win32,60.14675809,61b8f3437b89212fae0dfadf
7,8.2734,space,8.8404,0,6,6,270,1,,,5f483afd936e951d89408736,64377315aa362cdc4fe8bdc8,2023-04-12_23h16.04.839,PRaM,2021.2.3,Win32,60.14675809,61b8f3437b89212fae0dfadf
4,5.7246,space,5.4489,0,7,7,169,1,,,5f483afd936e951d89408736,64377315aa362cdc4fe8bdc8,2023-04-12_23h16.04.839,PRaM,2021.2.3,Win32,60.14675809,61b8f3437b89212fae0dfadf
6,5.3017,space,4.501,0,8,8,118,1,,,5f483afd936e951d89408736,64377315aa362cdc4fe8bdc8,2023-04-12_23h16.04.839,PRaM,2021.2.3,Win32,60.14675809,61b8f3437b89212fae0dfadf
4,23.2672,space,23.6479,0,9,9,228,1,,,5f483afd936e951d89408736,64377315aa362cdc4fe8bdc8,2023-04-12_23h16.04.839,PRaM,2021.2.3,Win32,60.14675809,61b8f3437b89212fae0dfadf
7,27.7398,space,27.2914,0,10,10,363,1,,,5f483afd936e951d89408736,64377315aa362cdc4fe8bdc8,2023-04-12_23h16.04.839,PRaM,2021.2.3,Win32,60.14675809,61b8f3437b89212fae0dfadf
5,19.9316,space,19.1733,0,11,11,110,1,,,5f483afd936e951d89408736,64377315aa362cdc4fe8bdc8,2023-04-12_23h16.04.839,PRaM,2021.2.3,Win32,60.14675809,61b8f3437b89212fae0dfadf
5,32.272,space,30.7215,0,12,12,48,1,,,5f483afd936e951d89408736,64377315aa362cdc4fe8bdc8,2023-04-12_23h16.04.839,PRaM,2021.2.3,Win32,60.14675809,61b8f3437b89212fae0dfadf
8,2.9259,space,1.8395,0,13,13,154,1,,,5f483afd936e951d89408736,64377315aa362cdc4fe8bdc8,2023-04-12_23h16.04.839,PRaM,2021.2.3,Win32,60.14675809,61b8f3437b89212fae0dfadf
3,39.7014,space,38.5886,0,14,14,253,1,,,5f483afd936e951d89408736,64377315aa362cdc4fe8bdc8,2023-04-12_23h16.04.839,PRaM,2021.2.3,Win32,60.14675809,61b8f3437b89212fae0dfadf
3,9.5452,space,10.549,0,15,15,238,1,,,5f483afd936e951d89408736,64377315aa362cdc4fe8bdc8,2023-04-12_23h16.04.839,PRaM,2021.2.3,Win32,60.14675809,61b8f3437b89212fae0dfadf
2,3.132,space,2.4488,0,16,16,359,1,,,5f483afd936e951d89408736,64377315aa362cdc4fe8bdc8,2023-04-12_23h16.04.839,PRaM,2021.2.3,Win32,60.14675809,61b8f3437b89212fae0dfadf
8,36.3474,space,36.6716,0,17,17,137,1,,,5f483afd936e951d89408736,64377315aa362cdc4fe8bdc8,2023-04-12_23h16.04.839,PRaM,2021.2.3,Win32,60.14675809,61b8f3437b89212fae0dfadf
3,12.154,space,10.6909,0,18,18,265,1,,,5f483afd936e951d89408736,64377315aa362cdc4fe8bdc8,2023-04-12_23h16.04.839,PRaM,2021.2.3,Win32,60.14675809,61b8f3437b89212fae0dfadf
2,3.9439,space,6.0477,0,19,19,96,1,,,5f483afd936e951d89408736,64377315aa362cdc4fe8bdc8,2023-04-12_23h16.04.839,PRaM,2021.2.3,Win32,60.14675809,61b8f3437b89212fae0dfadf
2,1.8232,space,1.1826,0,20,20,365,1,,,5f483afd936e951d89408736,64377315aa362cdc4fe8bdc8,2023-04-12_23h16.04.839,PRaM,2021.2.3,Win32,60.14675809,61b8f3437b89212fae0dfadf
3,4.8537,space,3.7336,0,21,21,298,1,,,5f483afd936e951d89408736,64377315aa362cdc4fe8bdc8,2023-04-12_23h16.04.839,PRaM,2021.2.3,Win32,60.14675809,61b8f3437b89212fae0dfadf
2,2.7016,space,1.2205,0,22,22,283,1,,,5f483afd936e951d89408736,64377315aa362cdc4fe8bdc8,2023-04-12_23h16.04.839,PRaM,2021.2.3,Win32,60.14675809,61b8f3437b89212fae0dfadf
2,6.0742,space,4.7633,0,23,23,324,1,,,5f483afd936e951d89408736,64377315aa362cdc4fe8bdc8,2023-04-12_23h16.04.839,PRaM,2021.2.3,Win32,60.14675809,61b8f3437b89212fae0dfadf
1,3.1192,space,1.6362,0,24,24,27,1,,,5f483afd936e951d89408736,64377315aa362cdc4fe8bdc8,2023-04-12_23h16.04.839,PRaM,2021.2.3,Win32,60.14675809,61b8f3437b89212fae0dfadf
7,3.9722,space,2.5947,0,25,25,168,1,,,5f483afd936e951d89408736,64377315aa362cdc4fe8bdc8,2023-04-12_23h16.04.839,PRaM,2021.2.3,Win32,60.14675809,61b8f3437b89212fae0dfadf
2,4.6478,space,3.2679,0,26,26,245,1,,,5f483afd936e951d89408736,64377315aa362cdc4fe8bdc8,2023-04-12_23h16.04.839,PRaM,2021.2.3,Win32,60.14675809,61b8f3437b89212fae0dfadf
2,26.1851,space,25.4112,0,27,27,181,1,,,5f483afd936e951d89408736,64377315aa362cdc4fe8bdc8,2023-04-12_23h16.04.839,PRaM,2021.2.3,Win32,60.14675809,61b8f3437b89212fae0dfadf
4,15.0088,space,13.5728,0,28,28,305,1,,,5f483afd936e951d89408736,64377315aa362cdc4fe8bdc8,2023-04-12_23h16.04.839,PRaM,2021.2.3,Win32,60.14675809,61b8f3437b89212fae0dfadf
8,2.3292,space,0.9043,0,29,29,17,1,,,5f483afd936e951d89408736,64377315aa362cdc4fe8bdc8,2023-04-12_23h16.04.839,PRaM,2021.2.3,Win32,60.14675809,61b8f3437b89212fae0dfadf
9,2.7363,space,1.3129,0,30,30,325,1,,,5f483afd936e951d89408736,64377315aa362cdc4fe8bdc8,2023-04-12_23h16.04.839,PRaM,2021.2.3,Win32,60.14675809,61b8f3437b89212fae0dfadf
4,9.5841,space,8.0281,0,31,31,337,1,,,5f483afd936e951d89408736,64377315aa362cdc4fe8bdc8,2023-04-12_23h16.04.839,PRaM,2021.2.3,Win32,60.14675809,61b8f3437b89212fae0dfadf
2,36.4629,space,34.9085,0,32,32,300,1,,,5f483afd936e951d89408736,64377315aa362cdc4fe8bdc8,2023-04-12_23h16.04.839,PRaM,2021.2.3,Win32,60.14675809,61b8f3437b89212fae0dfadf
5,3.4541,space,1.8019,0,33,33,33,1,,,5f483afd936e951d89408736,64377315aa362cdc4fe8bdc8,2023-04-12_23h16.04.839,PRaM,2021.2.3,Win32,60.14675809,61b8f3437b89212fae0dfadf
6,2.8892,space,1.6671,0,34,34,0,1,,,5f483afd936e951d89408736,64377315aa362cdc4fe8bdc8,2023-04-12_23h16.04.839,PRaM,2021.2.3,Win32,60.14675809,61b8f3437b89212fae0dfadf
5,3.2438,space,1.4661,0,35,35,218,1,,,5f483afd936e951d89408736,64377315aa362cdc4fe8bdc8,2023-04-12_23h16.04.839,PRaM,2021.2.3,Win32,60.14675809,61b8f3437b89212fae0dfadf
2,2.276,space,0.5671,0,36,36,8,1,,,5f483afd936e951d89408736,64377315aa362cdc4fe8bdc8,2023-04-12_23h16.04.839,PRaM,2021.2.3,Win32,60.14675809,61b8f3437b89212fae0dfadf
6,2.6385,space,1.1484,0,37,37,105,1,,,5f483afd936e951d89408736,64377315aa362cdc4fe8bdc8,2023-04-12_23h16.04.839,PRaM,2021.2.3,Win32,60.14675809,61b8f3437b89212fae0dfadf
3,58.5269,space,56.8709,0,38,38,222,1,,,5f483afd936e951d89408736,64377315aa362cdc4fe8bdc8,2023-04-12_23h16.04.839,PRaM,2021.2.3,Win32,60.14675809,61b8f3437b89212fae0dfadf
6,2.9577,space,1.7156,0,39,39,148,1,,,5f483afd936e951d89408736,64377315aa362cdc4fe8bdc8,2023-04-12_23h16.04.839,PRaM,2021.2.3,Win32,60.14675809,61b8f3437b89212fae0dfadf
3,2.7421,space,1.2056,0,40,40,188,1,,,5f483afd936e951d89408736,64377315aa362cdc4fe8bdc8,2023-04-12_23h16.04.839,PRaM,2021.2.3,Win32,60.14675809,61b8f3437b89212fae0dfadf
4,15.0549,space,13.5055,0,41,41,150,1,,,5f483afd936e951d89408736,64377315aa362cdc4fe8bdc8,2023-04-12_23h16.04.839,PRaM,2021.2.3,Win32,60.14675809,61b8f3437b89212fae0dfadf
2,7.205,space,5.5167,0,42,42,374,1,,,5f483afd936e951d89408736,64377315aa362cdc4fe8bdc8,2023-04-12_23h16.04.839,PRaM,2021.2.3,Win32,60.14675809,61b8f3437b89212fae0dfadf
8,3.7048,space,2.3083,0,43,43,244,1,,,5f483afd936e951d89408736,64377315aa362cdc4fe8bdc8,2023-04-12_23h16.04.839,PRaM,2021.2.3,Win32,60.14675809,61b8f3437b89212fae0dfadf
2,4.5905,space,3.7288,0,44,44,167,1,,,5f483afd936e951d89408736,64377315aa362cdc4fe8bdc8,2023-04-12_23h16.04.839,PRaM,2021.2.3,Win32,60.14675809,61b8f3437b89212fae0dfadf
2,19.8359,space,18.3999,0,45,45,54,1,,,5f483afd936e951d89408736,64377315aa362cdc4fe8bdc8,2023-04-12_23h16.04.839,PRaM,2021.2.3,Win32,60.14675809,61b8f3437b89212fae0dfadf
4,21.5878,space,19.8542,0,46,46,46,1,,,5f483afd936e951d89408736,64377315aa362cdc4fe8bdc8,2023-04-12_23h16.04.839,PRaM,2021.2.3,Win32,60.14675809,61b8f3437b89212fae0dfadf
6,3.4221,space,2.4174,0,47,47,233,1,,,5f483afd936e951d89408736,64377315aa362cdc4fe8bdc8,2023-04-12_23h16.04.839,PRaM,2021.2.3,Win32,60.14675809,61b8f3437b89212fae0dfadf
3,4.8971,space,3.9225,0,48,48,262,1,,,5f483afd936e951d89408736,64377315aa362cdc4fe8bdc8,2023-04-12_23h16.04.839,PRaM,2021.2.3,Win32,60.14675809,61b8f3437b89212fae0dfadf
2,39.0532,space,38.0865,0,49,49,183,1,,,5f483afd936e951d89408736,64377315aa362cdc4fe8bdc8,2023-04-12_23h16.04.839,PRaM,2021.2.3,Win32,60.14675809,61b8f3437b89212fae0dfadf
2,5.2712,space,10.3085,0,50,50,292,1,,,5f483afd936e951d89408736,64377315aa362cdc4fe8bdc8,2023-04-12_23h16.04.839,PRaM,2021.2.3,Win32,60.14675809,61b8f3437b89212fae0dfadf
2,10.2916,space,8.7581,0,51,51,34,1,,,5f483afd936e951d89408736,64377315aa362cdc4fe8bdc8,2023-04-12_23h16.04.839,PRaM,2021.2.3,Win32,60.14675809,61b8f3437b89212fae0dfadf
1,2.9084,space,1.2371,0,52,52,341,1,,,5f483afd936e951d89408736,64377315aa362cdc4fe8bdc8,2023-04-12_23h16.04.839,PRaM,2021.2.3,Win32,60.14675809,61b8f3437b89212fae0dfadf
1,3.8698,space,2.5331,0,53,53,335,1,,,5f483afd936e951d89408736,64377315aa362cdc4fe8bdc8,2023-04-12_23h16.04.839,PRaM,2021.2.3,Win32,60.14675809,61b8f3437b89212fae0dfadf
7,6.3884,space,4.8496,0,54,54,75,1,,,5f483afd936e951d89408736,64377315aa362cdc4fe8bdc8,2023-04-12_23h16.04.839,PRaM,2021.2.3,Win32,60.14675809,61b8f3437b89212fae0dfadf
5,3.425,space,1.9516,0,55,55,202,1,,,5f483afd936e951d89408736,64377315aa362cdc4fe8bdc8,2023-04-12_23h16.04.839,PRaM,2021.2.3,Win32,60.14675809,61b8f3437b89212fae0dfadf
8,22.8112,space,21.3145,0,56,56,47,1,,,5f483afd936e951d89408736,64377315aa362cdc4fe8bdc8,2023-04-12_23h16.04.839,PRaM,2021.2.3,Win32,60.14675809,61b8f3437b89212fae0dfadf
1,6.7111,space,5.1789,0,57,57,49,1,,,5f483afd936e951d89408736,64377315aa362cdc4fe8bdc8,2023-04-12_23h16.04.839,PRaM,2021.2.3,Win32,60.14675809,61b8f3437b89212fae0dfadf
5,4.795,space,3.4192,0,58,58,92,1,,,5f483afd936e951d89408736,64377315aa362cdc4fe8bdc8,2023-04-12_23h16.04.839,PRaM,2021.2.3,Win32,60.14675809,61b8f3437b89212fae0dfadf
4,6.4296,space,4.6223,0,59,59,22,1,,,5f483afd936e951d89408736,64377315aa362cdc4fe8bdc8,2023-04-12_23h16.04.839,PRaM,2021.2.3,Win32,60.14675809,61b8f3437b89212fae0dfadf
7,10.8859,space,9.1451,0,60,60,364,1,,,5f483afd936e951d89408736,64377315aa362cdc4fe8bdc8,2023-04-12_23h16.04.839,PRaM,2021.2.3,Win32,60.14675809,61b8f3437b89212fae0dfadf
8,6.9408,space,5.2457,0,61,61,251,1,,,5f483afd936e951d89408736,64377315aa362cdc4fe8bdc8,2023-04-12_23h16.04.839,PRaM,2021.2.3,Win32,60.14675809,61b8f3437b89212fae0dfadf
3,2.6201,space,1.2231,0,62,62,158,1,,,5f483afd936e951d89408736,64377315aa362cdc4fe8bdc8,2023-04-12_23h16.04.839,PRaM,2021.2.3,Win32,60.14675809,61b8f3437b89212fae0dfadf
7,10.3218,space,8.8649,0,63,63,53,1,,,5f483afd936e951d89408736,64377315aa362cdc4fe8bdc8,2023-04-12_23h16.04.839,PRaM,2021.2.3,Win32,60.14675809,61b8f3437b89212fae0dfadf
4,4.8863,space,3.936,0,64,64,147,1,,,5f483afd936e951d89408736,64377315aa362cdc4fe8bdc8,2023-04-12_23h16.04.839,PRaM,2021.2.3,Win32,60.14675809,61b8f3437b89212fae0dfadf
3,5.2316,space,3.7924,0,65,65,361,1,,,5f483afd936e951d89408736,64377315aa362cdc4fe8bdc8,2023-04-12_23h16.04.839,PRaM,2021.2.3,Win32,60.14675809,61b8f3437b89212fae0dfadf
6,3.5114,space,1.8115,0,66,66,80,1,,,5f483afd936e951d89408736,64377315aa362cdc4fe8bdc8,2023-04-12_23h16.04.839,PRaM,2021.2.3,Win32,60.14675809,61b8f3437b89212fae0dfadf
2,3.3149,space,1.6708,0,67,67,89,1,,,5f483afd936e951d89408736,64377315aa362cdc4fe8bdc8,2023-04-12_23h16.04.839,PRaM,2021.2.3,Win32,60.14675809,61b8f3437b89212fae0dfadf
9,3.5016,space,2.0488,0,68,68,320,1,,,5f483afd936e951d89408736,64377315aa362cdc4fe8bdc8,2023-04-12_23h16.04.839,PRaM,2021.2.3,Win32,60.14675809,61b8f3437b89212fae0dfadf
1,12.5525,space,11.2434,0,69,69,303,1,,,5f483afd936e951d89408736,64377315aa362cdc4fe8bdc8,2023-04-12_23h16.04.839,PRaM,2021.2.3,Win32,60.14675809,61b8f3437b89212fae0dfadf
6,2.8722,space,1.1677,0,70,70,314,1,,,5f483afd936e951d89408736,64377315aa362cdc4fe8bdc8,2023-04-12_23h16.04.839,PRaM,2021.2.3,Win32,60.14675809,61b8f3437b89212fae0dfadf
3,2.5819,space,0.8502,0,71,71,129,1,,,5f483afd936e951d89408736,64377315aa362cdc4fe8bdc8,2023-04-12_23h16.04.839,PRaM,2021.2.3,Win32,60.14675809,61b8f3437b89212fae0dfadf
6,2.8206,space,1.3327,0,72,72,90,1,,,5f483afd936e951d89408736,64377315aa362cdc4fe8bdc8,2023-04-12_23h16.04.839,PRaM,2021.2.3,Win32,60.14675809,61b8f3437b89212fae0dfadf
8,28.9971,space,27.2461,0,73,73,3,1,,,5f483afd936e951d89408736,64377315aa362cdc4fe8bdc8,2023-04-12_23h16.04.839,PRaM,2021.2.3,Win32,60.14675809,61b8f3437b89212fae0dfadf
2,2.71,space,0.9663,0,74,74,284,1,,,5f483afd936e951d89408736,64377315aa362cdc4fe8bdc8,2023-04-12_23h16.04.839,PRaM,2021.2.3,Win32,60.14675809,61b8f3437b89212fae0dfadf
3,5.6607,space,4.1675,0,75,75,144,1,,,5f483afd936e951d89408736,64377315aa362cdc4fe8bdc8,2023-04-12_23h16.04.839,PRaM,2021.2.3,Win32,60.14675809,61b8f3437b89212fae0dfadf
6,5.0295,space,3.4673,0,76,76,120,1,,,5f483afd936e951d89408736,64377315aa362cdc4fe8bdc8,2023-04-12_23h16.04.839,PRaM,2021.2.3,Win32,60.14675809,61b8f3437b89212fae0dfadf
7,6.0446,space,4.3466,0,77,77,88,1,,,5f483afd936e951d89408736,64377315aa362cdc4fe8bdc8,2023-04-12_23h16.04.839,PRaM,2021.2.3,Win32,60.14675809,61b8f3437b89212fae0dfadf
1,3.3279,space,1.9164,0,78,78,52,1,,,5f483afd936e951d89408736,64377315aa362cdc4fe8bdc8,2023-04-12_23h16.04.839,PRaM,2021.2.3,Win32,60.14675809,61b8f3437b89212fae0dfadf
5,2.7044,space,1.2349,0,79,79,125,1,,,5f483afd936e951d89408736,64377315aa362cdc4fe8bdc8,2023-04-12_23h16.04.839,PRaM,2021.2.3,Win32,60.14675809,61b8f3437b89212fae0dfadf
3,3.4674,space,2.8821,0,80,80,287,1,,,5f483afd936e951d89408736,64377315aa362cdc4fe8bdc8,2023-04-12_23h16.04.839,PRaM,2021.2.3,Win32,60.14675809,61b8f3437b89212fae0dfadf
2,13.0178,space,12.0554,0,81,81,135,1,,,5f483afd936e951d89408736,64377315aa362cdc4fe8bdc8,2023-04-12_23h16.04.839,PRaM,2021.2.3,Win32,60.14675809,61b8f3437b89212fae0dfadf
1,16.0462,space,14.3762,0,82,82,109,1,,,5f483afd936e951d89408736,64377315aa362cdc4fe8bdc8,2023-04-12_23h16.04.839,PRaM,2021.2.3,Win32,60.14675809,61b8f3437b89212fae0dfadf
8,3.2871,space,1.6693,0,83,83,95,1,,,5f483afd936e951d89408736,64377315aa362cdc4fe8bdc8,2023-04-12_23h16.04.839,PRaM,2021.2.3,Win32,60.14675809,61b8f3437b89212fae0dfadf
7,2.2884,space,0.7314,0,84,84,274,1,,,5f483afd936e951d89408736,64377315aa362cdc4fe8bdc8,2023-04-12_23h16.04.839,PRaM,2021.2.3,Win32,60.14675809,61b8f3437b89212fae0dfadf
8,3.3668,space,1.6385,0,85,85,166,1,,,5f483afd936e951d89408736,64377315aa362cdc4fe8bdc8,2023-04-12_23h16.04.839,PRaM,2021.2.3,Win32,60.14675809,61b8f3437b89212fae0dfadf
8,3.1557,space,1.4674,0,86,86,256,1,,,5f483afd936e951d89408736,64377315aa362cdc4fe8bdc8,2023-04-12_23h16.04.839,PRaM,2021.2.3,Win32,60.14675809,61b8f3437b89212fae0dfadf
9,4.1005,space,2.6159,0,87,87,197,1,,,5f483afd936e951d89408736,64377315aa362cdc4fe8bdc8,2023-04-12_23h16.04.839,PRaM,2021.2.3,Win32,60.14675809,61b8f3437b89212fae0dfadf
1,4.3212,space,2.7328,0,88,88,376,1,,,5f483afd936e951d89408736,64377315aa362cdc4fe8bdc8,2023-04-12_23h16.04.839,PRaM,2021.2.3,Win32,60.14675809,61b8f3437b89212fae0dfadf
7,7.2375,space,5.6991,0,89,89,271,1,,,5f483afd936e951d89408736,64377315aa362cdc4fe8bdc8,2023-04-12_23h16.04.839,PRaM,2021.2.3,Win32,60.14675809,61b8f3437b89212fae0dfadf
1,4.6463,space,3.0001,0,90,90,241,1,,,5f483afd936e951d89408736,64377315aa362cdc4fe8bdc8,2023-04-12_23h16.04.839,PRaM,2021.2.3,Win32,60.14675809,61b8f3437b89212fae0dfadf
7,2.4268,space,0.8003,0,91,91,317,1,,,5f483afd936e951d89408736,64377315aa362cdc4fe8bdc8,2023-04-12_23h16.04.839,PRaM,2021.2.3,Win32,60.14675809,61b8f3437b89212fae0dfadf
8,3.4024,space,1.917,0,92,92,219,1,,,5f483afd936e951d89408736,64377315aa362cdc4fe8bdc8,2023-04-12_23h16.04.839,PRaM,2021.2.3,Win32,60.14675809,61b8f3437b89212fae0dfadf
3,3.0707,space,3.8839,0,93,93,280,1,,,5f483afd936e951d89408736,64377315aa362cdc4fe8bdc8,2023-04-12_23h16.04.839,PRaM,2021.2.3,Win32,60.14675809,61b8f3437b89212fae0dfadf
1,9.8142,space,8.1428,0,94,94,10,1,,,5f483afd936e951d89408736,64377315aa362cdc4fe8bdc8,2023-04-12_23h16.04.839,PRaM,2021.2.3,Win32,60.14675809,61b8f3437b89212fae0dfadf
1,1.7975,space,0.5352,0,95,95,206,1,,,5f483afd936e951d89408736,64377315aa362cdc4fe8bdc8,2023-04-12_23h16.04.839,PRaM,2021.2.3,Win32,60.14675809,61b8f3437b89212fae0dfadf
1,1.9811,space,0.3358,0,96,96,311,1,,,5f483afd936e951d89408736,64377315aa362cdc4fe8bdc8,2023-04-12_23h16.04.839,PRaM,2021.2.3,Win32,60.14675809,61b8f3437b89212fae0dfadf
5,3.4193,space,1.9485,0,97,97,355,1,,,5f483afd936e951d89408736,64377315aa362cdc4fe8bdc8,2023-04-12_23h16.04.839,PRaM,2021.2.3,Win32,60.14675809,61b8f3437b89212fae0dfadf
2,26.462,space,25.0983,0,98,98,163,1,,,5f483afd936e951d89408736,64377315aa362cdc4fe8bdc8,2023-04-12_23h16.04.839,PRaM,2021.2.3,Win32,60.14675809,61b8f3437b89212fae0dfadf
4,2.3892,space,1.3014,0,99,99,98,1,,,5f483afd936e951d89408736,64377315aa362cdc4fe8bdc8,2023-04-12_23h16.04.839,PRaM,2021.2.3,Win32,60.14675809,61b8f3437b89212fae0dfadf
2,2.1936,space,0.507,0,100,100,28,1,,,5f483afd936e951d89408736,64377315aa362cdc4fe8bdc8,2023-04-12_23h16.04.839,PRaM,2021.2.3,Win32,60.14675809,61b8f3437b89212fae0dfadf
7,2.7093,space,1.1994,0,101,101,32,1,,,5f483afd936e951d89408736,64377315aa362cdc4fe8bdc8,2023-04-12_23h16.04.839,PRaM,2021.2.3,Win32,60.14675809,61b8f3437b89212fae0dfadf
8,3.1211,space,1.4672,0,102,102,267,1,,,5f483afd936e951d89408736,64377315aa362cdc4fe8bdc8,2023-04-12_23h16.04.839,PRaM,2021.2.3,Win32,60.14675809,61b8f3437b89212fae0dfadf
5,2.322,space,0.6197,0,103,103,142,1,,,5f483afd936e951d89408736,64377315aa362cdc4fe8bdc8,2023-04-12_23h16.04.839,PRaM,2021.2.3,Win32,60.14675809,61b8f3437b89212fae0dfadf
2,3.2835,space,1.5672,0,104,104,174,1,,,5f483afd936e951d89408736,64377315aa362cdc4fe8bdc8,2023-04-12_23h16.04.839,PRaM,2021.2.3,Win32,60.14675809,61b8f3437b89212fae0dfadf
6,2.8409,space,3.4309,0,105,105,66,1,,,5f483afd936e951d89408736,64377315aa362cdc4fe8bdc8,2023-04-12_23h16.04.839,PRaM,2021.2.3,Win32,60.14675809,61b8f3437b89212fae0dfadf
7,4.366,space,2.8346,0,106,106,201,1,,,5f483afd936e951d89408736,64377315aa362cdc4fe8bdc8,2023-04-12_23h16.04.839,PRaM,2021.2.3,Win32,60.14675809,61b8f3437b89212fae0dfadf
1,8.9373,space,7.2268,0,107,107,187,1,,,5f483afd936e951d89408736,64377315aa362cdc4fe8bdc8,2023-04-12_23h16.04.839,PRaM,2021.2.3,Win32,60.14675809,61b8f3437b89212fae0dfadf
8,2.2973,space,0.583,0,108,108,152,1,,,5f483afd936e951d89408736,64377315aa362cdc4fe8bdc8,2023-04-12_23h16.04.839,PRaM,2021.2.3,Win32,60.14675809,61b8f3437b89212fae0dfadf
2,2.5809,space,0.8334,0,109,109,295,1,,,5f483afd936e951d89408736,64377315aa362cdc4fe8bdc8,2023-04-12_23h16.04.839,PRaM,2021.2.3,Win32,60.14675809,61b8f3437b89212fae0dfadf
7,2.0631,space,0.2536,0,110,110,139,1,,,5f483afd936e951d89408736,64377315aa362cdc4fe8bdc8,2023-04-12_23h16.04.839,PRaM,2021.2.3,Win32,60.14675809,61b8f3437b89212fae0dfadf
7,2.2557,space,0.5163,0,111,111,19,1,,,5f483afd936e951d89408736,64377315aa362cdc4fe8bdc8,2023-04-12_23h16.04.839,PRaM,2021.2.3,Win32,60.14675809,61b8f3437b89212fae0dfadf
1,3.7079,space,1.999,0,112,112,108,1,,,5f483afd936e951d89408736,64377315aa362cdc4fe8bdc8,2023-04-12_23h16.04.839,PRaM,2021.2.3,Win32,60.14675809,61b8f3437b89212fae0dfadf
1,1.9389,space,0.2002,0,113,113,111,1,,,5f483afd936e951d89408736,64377315aa362cdc4fe8bdc8,2023-04-12_23h16.04.839,PRaM,2021.2.3,Win32,60.14675809,61b8f3437b89212fae0dfadf
6,6.6498,space,4.9025,0,114,114,29,1,,,5f483afd936e951d89408736,64377315aa362cdc4fe8bdc8,2023-04-12_23h16.04.839,PRaM,2021.2.3,Win32,60.14675809,61b8f3437b89212fae0dfadf
2,1.9067,space,0.169,0,115,115,353,1,,,5f483afd936e951d89408736,64377315aa362cdc4fe8bdc8,2023-04-12_23h16.04.839,PRaM,2021.2.3,Win32,60.14675809,61b8f3437b89212fae0dfadf
2,2.8145,space,0.9655,0,116,116,357,1,,,5f483afd936e951d89408736,64377315aa362cdc4fe8bdc8,2023-04-12_23h16.04.839,PRaM,2021.2.3,Win32,60.14675809,61b8f3437b89212fae0dfadf
8,3.397,space,1.68,0,117,117,173,1,,,5f483afd936e951d89408736,64377315aa362cdc4fe8bdc8,2023-04-12_23h16.04.839,PRaM,2021.2.3,Win32,60.14675809,61b8f3437b89212fae0dfadf
9,7.6973,space,6.0038,0,118,118,225,1,,,5f483afd936e951d89408736,64377315aa362cdc4fe8bdc8,2023-04-12_23h16.04.839,PRaM,2021.2.3,Win32,60.14675809,61b8f3437b89212fae0dfadf
2,2.4795,space,0.7536,0,119,119,122,1,,,5f483afd936e951d89408736,64377315aa362cdc4fe8bdc8,2023-04-12_23h16.04.839,PRaM,2021.2.3,Win32,60.14675809,61b8f3437b89212fae0dfadf
2,3.8395,space,2.098,0,120,120,155,1,,,5f483afd936e951d89408736,64377315aa362cdc4fe8bdc8,2023-04-12_23h16.04.839,PRaM,2021.2.3,Win32,60.14675809,61b8f3437b89212fae0dfadf
2,3.2531,space,1.5506,0,121,121,113,1,,,5f483afd936e951d89408736,64377315aa362cdc4fe8bdc8,2023-04-12_23h16.04.839,PRaM,2021.2.3,Win32,60.14675809,61b8f3437b89212fae0dfadf
3,5.2454,space,3.4831,0,122,122,342,1,,,5f483afd936e951d89408736,64377315aa362cdc4fe8bdc8,2023-04-12_23h16.04.839,PRaM,2021.2.3,Win32,60.14675809,61b8f3437b89212fae0dfadf
7,2.7124,space,1.0245,0,123,123,290,1,,,5f483afd936e951d89408736,64377315aa362cdc4fe8bdc8,2023-04-12_23h16.04.839,PRaM,2021.2.3,Win32,60.14675809,61b8f3437b89212fae0dfadf
4,4.0957,space,2.6812,0,124,124,310,1,,,5f483afd936e951d89408736,64377315aa362cdc4fe8bdc8,2023-04-12_23h16.04.839,PRaM,2021.2.3,Win32,60.14675809,61b8f3437b89212fae0dfadf
2,5.1318,space,3.6987,0,125,125,70,1,,,5f483afd936e951d89408736,64377315aa362cdc4fe8bdc8,2023-04-12_23h16.04.839,PRaM,2021.2.3,Win32,60.14675809,61b8f3437b89212fae0dfadf
7,21.8672,space,20.1223,0,126,126,269,1,,,5f483afd936e951d89408736,64377315aa362cdc4fe8bdc8,2023-04-12_23h16.04.839,PRaM,2021.2.3,Win32,60.14675809,61b8f3437b89212fae0dfadf
7,2.1106,space,0.3572,0,127,127,246,1,,,5f483afd936e951d89408736,64377315aa362cdc4fe8bdc8,2023-04-12_23h16.04.839,PRaM,2021.2.3,Win32,60.14675809,61b8f3437b89212fae0dfadf
6,3.8323,space,2.1151,0,128,128,2,1,,,5f483afd936e951d89408736,64377315aa362cdc4fe8bdc8,2023-04-12_23h16.04.839,PRaM,2021.2.3,Win32,60.14675809,61b8f3437b89212fae0dfadf
1,6.9591,space,5.4808,0,129,129,124,1,,,5f483afd936e951d89408736,64377315aa362cdc4fe8bdc8,2023-04-12_23h16.04.839,PRaM,2021.2.3,Win32,60.14675809,61b8f3437b89212fae0dfadf
1,2.879,space,1.2356,0,130,130,146,1,,,5f483afd936e951d89408736,64377315aa362cdc4fe8bdc8,2023-04-12_23h16.04.839,PRaM,2021.2.3,Win32,60.14675809,61b8f3437b89212fae0dfadf
2,5.0348,space,3.335,0,131,131,31,1,,,5f483afd936e951d89408736,64377315aa362cdc4fe8bdc8,2023-04-12_23h16.04.839,PRaM,2021.2.3,Win32,60.14675809,61b8f3437b89212fae0dfadf
8,6.9733,space,5.2742,0,132,132,264,1,,,5f483afd936e951d89408736,64377315aa362cdc4fe8bdc8,2023-04-12_23h16.04.839,PRaM,2021.2.3,Win32,60.14675809,61b8f3437b89212fae0dfadf
6,3.6395,space,1.9561,0,133,133,338,1,,,5f483afd936e951d89408736,64377315aa362cdc4fe8bdc8,2023-04-12_23h16.04.839,PRaM,2021.2.3,Win32,60.14675809,61b8f3437b89212fae0dfadf
2,12.7575,space,11.013,0,134,134,258,1,,,5f483afd936e951d89408736,64377315aa362cdc4fe8bdc8,2023-04-12_23h16.04.839,PRaM,2021.2.3,Win32,60.14675809,61b8f3437b89212fae0dfadf
6,2.0394,space,0.3342,0,135,135,12,1,,,5f483afd936e951d89408736,64377315aa362cdc4fe8bdc8,2023-04-12_23h16.04.839,PRaM,2021.2.3,Win32,60.14675809,61b8f3437b89212fae0dfadf
3,2.2909,space,0.5871,0,136,136,11,1,,,5f483afd936e951d89408736,64377315aa362cdc4fe8bdc8,2023-04-12_23h16.04.839,PRaM,2021.2.3,Win32,60.14675809,61b8f3437b89212fae0dfadf
3,2.89,space,1.1422,0,137,137,81,1,,,5f483afd936e951d89408736,64377315aa362cdc4fe8bdc8,2023-04-12_23h16.04.839,PRaM,2021.2.3,Win32,60.14675809,61b8f3437b89212fae0dfadf
7,2.5109,space,0.7508,0,138,138,143,1,,,5f483afd936e951d89408736,64377315aa362cdc4fe8bdc8,2023-04-12_23h16.04.839,PRaM,2021.2.3,Win32,60.14675809,61b8f3437b89212fae0dfadf
6,2.3754,space,0.6302,0,139,139,309,1,,,5f483afd936e951d89408736,64377315aa362cdc4fe8bdc8,2023-04-12_23h16.04.839,PRaM,2021.2.3,Win32,60.14675809,61b8f3437b89212fae0dfadf
3,2.8956,space,1.1702,0,140,140,237,1,,,5f483afd936e951d89408736,64377315aa362cdc4fe8bdc8,2023-04-12_23h16.04.839,PRaM,2021.2.3,Win32,60.14675809,61b8f3437b89212fae0dfadf
1,3.0525,space,1.4849,0,141,141,356,1,,,5f483afd936e951d89408736,64377315aa362cdc4fe8bdc8,2023-04-12_23h16.04.839,PRaM,2021.2.3,Win32,60.14675809,61b8f3437b89212fae0dfadf
8,3.9829,space,2.2508,0,142,142,159,1,,,5f483afd936e951d89408736,64377315aa362cdc4fe8bdc8,2023-04-12_23h16.04.839,PRaM,2021.2.3,Win32,60.14675809,61b8f3437b89212fae0dfadf
9,1.9589,space,0.2385,0,143,143,16,1,,,5f483afd936e951d89408736,64377315aa362cdc4fe8bdc8,2023-04-12_23h16.04.839,PRaM,2021.2.3,Win32,60.14675809,61b8f3437b89212fae0dfadf
8,2.6628,space,0.8995,0,144,144,151,1,,,5f483afd936e951d89408736,64377315aa362cdc4fe8bdc8,2023-04-12_23h16.04.839,PRaM,2021.2.3,Win32,60.14675809,61b8f3437b89212fae0dfadf
6,2.9879,space,2.4366,0,145,145,24,1,,,5f483afd936e951d89408736,64377315aa362cdc4fe8bdc8,2023-04-12_23h16.04.839,PRaM,2021.2.3,Win32,60.14675809,61b8f3437b89212fae0dfadf
2,2.7208,space,1.1843,0,146,146,121,1,,,5f483afd936e951d89408736,64377315aa362cdc4fe8bdc8,2023-04-12_23h16.04.839,PRaM,2021.2.3,Win32,60.14675809,61b8f3437b89212fae0dfadf
8,2.0945,space,0.3243,0,147,147,102,1,,,5f483afd936e951d89408736,64377315aa362cdc4fe8bdc8,2023-04-12_23h16.04.839,PRaM,2021.2.3,Win32,60.14675809,61b8f3437b89212fae0dfadf
6,2.3222,space,0.5709,0,148,148,157,1,,,5f483afd936e951d89408736,64377315aa362cdc4fe8bdc8,2023-04-12_23h16.04.839,PRaM,2021.2.3,Win32,60.14675809,61b8f3437b89212fae0dfadf
9,3.0061,space,1.4008,0,149,149,208,1,,,5f483afd936e951d89408736,64377315aa362cdc4fe8bdc8,2023-04-12_23h16.04.839,PRaM,2021.2.3,Win32,60.14675809,61b8f3437b89212fae0dfadf
8,2.9098,space,3.269,0,150,150,165,1,,,5f483afd936e951d89408736,64377315aa362cdc4fe8bdc8,2023-04-12_23h16.04.839,PRaM,2021.2.3,Win32,60.14675809,61b8f3437b89212fae0dfadf
1,1.9921,space,0.2662,0,151,151,101,1,,,5f483afd936e951d89408736,64377315aa362cdc4fe8bdc8,2023-04-12_23h16.04.839,PRaM,2021.2.3,Win32,60.14675809,61b8f3437b89212fae0dfadf
3,3.2953,space,1.6162,0,152,152,367,1,,,5f483afd936e951d89408736,64377315aa362cdc4fe8bdc8,2023-04-12_23h16.04.839,PRaM,2021.2.3,Win32,60.14675809,61b8f3437b89212fae0dfadf
7,2.9838,space,1.4009,0,153,153,230,1,,,5f483afd936e951d89408736,64377315aa362cdc4fe8bdc8,2023-04-12_23h16.04.839,PRaM,2021.2.3,Win32,60.14675809,61b8f3437b89212fae0dfadf
1,2.0587,space,0.5183,0,154,154,354,1,,,5f483afd936e951d89408736,64377315aa362cdc4fe8bdc8,2023-04-12_23h16.04.839,PRaM,2021.2.3,Win32,60.14675809,61b8f3437b89212fae0dfadf
7,2.978,space,1.2096,0,155,155,343,1,,,5f483afd936e951d89408736,64377315aa362cdc4fe8bdc8,2023-04-12_23h16.04.839,PRaM,2021.2.3,Win32,60.14675809,61b8f3437b89212fae0dfadf
6,2.3412,space,0.628,0,156,156,254,1,,,5f483afd936e951d89408736,64377315aa362cdc4fe8bdc8,2023-04-12_23h16.04.839,PRaM,2021.2.3,Win32,60.14675809,61b8f3437b89212fae0dfadf
5,2.8385,space,1.1161,0,157,157,119,1,,,5f483afd936e951d89408736,64377315aa362cdc4fe8bdc8,2023-04-12_23h16.04.839,PRaM,2021.2.3,Win32,60.14675809,61b8f3437b89212fae0dfadf
6,3.3549,space,1.6245,0,158,158,248,1,,,5f483afd936e951d89408736,64377315aa362cdc4fe8bdc8,2023-04-12_23h16.04.839,PRaM,2021.2.3,Win32,60.14675809,61b8f3437b89212fae0dfadf
8,19.5825,space,17.9003,0,159,159,281,1,,,5f483afd936e951d89408736,64377315aa362cdc4fe8bdc8,2023-04-12_23h16.04.839,PRaM,2021.2.3,Win32,60.14675809,61b8f3437b89212fae0dfadf
7,2.4406,space,0.6959,0,160,160,323,1,,,5f483afd936e951d89408736,64377315aa362cdc4fe8bdc8,2023-04-12_23h16.04.839,PRaM,2021.2.3,Win32,60.14675809,61b8f3437b89212fae0dfadf
8,2.5848,space,0.8416,0,161,161,58,1,,,5f483afd936e951d89408736,64377315aa362cdc4fe8bdc8,2023-04-12_23h16.04.839,PRaM,2021.2.3,Win32,60.14675809,61b8f3437b89212fae0dfadf
6,3.2335,space,1.4351,0,162,162,351,1,,,5f483afd936e951d89408736,64377315aa362cdc4fe8bdc8,2023-04-12_23h16.04.839,PRaM,2021.2.3,Win32,60.14675809,61b8f3437b89212fae0dfadf
6,3.4795,space,1.7884,0,163,163,236,1,,,5f483afd936e951d89408736,64377315aa362cdc4fe8bdc8,2023-04-12_23h16.04.839,PRaM,2021.2.3,Win32,60.14675809,61b8f3437b89212fae0dfadf
6,2.8337,space,1.0839,0,164,164,370,1,,,5f483afd936e951d89408736,64377315aa362cdc4fe8bdc8,2023-04-12_23h16.04.839,PRaM,2021.2.3,Win32,60.14675809,61b8f3437b89212fae0dfadf
6,7.5642,space,5.8153,0,165,165,72,1,,,5f483afd936e951d89408736,64377315aa362cdc4fe8bdc8,2023-04-12_23h16.04.839,PRaM,2021.2.3,Win32,60.14675809,61b8f3437b89212fae0dfadf
6,1.9769,space,0.3016,0,166,166,252,1,,,5f483afd936e951d89408736,64377315aa362cdc4fe8bdc8,2023-04-12_23h16.04.839,PRaM,2021.2.3,Win32,60.14675809,61b8f3437b89212fae0dfadf
6,3.2783,space,1.5222,0,167,167,126,1,,,5f483afd936e951d89408736,64377315aa362cdc4fe8bdc8,2023-04-12_23h16.04.839,PRaM,2021.2.3,Win32,60.14675809,61b8f3437b89212fae0dfadf
6,2.2778,space,0.6096,0,168,168,7,1,,,5f483afd936e951d89408736,64377315aa362cdc4fe8bdc8,2023-04-12_23h16.04.839,PRaM,2021.2.3,Win32,60.14675809,61b8f3437b89212fae0dfadf
3,2.9288,space,1.1913,0,169,169,172,1,,,5f483afd936e951d89408736,64377315aa362cdc4fe8bdc8,2023-04-12_23h16.04.839,PRaM,2021.2.3,Win32,60.14675809,61b8f3437b89212fae0dfadf
4,50.0344,space,48.6379,0,170,170,216,1,,,5f483afd936e951d89408736,64377315aa362cdc4fe8bdc8,2023-04-12_23h16.04.839,PRaM,2021.2.3,Win32,60.14675809,61b8f3437b89212fae0dfadf
7,8.1733,space,6.4776,0,171,171,313,1,,,5f483afd936e951d89408736,64377315aa362cdc4fe8bdc8,2023-04-12_23h16.04.839,PRaM,2021.2.3,Win32,60.14675809,61b8f3437b89212fae0dfadf
6,2.4811,space,0.7351,0,172,172,308,1,,,5f483afd936e951d89408736,64377315aa362cdc4fe8bdc8,2023-04-12_23h16.04.839,PRaM,2021.2.3,Win32,60.14675809,61b8f3437b89212fae0dfadf
7,9.664,space,7.9097,0,173,173,56,1,,,5f483afd936e951d89408736,64377315aa362cdc4fe8bdc8,2023-04-12_23h16.04.839,PRaM,2021.2.3,Win32,60.14675809,61b8f3437b89212fae0dfadf
6,8.2141,space,6.4944,0,174,174,62,1,,,5f483afd936e951d89408736,64377315aa362cdc4fe8bdc8,2023-04-12_23h16.04.839,PRaM,2021.2.3,Win32,60.14675809,61b8f3437b89212fae0dfadf
5,38.4207,space,37.1158,0,175,175,134,1,,,5f483afd936e951d89408736,64377315aa362cdc4fe8bdc8,2023-04-12_23h16.04.839,PRaM,2021.2.3,Win32,60.14675809,61b8f3437b89212fae0dfadf
2,21.8681,space,20.6024,0,176,176,104,1,,,5f483afd936e951d89408736,64377315aa362cdc4fe8bdc8,2023-04-12_23h16.04.839,PRaM,2021.2.3,Win32,60.14675809,61b8f3437b89212fae0dfadf
4,6.2614,space,4.746,0,177,177,318,1,,,5f483afd936e951d89408736,64377315aa362cdc4fe8bdc8,2023-04-12_23h16.04.839,PRaM,2021.2.3,Win32,60.14675809,61b8f3437b89212fae0dfadf
2,2.0458,space,0.3669,0,178,178,87,1,,,5f483afd936e951d89408736,64377315aa362cdc4fe8bdc8,2023-04-12_23h16.04.839,PRaM,2021.2.3,Win32,60.14675809,61b8f3437b89212fae0dfadf
2,1.7478,space,0.6502,0,179,179,116,1,,,5f483afd936e951d89408736,64377315aa362cdc4fe8bdc8,2023-04-12_23h16.04.839,PRaM,2021.2.3,Win32,60.14675809,61b8f3437b89212fae0dfadf
6,2.0455,space,0.353,0,180,180,83,1,,,5f483afd936e951d89408736,64377315aa362cdc4fe8bdc8,2023-04-12_23h16.04.839,PRaM,2021.2.3,Win32,60.14675809,61b8f3437b89212fae0dfadf
6,2.0564,space,1.3493,0,181,181,375,1,,,5f483afd936e951d89408736,64377315aa362cdc4fe8bdc8,2023-04-12_23h16.04.839,PRaM,2021.2.3,Win32,60.14675809,61b8f3437b89212fae0dfadf
5,2.2807,space,0.9033,0,182,182,185,1,,,5f483afd936e951d89408736,64377315aa362cdc4fe8bdc8,2023-04-12_23h16.04.839,PRaM,2021.2.3,Win32,60.14675809,61b8f3437b89212fae0dfadf
2,3.2438,space,1.2664,0,183,183,234,1,,,5f483afd936e951d89408736,64377315aa362cdc4fe8bdc8,2023-04-12_23h16.04.839,PRaM,2021.2.3,Win32,60.14675809,61b8f3437b89212fae0dfadf
7,2.1798,space,0.4684,0,184,184,68,1,,,5f483afd936e951d89408736,64377315aa362cdc4fe8bdc8,2023-04-12_23h16.04.839,PRaM,2021.2.3,Win32,60.14675809,61b8f3437b89212fae0dfadf
6,5.8174,space,4.0801,0,185,185,136,1,,,5f483afd936e951d89408736,64377315aa362cdc4fe8bdc8,2023-04-12_23h16.04.839,PRaM,2021.2.3,Win32,60.14675809,61b8f3437b89212fae0dfadf
1,5.0176,space,3.2477,0,186,186,299,1,,,5f483afd936e951d89408736,64377315aa362cdc4fe8bdc8,2023-04-12_23h16.04.839,PRaM,2021.2.3,Win32,60.14675809,61b8f3437b89212fae0dfadf
2,5.5104,space,3.747,0,187,187,65,1,,,5f483afd936e951d89408736,64377315aa362cdc4fe8bdc8,2023-04-12_23h16.04.839,PRaM,2021.2.3,Win32,60.14675809,61b8f3437b89212fae0dfadf
8,2.4032,space,0.7003,0,188,188,278,1,,,5f483afd936e951d89408736,64377315aa362cdc4fe8bdc8,2023-04-12_23h16.04.839,PRaM,2021.2.3,Win32,60.14675809,61b8f3437b89212fae0dfadf
2,8.0796,space,6.3278,0,189,189,73,1,,,5f483afd936e951d89408736,64377315aa362cdc4fe8bdc8,2023-04-12_23h16.04.839,PRaM,2021.2.3,Win32,60.14675809,61b8f3437b89212fae0dfadf
2,5.9352,space,6.0945,0,190,190,15,1,,,5f483afd936e951d89408736,64377315aa362cdc4fe8bdc8,2023-04-12_23h16.04.839,PRaM,2021.2.3,Win32,60.14675809,61b8f3437b89212fae0dfadf
7,2.4029,space,0.7327,0,191,191,319,1,,,5f483afd936e951d89408736,64377315aa362cdc4fe8bdc8,2023-04-12_23h16.04.839,PRaM,2021.2.3,Win32,60.14675809,61b8f3437b89212fae0dfadf
6,5.2186,space,3.4639,0,192,192,288,1,,,5f483afd936e951d89408736,64377315aa362cdc4fe8bdc8,2023-04-12_23h16.04.839,PRaM,2021.2.3,Win32,60.14675809,61b8f3437b89212fae0dfadf
2,2.1498,space,0.3398,0,193,193,170,1,,,5f483afd936e951d89408736,64377315aa362cdc4fe8bdc8,2023-04-12_23h16.04.839,PRaM,2021.2.3,Win32,60.14675809,61b8f3437b89212fae0dfadf
2,2.9936,space,1.1421,0,194,194,350,1,,,5f483afd936e951d89408736,64377315aa362cdc4fe8bdc8,2023-04-12_23h16.04.839,PRaM,2021.2.3,Win32,60.14675809,61b8f3437b89212fae0dfadf
6,5.283,space,3.7639,0,195,195,294,1,,,5f483afd936e951d89408736,64377315aa362cdc4fe8bdc8,2023-04-12_23h16.04.839,PRaM,2021.2.3,Win32,60.14675809,61b8f3437b89212fae0dfadf
8,3.7286,space,1.9448,0,196,196,199,1,,,5f483afd936e951d89408736,64377315aa362cdc4fe8bdc8,2023-04-12_23h16.04.839,PRaM,2021.2.3,Win32,60.14675809,61b8f3437b89212fae0dfadf
6,3.0962,space,1.323,0,197,197,215,1,,,5f483afd936e951d89408736,64377315aa362cdc4fe8bdc8,2023-04-12_23h16.04.839,PRaM,2021.2.3,Win32,60.14675809,61b8f3437b89212fae0dfadf
1,3.0773,space,1.3494,0,198,198,330,1,,,5f483afd936e951d89408736,64377315aa362cdc4fe8bdc8,2023-04-12_23h16.04.839,PRaM,2021.2.3,Win32,60.14675809,61b8f3437b89212fae0dfadf
1,1.9298,space,0.3003,0,199,199,250,1,,,5f483afd936e951d89408736,64377315aa362cdc4fe8bdc8,2023-04-12_23h16.04.839,PRaM,2021.2.3,Win32,60.14675809,61b8f3437b89212fae0dfadf
2,2.1722,space,0.5667,0,200,200,106,1,,,5f483afd936e951d89408736,64377315aa362cdc4fe8bdc8,2023-04-12_23h16.04.839,PRaM,2021.2.3,Win32,60.14675809,61b8f3437b89212fae0dfadf
1,8.9379,space,7.1943,0,201,201,260,1,,,5f483afd936e951d89408736,64377315aa362cdc4fe8bdc8,2023-04-12_23h16.04.839,PRaM,2021.2.3,Win32,60.14675809,61b8f3437b89212fae0dfadf
,,space,2.0486,0,202,202,128,1,,,5f483afd936e951d89408736,64377315aa362cdc4fe8bdc8,2023-04-12_23h16.04.839,PRaM,2021.2.3,Win32,60.14675809,61b8f3437b89212fae0dfadf
2,2.0339,space,0.3296,0,203,203,346,1,,,5f483afd936e951d89408736,64377315aa362cdc4fe8bdc8,2023-04-12_23h16.04.839,PRaM,2021.2.3,Win32,60.14675809,61b8f3437b89212fae0dfadf
7,5.127,space,3.397,0,204,204,195,1,,,5f483afd936e951d89408736,64377315aa362cdc4fe8bdc8,2023-04-12_23h16.04.839,PRaM,2021.2.3,Win32,60.14675809,61b8f3437b89212fae0dfadf
4,6.2425,space,4.9329,0,205,205,5,1,,,5f483afd936e951d89408736,64377315aa362cdc4fe8bdc8,2023-04-12_23h16.04.839,PRaM,2021.2.3,Win32,60.14675809,61b8f3437b89212fae0dfadf
5,5.085,space,3.3638,0,206,206,193,1,,,5f483afd936e951d89408736,64377315aa362cdc4fe8bdc8,2023-04-12_23h16.04.839,PRaM,2021.2.3,Win32,60.14675809,61b8f3437b89212fae0dfadf
7,2.6471,space,0.9161,0,207,207,336,1,,,5f483afd936e951d89408736,64377315aa362cdc4fe8bdc8,2023-04-12_23h16.04.839,PRaM,2021.2.3,Win32,60.14675809,61b8f3437b89212fae0dfadf
9,2.4973,space,1.0494,0,208,208,192,1,,,5f483afd936e951d89408736,64377315aa362cdc4fe8bdc8,2023-04-12_23h16.04.839,PRaM,2021.2.3,Win32,60.14675809,61b8f3437b89212fae0dfadf
8,1.6652,space,1.125,0,209,209,44,1,,,5f483afd936e951d89408736,64377315aa362cdc4fe8bdc8,2023-04-12_23h16.04.839,PRaM,2021.2.3,Win32,60.14675809,61b8f3437b89212fae0dfadf
2,3.4605,space,1.8991,0,210,210,358,1,,,5f483afd936e951d89408736,64377315aa362cdc4fe8bdc8,2023-04-12_23h16.04.839,PRaM,2021.2.3,Win32,60.14675809,61b8f3437b89212fae0dfadf
3,2.2612,space,0.6169,0,211,211,39,1,,,5f483afd936e951d89408736,64377315aa362cdc4fe8bdc8,2023-04-12_23h16.04.839,PRaM,2021.2.3,Win32,60.14675809,61b8f3437b89212fae0dfadf
1,2.2303,space,0.5337,0,212,212,349,1,,,5f483afd936e951d89408736,64377315aa362cdc4fe8bdc8,2023-04-12_23h16.04.839,PRaM,2021.2.3,Win32,60.14675809,61b8f3437b89212fae0dfadf
2,2.1977,space,0.8494,0,213,213,312,1,,,5f483afd936e951d89408736,64377315aa362cdc4fe8bdc8,2023-04-12_23h16.04.839,PRaM,2021.2.3,Win32,60.14675809,61b8f3437b89212fae0dfadf
2,3.4765,space,1.7822,0,214,214,9,1,,,5f483afd936e951d89408736,64377315aa362cdc4fe8bdc8,2023-04-12_23h16.04.839,PRaM,2021.2.3,Win32,60.14675809,61b8f3437b89212fae0dfadf
5,2.8793,space,1.2325,0,215,215,130,1,,,5f483afd936e951d89408736,64377315aa362cdc4fe8bdc8,2023-04-12_23h16.04.839,PRaM,2021.2.3,Win32,60.14675809,61b8f3437b89212fae0dfadf
6,5.3671,space,3.6092,0,216,216,327,1,,,5f483afd936e951d89408736,64377315aa362cdc4fe8bdc8,2023-04-12_23h16.04.839,PRaM,2021.2.3,Win32,60.14675809,61b8f3437b89212fae0dfadf
1,3.0586,space,1.3155,0,217,217,67,1,,,5f483afd936e951d89408736,64377315aa362cdc4fe8bdc8,2023-04-12_23h16.04.839,PRaM,2021.2.3,Win32,60.14675809,61b8f3437b89212fae0dfadf
1,12.488,space,10.7477,0,218,218,210,1,,,5f483afd936e951d89408736,64377315aa362cdc4fe8bdc8,2023-04-12_23h16.04.839,PRaM,2021.2.3,Win32,60.14675809,61b8f3437b89212fae0dfadf
1,2.0542,space,0.3172,0,219,219,50,1,,,5f483afd936e951d89408736,64377315aa362cdc4fe8bdc8,2023-04-12_23h16.04.839,PRaM,2021.2.3,Win32,60.14675809,61b8f3437b89212fae0dfadf
6,4.385,space,2.6649,0,220,220,273,1,,,5f483afd936e951d89408736,64377315aa362cdc4fe8bdc8,2023-04-12_23h16.04.839,PRaM,2021.2.3,Win32,60.14675809,61b8f3437b89212fae0dfadf
5,5.3115,space,3.5485,0,221,221,177,1,,,5f483afd936e951d89408736,64377315aa362cdc4fe8bdc8,2023-04-12_23h16.04.839,PRaM,2021.2.3,Win32,60.14675809,61b8f3437b89212fae0dfadf
1,2.9278,space,1.4853,0,222,222,329,1,,,5f483afd936e951d89408736,64377315aa362cdc4fe8bdc8,2023-04-12_23h16.04.839,PRaM,2021.2.3,Win32,60.14675809,61b8f3437b89212fae0dfadf
6,3.3098,space,1.5427,0,223,223,149,1,,,5f483afd936e951d89408736,64377315aa362cdc4fe8bdc8,2023-04-12_23h16.04.839,PRaM,2021.2.3,Win32,60.14675809,61b8f3437b89212fae0dfadf
7,2.8774,space,0.8904,0,224,224,301,1,,,5f483afd936e951d89408736,64377315aa362cdc4fe8bdc8,2023-04-12_23h16.04.839,PRaM,2021.2.3,Win32,60.14675809,61b8f3437b89212fae0dfadf
6,4.0157,space,2.2715,0,225,225,190,1,,,5f483afd936e951d89408736,64377315aa362cdc4fe8bdc8,2023-04-12_23h16.04.839,PRaM,2021.2.3,Win32,60.14675809,61b8f3437b89212fae0dfadf
5,2.2255,space,0.9848,0,226,226,205,1,,,5f483afd936e951d89408736,64377315aa362cdc4fe8bdc8,2023-04-12_23h16.04.839,PRaM,2021.2.3,Win32,60.14675809,61b8f3437b89212fae0dfadf
5,3.622,space,1.9162,0,227,227,203,1,,,5f483afd936e951d89408736,64377315aa362cdc4fe8bdc8,2023-04-12_23h16.04.839,PRaM,2021.2.3,Win32,60.14675809,61b8f3437b89212fae0dfadf
4,2.8289,space,1.0696,0,228,228,232,1,,,5f483afd936e951d89408736,64377315aa362cdc4fe8bdc8,2023-04-12_23h16.04.839,PRaM,2021.2.3,Win32,60.14675809,61b8f3437b89212fae0dfadf
1,3.0848,space,1.3794,0,229,229,77,1,,,5f483afd936e951d89408736,64377315aa362cdc4fe8bdc8,2023-04-12_23h16.04.839,PRaM,2021.2.3,Win32,60.14675809,61b8f3437b89212fae0dfadf
1,2.7554,space,1.0869,0,230,230,321,1,,,5f483afd936e951d89408736,64377315aa362cdc4fe8bdc8,2023-04-12_23h16.04.839,PRaM,2021.2.3,Win32,60.14675809,61b8f3437b89212fae0dfadf
7,6.776,space,5.011,0,231,231,13,1,,,5f483afd936e951d89408736,64377315aa362cdc4fe8bdc8,2023-04-12_23h16.04.839,PRaM,2021.2.3,Win32,60.14675809,61b8f3437b89212fae0dfadf
2,2.9723,space,1.4392,0,232,232,242,1,,,5f483afd936e951d89408736,64377315aa362cdc4fe8bdc8,2023-04-12_23h16.04.839,PRaM,2021.2.3,Win32,60.14675809,61b8f3437b89212fae0dfadf
7,3.5106,space,1.7321,0,233,233,293,1,,,5f483afd936e951d89408736,64377315aa362cdc4fe8bdc8,2023-04-12_23h16.04.839,PRaM,2021.2.3,Win32,60.14675809,61b8f3437b89212fae0dfadf
7,1.757,space,0.0042,0,234,234,74,1,,,5f483afd936e951d89408736,64377315aa362cdc4fe8bdc8,2023-04-12_23h16.04.839,PRaM,2021.2.3,Win32,60.14675809,61b8f3437b89212fae0dfadf
8,3.345,space,1.6936,0,235,235,131,1,,,5f483afd936e951d89408736,64377315aa362cdc4fe8bdc8,2023-04-12_23h16.04.839,PRaM,2021.2.3,Win32,60.14675809,61b8f3437b89212fae0dfadf
9,1.7226,space,0.0178,0,236,236,266,1,,,5f483afd936e951d89408736,64377315aa362cdc4fe8bdc8,2023-04-12_23h16.04.839,PRaM,2021.2.3,Win32,60.14675809,61b8f3437b89212fae0dfadf
7,2.433,space,0.6233,0,237,237,51,1,,,5f483afd936e951d89408736,64377315aa362cdc4fe8bdc8,2023-04-12_23h16.04.839,PRaM,2021.2.3,Win32,60.14675809,61b8f3437b89212fae0dfadf
4,36.0527,space,34.3423,0,238,238,100,1,,,5f483afd936e951d89408736,64377315aa362cdc4fe8bdc8,2023-04-12_23h16.04.839,PRaM,2021.2.3,Win32,60.14675809,61b8f3437b89212fae0dfadf
6,34.6365,space,32.8554,0,239,239,296,1,,,5f483afd936e951d89408736,64377315aa362cdc4fe8bdc8,2023-04-12_23h16.04.839,PRaM,2021.2.3,Win32,60.14675809,61b8f3437b89212fae0dfadf
7,1.9945,space,0.2381,0,240,240,18,1,,,5f483afd936e951d89408736,64377315aa362cdc4fe8bdc8,2023-04-12_23h16.04.839,PRaM,2021.2.3,Win32,60.14675809,61b8f3437b89212fae0dfadf
2,6.9075,space,5.3351,0,241,241,171,1,,,5f483afd936e951d89408736,64377315aa362cdc4fe8bdc8,2023-04-12_23h16.04.839,PRaM,2021.2.3,Win32,60.14675809,61b8f3437b89212fae0dfadf
1,5.4144,space,3.6673,0,242,242,217,1,,,5f483afd936e951d89408736,64377315aa362cdc4fe8bdc8,2023-04-12_23h16.04.839,PRaM,2021.2.3,Win32,60.14675809,61b8f3437b89212fae0dfadf
7,9.1595,space,7.3568,0,243,243,60,1,,,5f483afd936e951d89408736,64377315aa362cdc4fe8bdc8,2023-04-12_23h16.04.839,PRaM,2021.2.3,Win32,60.14675809,61b8f3437b89212fae0dfadf
7,2.6883,space,0.9253,0,244,244,112,1,,,5f483afd936e951d89408736,64377315aa362cdc4fe8bdc8,2023-04-12_23h16.04.839,PRaM,2021.2.3,Win32,60.14675809,61b8f3437b89212fae0dfadf
8,2.4071,space,0.7332,0,245,245,297,1,,,5f483afd936e951d89408736,64377315aa362cdc4fe8bdc8,2023-04-12_23h16.04.839,PRaM,2021.2.3,Win32,60.14675809,61b8f3437b89212fae0dfadf
2,13.4218,space,11.6888,0,246,246,214,1,,,5f483afd936e951d89408736,64377315aa362cdc4fe8bdc8,2023-04-12_23h16.04.839,PRaM,2021.2.3,Win32,60.14675809,61b8f3437b89212fae0dfadf
8,1.7729,space,1.416,0,247,247,276,1,,,5f483afd936e951d89408736,64377315aa362cdc4fe8bdc8,2023-04-12_23h16.04.839,PRaM,2021.2.3,Win32,60.14675809,61b8f3437b89212fae0dfadf
2,16.8016,space,15.0944,0,248,248,94,1,,,5f483afd936e951d89408736,64377315aa362cdc4fe8bdc8,2023-04-12_23h16.04.839,PRaM,2021.2.3,Win32,60.14675809,61b8f3437b89212fae0dfadf
2,18.7682,space,16.966,0,249,249,247,1,,,5f483afd936e951d89408736,64377315aa362cdc4fe8bdc8,2023-04-12_23h16.04.839,PRaM,2021.2.3,Win32,60.14675809,61b8f3437b89212fae0dfadf
7,1.856,space,0.1851,0,250,250,226,1,,,5f483afd936e951d89408736,64377315aa362cdc4fe8bdc8,2023-04-12_23h16.04.839,PRaM,2021.2.3,Win32,60.14675809,61b8f3437b89212fae0dfadf
6,20.4504,space,18.6592,0,251,251,176,1,,,5f483afd936e951d89408736,64377315aa362cdc4fe8bdc8,2023-04-12_23h16.04.839,PRaM,2021.2.3,Win32,60.14675809,61b8f3437b89212fae0dfadf
6,4.9557,space,3.2193,0,252,252,344,1,,,5f483afd936e951d89408736,64377315aa362cdc4fe8bdc8,2023-04-12_23h16.04.839,PRaM,2021.2.3,Win32,60.14675809,61b8f3437b89212fae0dfadf
7,2.0386,space,0.2506,0,253,253,59,1,,,5f483afd936e951d89408736,64377315aa362cdc4fe8bdc8,2023-04-12_23h16.04.839,PRaM,2021.2.3,Win32,60.14675809,61b8f3437b89212fae0dfadf
8,2.3825,space,0.8664,0,254,254,6,1,,,5f483afd936e951d89408736,64377315aa362cdc4fe8bdc8,2023-04-12_23h16.04.839,PRaM,2021.2.3,Win32,60.14675809,61b8f3437b89212fae0dfadf
1,1.7054,space,0.3682,0,255,255,322,1,,,5f483afd936e951d89408736,64377315aa362cdc4fe8bdc8,2023-04-12_23h16.04.839,PRaM,2021.2.3,Win32,60.14675809,61b8f3437b89212fae0dfadf
1,6.5585,space,4.8123,0,256,256,345,1,,,5f483afd936e951d89408736,64377315aa362cdc4fe8bdc8,2023-04-12_23h16.04.839,PRaM,2021.2.3,Win32,60.14675809,61b8f3437b89212fae0dfadf
9,9.5591,space,7.8767,0,257,257,372,1,,,5f483afd936e951d89408736,64377315aa362cdc4fe8bdc8,2023-04-12_23h16.04.839,PRaM,2021.2.3,Win32,60.14675809,61b8f3437b89212fae0dfadf
8,1.9886,space,0.1743,0,258,258,180,1,,,5f483afd936e951d89408736,64377315aa362cdc4fe8bdc8,2023-04-12_23h16.04.839,PRaM,2021.2.3,Win32,60.14675809,61b8f3437b89212fae0dfadf
2,3.305,space,1.7523,0,259,259,20,1,,,5f483afd936e951d89408736,64377315aa362cdc4fe8bdc8,2023-04-12_23h16.04.839,PRaM,2021.2.3,Win32,60.14675809,61b8f3437b89212fae0dfadf
6,19.9848,space,18.2202,0,260,260,82,1,,,5f483afd936e951d89408736,64377315aa362cdc4fe8bdc8,2023-04-12_23h16.04.839,PRaM,2021.2.3,Win32,60.14675809,61b8f3437b89212fae0dfadf
3,1.8458,space,1.0906,0,261,261,23,1,,,5f483afd936e951d89408736,64377315aa362cdc4fe8bdc8,2023-04-12_23h16.04.839,PRaM,2021.2.3,Win32,60.14675809,61b8f3437b89212fae0dfadf
2,1.7142,space,1.1779,0,262,262,315,1,,,5f483afd936e951d89408736,64377315aa362cdc4fe8bdc8,2023-04-12_23h16.04.839,PRaM,2021.2.3,Win32,60.14675809,61b8f3437b89212fae0dfadf
8,1.7575,space,0.0242,0,263,263,302,1,,,5f483afd936e951d89408736,64377315aa362cdc4fe8bdc8,2023-04-12_23h16.04.839,PRaM,2021.2.3,Win32,60.14675809,61b8f3437b89212fae0dfadf
5,2.309,space,0.5512,0,264,264,369,1,,,5f483afd936e951d89408736,64377315aa362cdc4fe8bdc8,2023-04-12_23h16.04.839,PRaM,2021.2.3,Win32,60.14675809,61b8f3437b89212fae0dfadf
2,11.2201,space,9.5341,0,265,265,307,1,,,5f483afd936e951d89408736,64377315aa362cdc4fe8bdc8,2023-04-12_23h16.04.839,PRaM,2021.2.3,Win32,60.14675809,61b8f3437b89212fae0dfadf
2,14.9252,space,13.2194,0,266,266,145,1,,,5f483afd936e951d89408736,64377315aa362cdc4fe8bdc8,2023-04-12_23h16.04.839,PRaM,2021.2.3,Win32,60.14675809,61b8f3437b89212fae0dfadf
2,1.3593,space,1.4726,0,267,267,79,1,,,5f483afd936e951d89408736,64377315aa362cdc4fe8bdc8,2023-04-12_23h16.04.839,PRaM,2021.2.3,Win32,60.14675809,61b8f3437b89212fae0dfadf
1,1.9405,space,0.2757,0,268,268,377,1,,,5f483afd936e951d89408736,64377315aa362cdc4fe8bdc8,2023-04-12_23h16.04.839,PRaM,2021.2.3,Win32,60.14675809,61b8f3437b89212fae0dfadf
8,14.859,space,13.1425,0,269,269,61,1,,,5f483afd936e951d89408736,64377315aa362cdc4fe8bdc8,2023-04-12_23h16.04.839,PRaM,2021.2.3,Win32,60.14675809,61b8f3437b89212fae0dfadf
8,1.5063,space,0.4832,0,270,270,14,1,,,5f483afd936e951d89408736,64377315aa362cdc4fe8bdc8,2023-04-12_23h16.04.839,PRaM,2021.2.3,Win32,60.14675809,61b8f3437b89212fae0dfadf
2,14.3007,space,12.5618,0,271,271,179,1,,,5f483afd936e951d89408736,64377315aa362cdc4fe8bdc8,2023-04-12_23h16.04.839,PRaM,2021.2.3,Win32,60.14675809,61b8f3437b89212fae0dfadf
7,1.5393,space,1.172,0,272,272,291,1,,,5f483afd936e951d89408736,64377315aa362cdc4fe8bdc8,2023-04-12_23h16.04.839,PRaM,2021.2.3,Win32,60.14675809,61b8f3437b89212fae0dfadf
7,3.168,space,1.3547,0,273,273,204,1,,,5f483afd936e951d89408736,64377315aa362cdc4fe8bdc8,2023-04-12_23h16.04.839,PRaM,2021.2.3,Win32,60.14675809,61b8f3437b89212fae0dfadf
7,1.491,space,0.9039,0,274,274,21,1,,,5f483afd936e951d89408736,64377315aa362cdc4fe8bdc8,2023-04-12_23h16.04.839,PRaM,2021.2.3,Win32,60.14675809,61b8f3437b89212fae0dfadf
2,5.2963,space,3.5469,0,275,275,36,1,,,5f483afd936e951d89408736,64377315aa362cdc4fe8bdc8,2023-04-12_23h16.04.839,PRaM,2021.2.3,Win32,60.14675809,61b8f3437b89212fae0dfadf
8,2.439,space,0.6361,0,276,276,161,1,,,5f483afd936e951d89408736,64377315aa362cdc4fe8bdc8,2023-04-12_23h16.04.839,PRaM,2021.2.3,Win32,60.14675809,61b8f3437b89212fae0dfadf
6,1.9729,space,0.2681,0,277,277,99,1,,,5f483afd936e951d89408736,64377315aa362cdc4fe8bdc8,2023-04-12_23h16.04.839,PRaM,2021.2.3,Win32,60.14675809,61b8f3437b89212fae0dfadf
2,2.6664,space,1.5318,0,278,278,153,1,,,5f483afd936e951d89408736,64377315aa362cdc4fe8bdc8,2023-04-12_23h16.04.839,PRaM,2021.2.3,Win32,60.14675809,61b8f3437b89212fae0dfadf
6,2.6787,space,0.9833,0,279,279,255,1,,,5f483afd936e951d89408736,64377315aa362cdc4fe8bdc8,2023-04-12_23h16.04.839,PRaM,2021.2.3,Win32,60.14675809,61b8f3437b89212fae0dfadf
1,1.5966,space,0.3176,0,280,280,289,1,,,5f483afd936e951d89408736,64377315aa362cdc4fe8bdc8,2023-04-12_23h16.04.839,PRaM,2021.2.3,Win32,60.14675809,61b8f3437b89212fae0dfadf
2,3.2006,space,1.4867,0,281,281,76,1,,,5f483afd936e951d89408736,64377315aa362cdc4fe8bdc8,2023-04-12_23h16.04.839,PRaM,2021.2.3,Win32,60.14675809,61b8f3437b89212fae0dfadf
7,1.6561,space,0.6649,0,282,282,115,1,,,5f483afd936e951d89408736,64377315aa362cdc4fe8bdc8,2023-04-12_23h16.04.839,PRaM,2021.2.3,Win32,60.14675809,61b8f3437b89212fae0dfadf
9,1.9078,space,0.1668,0,283,283,42,1,,,5f483afd936e951d89408736,64377315aa362cdc4fe8bdc8,2023-04-12_23h16.04.839,PRaM,2021.2.3,Win32,60.14675809,61b8f3437b89212fae0dfadf
9,1.3443,space,0.1365,0,284,284,196,1,,,5f483afd936e951d89408736,64377315aa362cdc4fe8bdc8,2023-04-12_23h16.04.839,PRaM,2021.2.3,Win32,60.14675809,61b8f3437b89212fae0dfadf
9,1.7051,space,0.4163,0,285,285,114,1,,,5f483afd936e951d89408736,64377315aa362cdc4fe8bdc8,2023-04-12_23h16.04.839,PRaM,2021.2.3,Win32,60.14675809,61b8f3437b89212fae0dfadf
,,space,0.3373,0,286,286,160,1,,,5f483afd936e951d89408736,64377315aa362cdc4fe8bdc8,2023-04-12_23h16.04.839,PRaM,2021.2.3,Win32,60.14675809,61b8f3437b89212fae0dfadf
2,3.6789,space,1.9507,0,287,287,164,1,,,5f483afd936e951d89408736,64377315aa362cdc4fe8bdc8,2023-04-12_23h16.04.839,PRaM,2021.2.3,Win32,60.14675809,61b8f3437b89212fae0dfadf
7,2.739,space,0.9688,0,288,288,40,1,,,5f483afd936e951d89408736,64377315aa362cdc4fe8bdc8,2023-04-12_23h16.04.839,PRaM,2021.2.3,Win32,60.14675809,61b8f3437b89212fae0dfadf
2,2.1896,space,0.4433,0,289,289,189,1,,,5f483afd936e951d89408736,64377315aa362cdc4fe8bdc8,2023-04-12_23h16.04.839,PRaM,2021.2.3,Win32,60.14675809,61b8f3437b89212fae0dfadf
2,4.1645,space,2.7144,0,290,290,240,1,,,5f483afd936e951d89408736,64377315aa362cdc4fe8bdc8,2023-04-12_23h16.04.839,PRaM,2021.2.3,Win32,60.14675809,61b8f3437b89212fae0dfadf
9,13.0896,space,11.361,0,291,291,285,1,,,5f483afd936e951d89408736,64377315aa362cdc4fe8bdc8,2023-04-12_23h16.04.839,PRaM,2021.2.3,Win32,60.14675809,61b8f3437b89212fae0dfadf
9,1.6735,space,0.4171,0,292,292,333,1,,,5f483afd936e951d89408736,64377315aa362cdc4fe8bdc8,2023-04-12_23h16.04.839,PRaM,2021.2.3,Win32,60.14675809,61b8f3437b89212fae0dfadf
7,2.6561,space,0.8991,0,293,293,55,1,,,5f483afd936e951d89408736,64377315aa362cdc4fe8bdc8,2023-04-12_23h16.04.839,PRaM,2021.2.3,Win32,60.14675809,61b8f3437b89212fae0dfadf
7,1.7915,space,0.0739,0,294,294,194,1,,,5f483afd936e951d89408736,64377315aa362cdc4fe8bdc8,2023-04-12_23h16.04.839,PRaM,2021.2.3,Win32,60.14675809,61b8f3437b89212fae0dfadf
1,2.7168,space,0.9873,0,295,295,272,1,,,5f483afd936e951d89408736,64377315aa362cdc4fe8bdc8,2023-04-12_23h16.04.839,PRaM,2021.2.3,Win32,60.14675809,61b8f3437b89212fae0dfadf
7,1.979,space,0.2535,0,296,296,127,1,,,5f483afd936e951d89408736,64377315aa362cdc4fe8bdc8,2023-04-12_23h16.04.839,PRaM,2021.2.3,Win32,60.14675809,61b8f3437b89212fae0dfadf
8,2.5429,space,0.799,0,297,297,235,1,,,5f483afd936e951d89408736,64377315aa362cdc4fe8bdc8,2023-04-12_23h16.04.839,PRaM,2021.2.3,Win32,60.14675809,61b8f3437b89212fae0dfadf
1,1.5582,space,0.3284,0,298,298,371,1,,,5f483afd936e951d89408736,64377315aa362cdc4fe8bdc8,2023-04-12_23h16.04.839,PRaM,2021.2.3,Win32,60.14675809,61b8f3437b89212fae0dfadf
6,2.3901,space,0.6544,0,299,299,141,1,,,5f483afd936e951d89408736,64377315aa362cdc4fe8bdc8,2023-04-12_23h16.04.839,PRaM,2021.2.3,Win32,60.14675809,61b8f3437b89212fae0dfadf
6,2.609,space,0.9156,0,300,300,133,1,,,5f483afd936e951d89408736,64377315aa362cdc4fe8bdc8,2023-04-12_23h16.04.839,PRaM,2021.2.3,Win32,60.14675809,61b8f3437b89212fae0dfadf
3,2.6464,space,0.8885,0,301,301,57,1,,,5f483afd936e951d89408736,64377315aa362cdc4fe8bdc8,2023-04-12_23h16.04.839,PRaM,2021.2.3,Win32,60.14675809,61b8f3437b89212fae0dfadf
1,1.9578,space,0.2335,0,302,302,224,1,,,5f483afd936e951d89408736,64377315aa362cdc4fe8bdc8,2023-04-12_23h16.04.839,PRaM,2021.2.3,Win32,60.14675809,61b8f3437b89212fae0dfadf
1,1.1457,space,1.8523,0,303,303,332,1,,,5f483afd936e951d89408736,64377315aa362cdc4fe8bdc8,2023-04-12_23h16.04.839,PRaM,2021.2.3,Win32,60.14675809,61b8f3437b89212fae0dfadf
,,space,0.017,0,304,304,212,1,,,5f483afd936e951d89408736,64377315aa362cdc4fe8bdc8,2023-04-12_23h16.04.839,PRaM,2021.2.3,Win32,60.14675809,61b8f3437b89212fae0dfadf
1,0.925,space,4.2497,0,305,305,209,1,,,5f483afd936e951d89408736,64377315aa362cdc4fe8bdc8,2023-04-12_23h16.04.839,PRaM,2021.2.3,Win32,60.14675809,61b8f3437b89212fae0dfadf
1,1.5079,space,0.1868,0,306,306,182,1,,,5f483afd936e951d89408736,64377315aa362cdc4fe8bdc8,2023-04-12_23h16.04.839,PRaM,2021.2.3,Win32,60.14675809,61b8f3437b89212fae0dfadf
7,10.6289,space,8.9084,0,307,307,249,1,,,5f483afd936e951d89408736,64377315aa362cdc4fe8bdc8,2023-04-12_23h16.04.839,PRaM,2021.2.3,Win32,60.14675809,61b8f3437b89212fae0dfadf
8,4.7944,space,3.0872,0,308,308,340,1,,,5f483afd936e951d89408736,64377315aa362cdc4fe8bdc8,2023-04-12_23h16.04.839,PRaM,2021.2.3,Win32,60.14675809,61b8f3437b89212fae0dfadf
2,3.225,space,3.6849,0,309,309,231,1,,,5f483afd936e951d89408736,64377315aa362cdc4fe8bdc8,2023-04-12_23h16.04.839,PRaM,2021.2.3,Win32,60.14675809,61b8f3437b89212fae0dfadf
9,2.3068,space,0.6517,0,310,310,38,1,,,5f483afd936e951d89408736,64377315aa362cdc4fe8bdc8,2023-04-12_23h16.04.839,PRaM,2021.2.3,Win32,60.14675809,61b8f3437b89212fae0dfadf
8,4.5389,space,2.8319,0,311,311,263,1,,,5f483afd936e951d89408736,64377315aa362cdc4fe8bdc8,2023-04-12_23h16.04.839,PRaM,2021.2.3,Win32,60.14675809,61b8f3437b89212fae0dfadf
8,33.4169,space,31.7092,0,312,312,360,1,,,5f483afd936e951d89408736,64377315aa362cdc4fe8bdc8,2023-04-12_23h16.04.839,PRaM,2021.2.3,Win32,60.14675809,61b8f3437b89212fae0dfadf
8,3.0771,space,2.5333,0,313,313,366,1,,,5f483afd936e951d89408736,64377315aa362cdc4fe8bdc8,2023-04-12_23h16.04.839,PRaM,2021.2.3,Win32,60.14675809,61b8f3437b89212fae0dfadf
1,2.3533,space,0.7563,0,314,314,1,1,,,5f483afd936e951d89408736,64377315aa362cdc4fe8bdc8,2023-04-12_23h16.04.839,PRaM,2021.2.3,Win32,60.14675809,61b8f3437b89212fae0dfadf
1,2.1726,space,0.4233,0,315,315,211,1,,,5f483afd936e951d89408736,64377315aa362cdc4fe8bdc8,2023-04-12_23h16.04.839,PRaM,2021.2.3,Win32,60.14675809,61b8f3437b89212fae0dfadf
1,2.2111,space,0.4839,0,316,316,107,1,,,5f483afd936e951d89408736,64377315aa362cdc4fe8bdc8,2023-04-12_23h16.04.839,PRaM,2021.2.3,Win32,60.14675809,61b8f3437b89212fae0dfadf
1,4.3472,space,2.6361,0,317,317,259,1,,,5f483afd936e951d89408736,64377315aa362cdc4fe8bdc8,2023-04-12_23h16.04.839,PRaM,2021.2.3,Win32,60.14675809,61b8f3437b89212fae0dfadf
9,3.3835,space,1.6687,0,318,318,220,1,,,5f483afd936e951d89408736,64377315aa362cdc4fe8bdc8,2023-04-12_23h16.04.839,PRaM,2021.2.3,Win32,60.14675809,61b8f3437b89212fae0dfadf
8,1.0032,space,1.1866,0,319,319,257,1,,,5f483afd936e951d89408736,64377315aa362cdc4fe8bdc8,2023-04-12_23h16.04.839,PRaM,2021.2.3,Win32,60.14675809,61b8f3437b89212fae0dfadf
2,1.7935,space,0.1064,0,320,320,156,1,,,5f483afd936e951d89408736,64377315aa362cdc4fe8bdc8,2023-04-12_23h16.04.839,PRaM,2021.2.3,Win32,60.14675809,61b8f3437b89212fae0dfadf
8,1.6726,space,0.2788,0,321,321,243,1,,,5f483afd936e951d89408736,64377315aa362cdc4fe8bdc8,2023-04-12_23h16.04.839,PRaM,2021.2.3,Win32,60.14675809,61b8f3437b89212fae0dfadf
9,1.2918,space,1.3468,0,322,322,138,1,,,5f483afd936e951d89408736,64377315aa362cdc4fe8bdc8,2023-04-12_23h16.04.839,PRaM,2021.2.3,Win32,60.14675809,61b8f3437b89212fae0dfadf
2,1.5918,space,0.2011,0,323,323,207,1,,,5f483afd936e951d89408736,64377315aa362cdc4fe8bdc8,2023-04-12_23h16.04.839,PRaM,2021.2.3,Win32,60.14675809,61b8f3437b89212fae0dfadf
9,1.9889,space,0.2772,0,324,324,334,1,,,5f483afd936e951d89408736,64377315aa362cdc4fe8bdc8,2023-04-12_23h16.04.839,PRaM,2021.2.3,Win32,60.14675809,61b8f3437b89212fae0dfadf
1,2.6717,space,0.9383,0,325,325,26,1,,,5f483afd936e951d89408736,64377315aa362cdc4fe8bdc8,2023-04-12_23h16.04.839,PRaM,2021.2.3,Win32,60.14675809,61b8f3437b89212fae0dfadf
1,1.0922,space,0.938,0,326,326,279,1,,,5f483afd936e951d89408736,64377315aa362cdc4fe8bdc8,2023-04-12_23h16.04.839,PRaM,2021.2.3,Win32,60.14675809,61b8f3437b89212fae0dfadf
1,1.3735,space,0.5687,0,327,327,239,1,,,5f483afd936e951d89408736,64377315aa362cdc4fe8bdc8,2023-04-12_23h16.04.839,PRaM,2021.2.3,Win32,60.14675809,61b8f3437b89212fae0dfadf
1,2.9737,space,1.4009,0,328,328,25,1,,,5f483afd936e951d89408736,64377315aa362cdc4fe8bdc8,2023-04-12_23h16.04.839,PRaM,2021.2.3,Win32,60.14675809,61b8f3437b89212fae0dfadf
2,2.1728,space,0.4384,0,329,329,117,1,,,5f483afd936e951d89408736,64377315aa362cdc4fe8bdc8,2023-04-12_23h16.04.839,PRaM,2021.2.3,Win32,60.14675809,61b8f3437b89212fae0dfadf
3,0.759,space,0.7727,0,330,330,275,1,,,5f483afd936e951d89408736,64377315aa362cdc4fe8bdc8,2023-04-12_23h16.04.839,PRaM,2021.2.3,Win32,60.14675809,61b8f3437b89212fae0dfadf
2,1.0792,space,0.1162,0,331,331,261,1,,,5f483afd936e951d89408736,64377315aa362cdc4fe8bdc8,2023-04-12_23h16.04.839,PRaM,2021.2.3,Win32,60.14675809,61b8f3437b89212fae0dfadf
1,32.0024,space,30.2591,0,332,332,91,1,,,5f483afd936e951d89408736,64377315aa362cdc4fe8bdc8,2023-04-12_23h16.04.839,PRaM,2021.2.3,Win32,60.14675809,61b8f3437b89212fae0dfadf
1,3.0868,space,1.3382,0,333,333,63,1,,,5f483afd936e951d89408736,64377315aa362cdc4fe8bdc8,2023-04-12_23h16.04.839,PRaM,2021.2.3,Win32,60.14675809,61b8f3437b89212fae0dfadf
8,3.4214,space,1.8158,0,334,334,200,1,,,5f483afd936e951d89408736,64377315aa362cdc4fe8bdc8,2023-04-12_23h16.04.839,PRaM,2021.2.3,Win32,60.14675809,61b8f3437b89212fae0dfadf
7,1.9708,space,0.255,0,335,335,328,1,,,5f483afd936e951d89408736,64377315aa362cdc4fe8bdc8,2023-04-12_23h16.04.839,PRaM,2021.2.3,Win32,60.14675809,61b8f3437b89212fae0dfadf
2,5.028,space,3.3857,0,336,336,191,1,,,5f483afd936e951d89408736,64377315aa362cdc4fe8bdc8,2023-04-12_23h16.04.839,PRaM,2021.2.3,Win32,60.14675809,61b8f3437b89212fae0dfadf
7,2.3243,space,0.604,0,337,337,304,1,,,5f483afd936e951d89408736,64377315aa362cdc4fe8bdc8,2023-04-12_23h16.04.839,PRaM,2021.2.3,Win32,60.14675809,61b8f3437b89212fae0dfadf
7,2.412,space,0.6509,0,338,338,306,1,,,5f483afd936e951d89408736,64377315aa362cdc4fe8bdc8,2023-04-12_23h16.04.839,PRaM,2021.2.3,Win32,60.14675809,61b8f3437b89212fae0dfadf
2,3.1903,space,1.4595,0,339,339,97,1,,,5f483afd936e951d89408736,64377315aa362cdc4fe8bdc8,2023-04-12_23h16.04.839,PRaM,2021.2.3,Win32,60.14675809,61b8f3437b89212fae0dfadf
2,2.038,space,0.2505,0,340,340,227,1,,,5f483afd936e951d89408736,64377315aa362cdc4fe8bdc8,2023-04-12_23h16.04.839,PRaM,2021.2.3,Win32,60.14675809,61b8f3437b89212fae0dfadf
2,1.5761,space,1.14,0,341,341,35,1,,,5f483afd936e951d89408736,64377315aa362cdc4fe8bdc8,2023-04-12_23h16.04.839,PRaM,2021.2.3,Win32,60.14675809,61b8f3437b89212fae0dfadf
2,2.4898,space,0.7774,0,342,342,184,1,,,5f483afd936e951d89408736,64377315aa362cdc4fe8bdc8,2023-04-12_23h16.04.839,PRaM,2021.2.3,Win32,60.14675809,61b8f3437b89212fae0dfadf
3,2.4219,space,0.6692,0,343,343,69,1,,,5f483afd936e951d89408736,64377315aa362cdc4fe8bdc8,2023-04-12_23h16.04.839,PRaM,2021.2.3,Win32,60.14675809,61b8f3437b89212fae0dfadf
5,1.701,space,0.6298,0,344,344,123,1,,,5f483afd936e951d89408736,64377315aa362cdc4fe8bdc8,2023-04-12_23h16.04.839,PRaM,2021.2.3,Win32,60.14675809,61b8f3437b89212fae0dfadf
7,1.9942,space,0.2618,0,345,345,4,1,,,5f483afd936e951d89408736,64377315aa362cdc4fe8bdc8,2023-04-12_23h16.04.839,PRaM,2021.2.3,Win32,60.14675809,61b8f3437b89212fae0dfadf
7,1.6562,space,1.1091,0,346,346,368,1,,,5f483afd936e951d89408736,64377315aa362cdc4fe8bdc8,2023-04-12_23h16.04.839,PRaM,2021.2.3,Win32,60.14675809,61b8f3437b89212fae0dfadf
8,1.8586,space,0.1393,0,347,347,37,1,,,5f483afd936e951d89408736,64377315aa362cdc4fe8bdc8,2023-04-12_23h16.04.839,PRaM,2021.2.3,Win32,60.14675809,61b8f3437b89212fae0dfadf
8,3.0154,space,1.2712,0,348,348,178,1,,,5f483afd936e951d89408736,64377315aa362cdc4fe8bdc8,2023-04-12_23h16.04.839,PRaM,2021.2.3,Win32,60.14675809,61b8f3437b89212fae0dfadf
8,1.6796,space,0.6246,0,349,349,140,1,,,5f483afd936e951d89408736,64377315aa362cdc4fe8bdc8,2023-04-12_23h16.04.839,PRaM,2021.2.3,Win32,60.14675809,61b8f3437b89212fae0dfadf
8,1.5224,space,0.3694,0,350,350,43,1,,,5f483afd936e951d89408736,64377315aa362cdc4fe8bdc8,2023-04-12_23h16.04.839,PRaM,2021.2.3,Win32,60.14675809,61b8f3437b89212fae0dfadf
2,1.8224,space,0.0271,0,351,351,64,1,,,5f483afd936e951d89408736,64377315aa362cdc4fe8bdc8,2023-04-12_23h16.04.839,PRaM,2021.2.3,Win32,60.14675809,61b8f3437b89212fae0dfadf
2,1.4775,space,0.1753,0,352,352,347,1,,,5f483afd936e951d89408736,64377315aa362cdc4fe8bdc8,2023-04-12_23h16.04.839,PRaM,2021.2.3,Win32,60.14675809,61b8f3437b89212fae0dfadf
7,5.6906,space,3.9683,0,353,353,132,1,,,5f483afd936e951d89408736,64377315aa362cdc4fe8bdc8,2023-04-12_23h16.04.839,PRaM,2021.2.3,Win32,60.14675809,61b8f3437b89212fae0dfadf
6,2.9548,space,1.2387,0,354,354,326,1,,,5f483afd936e951d89408736,64377315aa362cdc4fe8bdc8,2023-04-12_23h16.04.839,PRaM,2021.2.3,Win32,60.14675809,61b8f3437b89212fae0dfadf
2,4.3312,space,2.6008,0,355,355,282,1,,,5f483afd936e951d89408736,64377315aa362cdc4fe8bdc8,2023-04-12_23h16.04.839,PRaM,2021.2.3,Win32,60.14675809,61b8f3437b89212fae0dfadf
6,13.973,space,12.2581,0,356,356,175,1,,,5f483afd936e951d89408736,64377315aa362cdc4fe8bdc8,2023-04-12_23h16.04.839,PRaM,2021.2.3,Win32,60.14675809,61b8f3437b89212fae0dfadf
2,1.8278,space,0.0835,0,357,357,348,1,,,5f483afd936e951d89408736,64377315aa362cdc4fe8bdc8,2023-04-12_23h16.04.839,PRaM,2021.2.3,Win32,60.14675809,61b8f3437b89212fae0dfadf
8,3.1749,space,1.4703,0,358,358,198,1,,,5f483afd936e951d89408736,64377315aa362cdc4fe8bdc8,2023-04-12_23h16.04.839,PRaM,2021.2.3,Win32,60.14675809,61b8f3437b89212fae0dfadf
2,1.8227,space,0.0573,0,359,359,103,1,,,5f483afd936e951d89408736,64377315aa362cdc4fe8bdc8,2023-04-12_23h16.04.839,PRaM,2021.2.3,Win32,60.14675809,61b8f3437b89212fae0dfadf
1,2.0251,space,0.2541,0,360,360,286,1,,,5f483afd936e951d89408736,64377315aa362cdc4fe8bdc8,2023-04-12_23h16.04.839,PRaM,2021.2.3,Win32,60.14675809,61b8f3437b89212fae0dfadf
1,1.0888,space,0.7338,0,361,361,373,1,,,5f483afd936e951d89408736,64377315aa362cdc4fe8bdc8,2023-04-12_23h16.04.839,PRaM,2021.2.3,Win32,60.14675809,61b8f3437b89212fae0dfadf
8,2.1679,space,0.4212,0,362,362,71,1,,,5f483afd936e951d89408736,64377315aa362cdc4fe8bdc8,2023-04-12_23h16.04.839,PRaM,2021.2.3,Win32,60.14675809,61b8f3437b89212fae0dfadf
8,1.279,space,0.3682,0,363,363,30,1,,,5f483afd936e951d89408736,64377315aa362cdc4fe8bdc8,2023-04-12_23h16.04.839,PRaM,2021.2.3,Win32,60.14675809,61b8f3437b89212fae0dfadf
2,4.9918,space,3.2848,0,364,364,229,1,,,5f483afd936e951d89408736,64377315aa362cdc4fe8bdc8,2023-04-12_23h16.04.839,PRaM,2021.2.3,Win32,60.14675809,61b8f3437b89212fae0dfadf
1,9.9506,space,8.4453,0,365,365,223,1,,,5f483afd936e951d89408736,64377315aa362cdc4fe8bdc8,2023-04-12_23h16.04.839,PRaM,2021.2.3,Win32,60.14675809,61b8f3437b89212fae0dfadf
8,5.2503,space,3.6019,0,366,366,316,1,,,5f483afd936e951d89408736,64377315aa362cdc4fe8bdc8,2023-04-12_23h16.04.839,PRaM,2021.2.3,Win32,60.14675809,61b8f3437b89212fae0dfadf
8,1.9219,space,0.1995,0,367,367,85,1,,,5f483afd936e951d89408736,64377315aa362cdc4fe8bdc8,2023-04-12_23h16.04.839,PRaM,2021.2.3,Win32,60.14675809,61b8f3437b89212fae0dfadf
7,2.0536,space,0.3337,0,368,368,352,1,,,5f483afd936e951d89408736,64377315aa362cdc4fe8bdc8,2023-04-12_23h16.04.839,PRaM,2021.2.3,Win32,60.14675809,61b8f3437b89212fae0dfadf
2,1.8804,space,0.1505,0,369,369,86,1,,,5f483afd936e951d89408736,64377315aa362cdc4fe8bdc8,2023-04-12_23h16.04.839,PRaM,2021.2.3,Win32,60.14675809,61b8f3437b89212fae0dfadf
1,36.689,space,3.7242,0,370,370,362,1,,,5f483afd936e951d89408736,64377315aa362cdc4fe8bdc8,2023-04-12_23h16.04.839,PRaM,2021.2.3,Win32,60.14675809,61b8f3437b89212fae0dfadf
8,1.7812,space,0.0722,0,371,371,331,1,,,5f483afd936e951d89408736,64377315aa362cdc4fe8bdc8,2023-04-12_23h16.04.839,PRaM,2021.2.3,Win32,60.14675809,61b8f3437b89212fae0dfadf
8,1.5044,space,1.0376,0,372,372,268,1,,,5f483afd936e951d89408736,64377315aa362cdc4fe8bdc8,2023-04-12_23h16.04.839,PRaM,2021.2.3,Win32,60.14675809,61b8f3437b89212fae0dfadf
9,3.4604,space,1.7322,0,373,373,84,1,,,5f483afd936e951d89408736,64377315aa362cdc4fe8bdc8,2023-04-12_23h16.04.839,PRaM,2021.2.3,Win32,60.14675809,61b8f3437b89212fae0dfadf
8,2.0037,space,0.2836,0,374,374,339,1,,,5f483afd936e951d89408736,64377315aa362cdc4fe8bdc8,2023-04-12_23h16.04.839,PRaM,2021.2.3,Win32,60.14675809,61b8f3437b89212fae0dfadf
2,1.8695,space,0.1396,0,375,375,78,1,,,5f483afd936e951d89408736,64377315aa362cdc4fe8bdc8,2023-04-12_23h16.04.839,PRaM,2021.2.3,Win32,60.14675809,61b8f3437b89212fae0dfadf
7,3.3428,space,1.5818,0,376,376,221,1,,,5f483afd936e951d89408736,64377315aa362cdc4fe8bdc8,2023-04-12_23h16.04.839,PRaM,2021.2.3,Win32,60.14675809,61b8f3437b89212fae0dfadf
8,1.7979,space,0.0867,0,377,377,93,1,,,5f483afd936e951d89408736,64377315aa362cdc4fe8bdc8,2023-04-12_23h16.04.839,PRaM,2021.2.3,Win32,60.14675809,61b8f3437b89212fae0dfadf
