Rating.response,Rating.rt,EndTrial.keys,EndTrial.rt,trials.thisRepN,trials.thisTrialN,trials.thisN,trials.thisIndex,trials.ran,Pos1,Pos2,participant,session,date,expName,psychopyVersion,OS,frameRate,study_id
,,space,26.3629,0,0,0,306,1,,,5f516a44067fba1b4c562a55,64377665f683687ad21116e0,2023-04-12_21h32.07.304,PRaM,2021.2.3,Win32,59.78358343,61b8f3437b89212fae0dfade
,,space,18.0794,0,1,1,128,1,,,5f516a44067fba1b4c562a55,64377665f683687ad21116e0,2023-04-12_21h32.07.304,PRaM,2021.2.3,Win32,59.78358343,61b8f3437b89212fae0dfade
8,17.1547,space,17.3428,0,2,2,323,1,,,5f516a44067fba1b4c562a55,64377665f683687ad21116e0,2023-04-12_21h32.07.304,PRaM,2021.2.3,Win32,59.78358343,61b8f3437b89212fae0dfade
6,3.0647,space,3.0902,0,3,3,199,1,,,5f516a44067fba1b4c562a55,64377665f683687ad21116e0,2023-04-12_21h32.07.304,PRaM,2021.2.3,Win32,59.78358343,61b8f3437b89212fae0dfade
2,7.5483,space,7.1407,0,4,4,148,1,,,5f516a44067fba1b4c562a55,64377665f683687ad21116e0,2023-04-12_21h32.07.304,PRaM,2021.2.3,Win32,59.78358343,61b8f3437b89212fae0dfade
4,7.090099999,space,5.606,0,5,5,281,1,,,5f516a44067fba1b4c562a55,64377665f683687ad21116e0,2023-04-12_21h32.07.304,PRaM,2021.2.3,Win32,59.78358343,61b8f3437b89212fae0dfade
7,3.5123,space,2.2253,0,6,6,62,1,,,5f516a44067fba1b4c562a55,64377665f683687ad21116e0,2023-04-12_21h32.07.304,PRaM,2021.2.3,Win32,59.78358343,61b8f3437b89212fae0dfade
5,4.3112,space,2.7995,0,7,7,194,1,,,5f516a44067fba1b4c562a55,64377665f683687ad21116e0,2023-04-12_21h32.07.304,PRaM,2021.2.3,Win32,59.78358343,61b8f3437b89212fae0dfade
2,26.376,space,25.8381,0,8,8,195,1,,,5f516a44067fba1b4c562a55,64377665f683687ad21116e0,2023-04-12_21h32.07.304,PRaM,2021.2.3,Win32,59.78358343,61b8f3437b89212fae0dfade
1,5.0747,space,3.7256,0,9,9,77,1,,,5f516a44067fba1b4c562a55,64377665f683687ad21116e0,2023-04-12_21h32.07.304,PRaM,2021.2.3,Win32,59.78358343,61b8f3437b89212fae0dfade
8,2.943200001,space,1.491400001,0,10,10,366,1,,,5f516a44067fba1b4c562a55,64377665f683687ad21116e0,2023-04-12_21h32.07.304,PRaM,2021.2.3,Win32,59.78358343,61b8f3437b89212fae0dfade
6,3.2225,space,1.784400001,0,11,11,32,1,,,5f516a44067fba1b4c562a55,64377665f683687ad21116e0,2023-04-12_21h32.07.304,PRaM,2021.2.3,Win32,59.78358343,61b8f3437b89212fae0dfade
7,2.9423,space,1.388599999,0,12,12,254,1,,,5f516a44067fba1b4c562a55,64377665f683687ad21116e0,2023-04-12_21h32.07.304,PRaM,2021.2.3,Win32,59.78358343,61b8f3437b89212fae0dfade
4,2.984900001,space,1.372900001,0,13,13,93,1,,,5f516a44067fba1b4c562a55,64377665f683687ad21116e0,2023-04-12_21h32.07.304,PRaM,2021.2.3,Win32,59.78358343,61b8f3437b89212fae0dfade
7,2.5292,space,0.998700001,0,14,14,296,1,,,5f516a44067fba1b4c562a55,64377665f683687ad21116e0,2023-04-12_21h32.07.304,PRaM,2021.2.3,Win32,59.78358343,61b8f3437b89212fae0dfade
1,3.1687,space,2.4853,0,15,15,286,1,,,5f516a44067fba1b4c562a55,64377665f683687ad21116e0,2023-04-12_21h32.07.304,PRaM,2021.2.3,Win32,59.78358343,61b8f3437b89212fae0dfade
2,2.493400001,space,0.8364,0,16,16,247,1,,,5f516a44067fba1b4c562a55,64377665f683687ad21116e0,2023-04-12_21h32.07.304,PRaM,2021.2.3,Win32,59.78358343,61b8f3437b89212fae0dfade
7,3.733,space,2.092599999,0,17,17,298,1,,,5f516a44067fba1b4c562a55,64377665f683687ad21116e0,2023-04-12_21h32.07.304,PRaM,2021.2.3,Win32,59.78358343,61b8f3437b89212fae0dfade
6,11.3764,space,9.8064,0,18,18,162,1,,,5f516a44067fba1b4c562a55,64377665f683687ad21116e0,2023-04-12_21h32.07.304,PRaM,2021.2.3,Win32,59.78358343,61b8f3437b89212fae0dfade
2,4.2489,space,2.766900001,0,19,19,129,1,,,5f516a44067fba1b4c562a55,64377665f683687ad21116e0,2023-04-12_21h32.07.304,PRaM,2021.2.3,Win32,59.78358343,61b8f3437b89212fae0dfade
2,17.7634,space,16.1621,0,20,20,55,1,,,5f516a44067fba1b4c562a55,64377665f683687ad21116e0,2023-04-12_21h32.07.304,PRaM,2021.2.3,Win32,59.78358343,61b8f3437b89212fae0dfade
2,3.1134,space,1.4522,0,21,21,206,1,,,5f516a44067fba1b4c562a55,64377665f683687ad21116e0,2023-04-12_21h32.07.304,PRaM,2021.2.3,Win32,59.78358343,61b8f3437b89212fae0dfade
3,3.7626,space,2.0788,0,22,22,292,1,,,5f516a44067fba1b4c562a55,64377665f683687ad21116e0,2023-04-12_21h32.07.304,PRaM,2021.2.3,Win32,59.78358343,61b8f3437b89212fae0dfade
1,2.6019,space,0.92,0,23,23,10,1,,,5f516a44067fba1b4c562a55,64377665f683687ad21116e0,2023-04-12_21h32.07.304,PRaM,2021.2.3,Win32,59.78358343,61b8f3437b89212fae0dfade
7,2.6917,space,1.104,0,24,24,33,1,,,5f516a44067fba1b4c562a55,64377665f683687ad21116e0,2023-04-12_21h32.07.304,PRaM,2021.2.3,Win32,59.78358343,61b8f3437b89212fae0dfade
7,3.7924,space,2.108099999,0,25,25,86,1,,,5f516a44067fba1b4c562a55,64377665f683687ad21116e0,2023-04-12_21h32.07.304,PRaM,2021.2.3,Win32,59.78358343,61b8f3437b89212fae0dfade
8,2.4707,space,0.7958,0,26,26,238,1,,,5f516a44067fba1b4c562a55,64377665f683687ad21116e0,2023-04-12_21h32.07.304,PRaM,2021.2.3,Win32,59.78358343,61b8f3437b89212fae0dfade
4,3.6665,space,2.0411,0,27,27,172,1,,,5f516a44067fba1b4c562a55,64377665f683687ad21116e0,2023-04-12_21h32.07.304,PRaM,2021.2.3,Win32,59.78358343,61b8f3437b89212fae0dfade
8,2.8587,space,1.1886,0,28,28,196,1,,,5f516a44067fba1b4c562a55,64377665f683687ad21116e0,2023-04-12_21h32.07.304,PRaM,2021.2.3,Win32,59.78358343,61b8f3437b89212fae0dfade
2,3.960900001,space,2.335,0,29,29,133,1,,,5f516a44067fba1b4c562a55,64377665f683687ad21116e0,2023-04-12_21h32.07.304,PRaM,2021.2.3,Win32,59.78358343,61b8f3437b89212fae0dfade
1,2.278599999,space,0.563,0,30,30,190,1,,,5f516a44067fba1b4c562a55,64377665f683687ad21116e0,2023-04-12_21h32.07.304,PRaM,2021.2.3,Win32,59.78358343,61b8f3437b89212fae0dfade
2,2.1014,space,0.4591,0,31,31,312,1,,,5f516a44067fba1b4c562a55,64377665f683687ad21116e0,2023-04-12_21h32.07.304,PRaM,2021.2.3,Win32,59.78358343,61b8f3437b89212fae0dfade
8,2.397900001,space,0.7184,0,32,32,222,1,,,5f516a44067fba1b4c562a55,64377665f683687ad21116e0,2023-04-12_21h32.07.304,PRaM,2021.2.3,Win32,59.78358343,61b8f3437b89212fae0dfade
1,4.8303,space,3.1241,0,33,33,243,1,,,5f516a44067fba1b4c562a55,64377665f683687ad21116e0,2023-04-12_21h32.07.304,PRaM,2021.2.3,Win32,59.78358343,61b8f3437b89212fae0dfade
3,3.3134,space,1.5169,0,34,34,343,1,,,5f516a44067fba1b4c562a55,64377665f683687ad21116e0,2023-04-12_21h32.07.304,PRaM,2021.2.3,Win32,59.78358343,61b8f3437b89212fae0dfade
9,4.7657,space,3.080900001,0,35,35,307,1,,,5f516a44067fba1b4c562a55,64377665f683687ad21116e0,2023-04-12_21h32.07.304,PRaM,2021.2.3,Win32,59.78358343,61b8f3437b89212fae0dfade
8,2.2394,space,0.5892,0,36,36,216,1,,,5f516a44067fba1b4c562a55,64377665f683687ad21116e0,2023-04-12_21h32.07.304,PRaM,2021.2.3,Win32,59.78358343,61b8f3437b89212fae0dfade
8,5.8343,space,4.1338,0,37,37,134,1,,,5f516a44067fba1b4c562a55,64377665f683687ad21116e0,2023-04-12_21h32.07.304,PRaM,2021.2.3,Win32,59.78358343,61b8f3437b89212fae0dfade
7,2.0629,space,0.333900001,0,38,38,142,1,,,5f516a44067fba1b4c562a55,64377665f683687ad21116e0,2023-04-12_21h32.07.304,PRaM,2021.2.3,Win32,59.78358343,61b8f3437b89212fae0dfade
8,3.223299999,space,1.5746,0,39,39,256,1,,,5f516a44067fba1b4c562a55,64377665f683687ad21116e0,2023-04-12_21h32.07.304,PRaM,2021.2.3,Win32,59.78358343,61b8f3437b89212fae0dfade
2,2.3446,space,0.6801,0,40,40,214,1,,,5f516a44067fba1b4c562a55,64377665f683687ad21116e0,2023-04-12_21h32.07.304,PRaM,2021.2.3,Win32,59.78358343,61b8f3437b89212fae0dfade
1,2.600599999,space,1.5153,0,41,41,248,1,,,5f516a44067fba1b4c562a55,64377665f683687ad21116e0,2023-04-12_21h32.07.304,PRaM,2021.2.3,Win32,59.78358343,61b8f3437b89212fae0dfade
2,22.0249,space,21.005,0,42,42,229,1,,,5f516a44067fba1b4c562a55,64377665f683687ad21116e0,2023-04-12_21h32.07.304,PRaM,2021.2.3,Win32,59.78358343,61b8f3437b89212fae0dfade
7,5.2265,space,3.5131,0,43,43,80,1,,,5f516a44067fba1b4c562a55,64377665f683687ad21116e0,2023-04-12_21h32.07.304,PRaM,2021.2.3,Win32,59.78358343,61b8f3437b89212fae0dfade
8,3.298099999,space,2.3769,0,44,44,173,1,,,5f516a44067fba1b4c562a55,64377665f683687ad21116e0,2023-04-12_21h32.07.304,PRaM,2021.2.3,Win32,59.78358343,61b8f3437b89212fae0dfade
2,3.297,space,1.6407,0,45,45,321,1,,,5f516a44067fba1b4c562a55,64377665f683687ad21116e0,2023-04-12_21h32.07.304,PRaM,2021.2.3,Win32,59.78358343,61b8f3437b89212fae0dfade
8,10.1041,space,8.4671,0,46,46,38,1,,,5f516a44067fba1b4c562a55,64377665f683687ad21116e0,2023-04-12_21h32.07.304,PRaM,2021.2.3,Win32,59.78358343,61b8f3437b89212fae0dfade
1,5.167400001,space,3.5125,0,47,47,251,1,,,5f516a44067fba1b4c562a55,64377665f683687ad21116e0,2023-04-12_21h32.07.304,PRaM,2021.2.3,Win32,59.78358343,61b8f3437b89212fae0dfade
3,8.8805,space,7.1522,0,48,48,96,1,,,5f516a44067fba1b4c562a55,64377665f683687ad21116e0,2023-04-12_21h32.07.304,PRaM,2021.2.3,Win32,59.78358343,61b8f3437b89212fae0dfade
2,2.482099999,space,0.7418,0,49,49,122,1,,,5f516a44067fba1b4c562a55,64377665f683687ad21116e0,2023-04-12_21h32.07.304,PRaM,2021.2.3,Win32,59.78358343,61b8f3437b89212fae0dfade
2,7.406900001,space,5.702299999,0,50,50,223,1,,,5f516a44067fba1b4c562a55,64377665f683687ad21116e0,2023-04-12_21h32.07.304,PRaM,2021.2.3,Win32,59.78358343,61b8f3437b89212fae0dfade
1,1.9804,space,0.2088,0,51,51,23,1,,,5f516a44067fba1b4c562a55,64377665f683687ad21116e0,2023-04-12_21h32.07.304,PRaM,2021.2.3,Win32,59.78358343,61b8f3437b89212fae0dfade
7,2.7411,space,1.003299999,0,52,52,325,1,,,5f516a44067fba1b4c562a55,64377665f683687ad21116e0,2023-04-12_21h32.07.304,PRaM,2021.2.3,Win32,59.78358343,61b8f3437b89212fae0dfade
2,2.1628,space,0.464,0,53,53,293,1,,,5f516a44067fba1b4c562a55,64377665f683687ad21116e0,2023-04-12_21h32.07.304,PRaM,2021.2.3,Win32,59.78358343,61b8f3437b89212fae0dfade
8,18.6658,space,17.0106,0,54,54,12,1,,,5f516a44067fba1b4c562a55,64377665f683687ad21116e0,2023-04-12_21h32.07.304,PRaM,2021.2.3,Win32,59.78358343,61b8f3437b89212fae0dfade
2,2.624799999,space,0.9307,0,55,55,217,1,,,5f516a44067fba1b4c562a55,64377665f683687ad21116e0,2023-04-12_21h32.07.304,PRaM,2021.2.3,Win32,59.78358343,61b8f3437b89212fae0dfade
8,3.3515,space,1.5595,0,56,56,151,1,,,5f516a44067fba1b4c562a55,64377665f683687ad21116e0,2023-04-12_21h32.07.304,PRaM,2021.2.3,Win32,59.78358343,61b8f3437b89212fae0dfade
1,3.3426,space,1.693900001,0,57,57,245,1,,,5f516a44067fba1b4c562a55,64377665f683687ad21116e0,2023-04-12_21h32.07.304,PRaM,2021.2.3,Win32,59.78358343,61b8f3437b89212fae0dfade
8,3.3357,space,1.6862,0,58,58,355,1,,,5f516a44067fba1b4c562a55,64377665f683687ad21116e0,2023-04-12_21h32.07.304,PRaM,2021.2.3,Win32,59.78358343,61b8f3437b89212fae0dfade
2,4.912599999,space,3.2955,0,59,59,362,1,,,5f516a44067fba1b4c562a55,64377665f683687ad21116e0,2023-04-12_21h32.07.304,PRaM,2021.2.3,Win32,59.78358343,61b8f3437b89212fae0dfade
6,3.9432,space,2.2608,0,60,60,0,1,,,5f516a44067fba1b4c562a55,64377665f683687ad21116e0,2023-04-12_21h32.07.304,PRaM,2021.2.3,Win32,59.78358343,61b8f3437b89212fae0dfade
8,1.9022,space,1.4264,0,61,61,120,1,,,5f516a44067fba1b4c562a55,64377665f683687ad21116e0,2023-04-12_21h32.07.304,PRaM,2021.2.3,Win32,59.78358343,61b8f3437b89212fae0dfade
6,2.954400001,space,1.2712,0,62,62,348,1,,,5f516a44067fba1b4c562a55,64377665f683687ad21116e0,2023-04-12_21h32.07.304,PRaM,2021.2.3,Win32,59.78358343,61b8f3437b89212fae0dfade
2,2.742400001,space,1.005,0,63,63,329,1,,,5f516a44067fba1b4c562a55,64377665f683687ad21116e0,2023-04-12_21h32.07.304,PRaM,2021.2.3,Win32,59.78358343,61b8f3437b89212fae0dfade
1,2.6226,space,0.922,0,64,64,111,1,,,5f516a44067fba1b4c562a55,64377665f683687ad21116e0,2023-04-12_21h32.07.304,PRaM,2021.2.3,Win32,59.78358343,61b8f3437b89212fae0dfade
1,13.3646,space,12.7837,0,65,65,70,1,,,5f516a44067fba1b4c562a55,64377665f683687ad21116e0,2023-04-12_21h32.07.304,PRaM,2021.2.3,Win32,59.78358343,61b8f3437b89212fae0dfade
2,6.9263,space,5.251099999,0,66,66,109,1,,,5f516a44067fba1b4c562a55,64377665f683687ad21116e0,2023-04-12_21h32.07.304,PRaM,2021.2.3,Win32,59.78358343,61b8f3437b89212fae0dfade
2,2.924400001,space,2.2932,0,67,67,235,1,,,5f516a44067fba1b4c562a55,64377665f683687ad21116e0,2023-04-12_21h32.07.304,PRaM,2021.2.3,Win32,59.78358343,61b8f3437b89212fae0dfade
8,2.664900001,space,0.9382,0,68,68,337,1,,,5f516a44067fba1b4c562a55,64377665f683687ad21116e0,2023-04-12_21h32.07.304,PRaM,2021.2.3,Win32,59.78358343,61b8f3437b89212fae0dfade
2,3.375200001,space,1.7242,0,69,69,50,1,,,5f516a44067fba1b4c562a55,64377665f683687ad21116e0,2023-04-12_21h32.07.304,PRaM,2021.2.3,Win32,59.78358343,61b8f3437b89212fae0dfade
9,2.7226,space,1.004599999,0,70,70,3,1,,,5f516a44067fba1b4c562a55,64377665f683687ad21116e0,2023-04-12_21h32.07.304,PRaM,2021.2.3,Win32,59.78358343,61b8f3437b89212fae0dfade
3,2.9419,space,1.2383,0,71,71,333,1,,,5f516a44067fba1b4c562a55,64377665f683687ad21116e0,2023-04-12_21h32.07.304,PRaM,2021.2.3,Win32,59.78358343,61b8f3437b89212fae0dfade
6,4.0943,space,2.4279,0,72,72,74,1,,,5f516a44067fba1b4c562a55,64377665f683687ad21116e0,2023-04-12_21h32.07.304,PRaM,2021.2.3,Win32,59.78358343,61b8f3437b89212fae0dfade
2,2.4732,space,0.8111,0,73,73,259,1,,,5f516a44067fba1b4c562a55,64377665f683687ad21116e0,2023-04-12_21h32.07.304,PRaM,2021.2.3,Win32,59.78358343,61b8f3437b89212fae0dfade
2,5.1814,space,3.4985,0,74,74,331,1,,,5f516a44067fba1b4c562a55,64377665f683687ad21116e0,2023-04-12_21h32.07.304,PRaM,2021.2.3,Win32,59.78358343,61b8f3437b89212fae0dfade
6,2.9249,space,1.242599999,0,75,75,30,1,,,5f516a44067fba1b4c562a55,64377665f683687ad21116e0,2023-04-12_21h32.07.304,PRaM,2021.2.3,Win32,59.78358343,61b8f3437b89212fae0dfade
5,3.2912,space,1.575,0,76,76,371,1,,,5f516a44067fba1b4c562a55,64377665f683687ad21116e0,2023-04-12_21h32.07.304,PRaM,2021.2.3,Win32,59.78358343,61b8f3437b89212fae0dfade
5,2.9574,space,1.289,0,77,77,294,1,,,5f516a44067fba1b4c562a55,64377665f683687ad21116e0,2023-04-12_21h32.07.304,PRaM,2021.2.3,Win32,59.78358343,61b8f3437b89212fae0dfade
2,2.5747,space,0.7861,0,78,78,241,1,,,5f516a44067fba1b4c562a55,64377665f683687ad21116e0,2023-04-12_21h32.07.304,PRaM,2021.2.3,Win32,59.78358343,61b8f3437b89212fae0dfade
4,3.9775,space,2.2937,0,79,79,249,1,,,5f516a44067fba1b4c562a55,64377665f683687ad21116e0,2023-04-12_21h32.07.304,PRaM,2021.2.3,Win32,59.78358343,61b8f3437b89212fae0dfade
7,2.1553,space,0.4186,0,80,80,29,1,,,5f516a44067fba1b4c562a55,64377665f683687ad21116e0,2023-04-12_21h32.07.304,PRaM,2021.2.3,Win32,59.78358343,61b8f3437b89212fae0dfade
8,2.1226,space,0.4195,0,81,81,59,1,,,5f516a44067fba1b4c562a55,64377665f683687ad21116e0,2023-04-12_21h32.07.304,PRaM,2021.2.3,Win32,59.78358343,61b8f3437b89212fae0dfade
8,4.7192,space,3.0022,0,82,82,84,1,,,5f516a44067fba1b4c562a55,64377665f683687ad21116e0,2023-04-12_21h32.07.304,PRaM,2021.2.3,Win32,59.78358343,61b8f3437b89212fae0dfade
1,2.856400001,space,1.1535,0,83,83,35,1,,,5f516a44067fba1b4c562a55,64377665f683687ad21116e0,2023-04-12_21h32.07.304,PRaM,2021.2.3,Win32,59.78358343,61b8f3437b89212fae0dfade
2,1.9543,space,0.252,0,84,84,87,1,,,5f516a44067fba1b4c562a55,64377665f683687ad21116e0,2023-04-12_21h32.07.304,PRaM,2021.2.3,Win32,59.78358343,61b8f3437b89212fae0dfade
6,3.4256,space,1.7925,0,85,85,43,1,,,5f516a44067fba1b4c562a55,64377665f683687ad21116e0,2023-04-12_21h32.07.304,PRaM,2021.2.3,Win32,59.78358343,61b8f3437b89212fae0dfade
6,2.2378,space,0.503400001,0,86,86,126,1,,,5f516a44067fba1b4c562a55,64377665f683687ad21116e0,2023-04-12_21h32.07.304,PRaM,2021.2.3,Win32,59.78358343,61b8f3437b89212fae0dfade
5,3.475400001,space,1.7912,0,87,87,219,1,,,5f516a44067fba1b4c562a55,64377665f683687ad21116e0,2023-04-12_21h32.07.304,PRaM,2021.2.3,Win32,59.78358343,61b8f3437b89212fae0dfade
2,13.3643,space,11.6622,0,88,88,158,1,,,5f516a44067fba1b4c562a55,64377665f683687ad21116e0,2023-04-12_21h32.07.304,PRaM,2021.2.3,Win32,59.78358343,61b8f3437b89212fae0dfade
2,1.5205,space,2.6114,0,89,89,273,1,,,5f516a44067fba1b4c562a55,64377665f683687ad21116e0,2023-04-12_21h32.07.304,PRaM,2021.2.3,Win32,59.78358343,61b8f3437b89212fae0dfade
1,2.9781,space,1.307,0,90,90,107,1,,,5f516a44067fba1b4c562a55,64377665f683687ad21116e0,2023-04-12_21h32.07.304,PRaM,2021.2.3,Win32,59.78358343,61b8f3437b89212fae0dfade
1,4.4125,space,2.7122,0,91,91,318,1,,,5f516a44067fba1b4c562a55,64377665f683687ad21116e0,2023-04-12_21h32.07.304,PRaM,2021.2.3,Win32,59.78358343,61b8f3437b89212fae0dfade
4,3.5254,space,1.8239,0,92,92,103,1,,,5f516a44067fba1b4c562a55,64377665f683687ad21116e0,2023-04-12_21h32.07.304,PRaM,2021.2.3,Win32,59.78358343,61b8f3437b89212fae0dfade
6,3.759599999,space,2.0603,0,93,93,373,1,,,5f516a44067fba1b4c562a55,64377665f683687ad21116e0,2023-04-12_21h32.07.304,PRaM,2021.2.3,Win32,59.78358343,61b8f3437b89212fae0dfade
8,2.7419,space,1.0207,0,94,94,282,1,,,5f516a44067fba1b4c562a55,64377665f683687ad21116e0,2023-04-12_21h32.07.304,PRaM,2021.2.3,Win32,59.78358343,61b8f3437b89212fae0dfade
2,2.423099999,space,0.7361,0,95,95,31,1,,,5f516a44067fba1b4c562a55,64377665f683687ad21116e0,2023-04-12_21h32.07.304,PRaM,2021.2.3,Win32,59.78358343,61b8f3437b89212fae0dfade
7,2.2737,space,0.569599999,0,96,96,317,1,,,5f516a44067fba1b4c562a55,64377665f683687ad21116e0,2023-04-12_21h32.07.304,PRaM,2021.2.3,Win32,59.78358343,61b8f3437b89212fae0dfade
9,3.976900001,space,2.290900001,0,97,97,42,1,,,5f516a44067fba1b4c562a55,64377665f683687ad21116e0,2023-04-12_21h32.07.304,PRaM,2021.2.3,Win32,59.78358343,61b8f3437b89212fae0dfade
7,2.0388,space,0.3199,0,98,98,228,1,,,5f516a44067fba1b4c562a55,64377665f683687ad21116e0,2023-04-12_21h32.07.304,PRaM,2021.2.3,Win32,59.78358343,61b8f3437b89212fae0dfade
1,4.077900001,space,2.4446,0,99,99,253,1,,,5f516a44067fba1b4c562a55,64377665f683687ad21116e0,2023-04-12_21h32.07.304,PRaM,2021.2.3,Win32,59.78358343,61b8f3437b89212fae0dfade
2,2.257,space,0.5855,0,100,100,250,1,,,5f516a44067fba1b4c562a55,64377665f683687ad21116e0,2023-04-12_21h32.07.304,PRaM,2021.2.3,Win32,59.78358343,61b8f3437b89212fae0dfade
2,2.2229,space,0.487,0,101,101,193,1,,,5f516a44067fba1b4c562a55,64377665f683687ad21116e0,2023-04-12_21h32.07.304,PRaM,2021.2.3,Win32,59.78358343,61b8f3437b89212fae0dfade
7,4.1978,space,2.503400001,0,102,102,230,1,,,5f516a44067fba1b4c562a55,64377665f683687ad21116e0,2023-04-12_21h32.07.304,PRaM,2021.2.3,Win32,59.78358343,61b8f3437b89212fae0dfade
2,6.806,space,5.154599999,0,103,103,7,1,,,5f516a44067fba1b4c562a55,64377665f683687ad21116e0,2023-04-12_21h32.07.304,PRaM,2021.2.3,Win32,59.78358343,61b8f3437b89212fae0dfade
1,4.3506,space,2.694900001,0,104,104,121,1,,,5f516a44067fba1b4c562a55,64377665f683687ad21116e0,2023-04-12_21h32.07.304,PRaM,2021.2.3,Win32,59.78358343,61b8f3437b89212fae0dfade
2,3.9283,space,2.2629,0,105,105,97,1,,,5f516a44067fba1b4c562a55,64377665f683687ad21116e0,2023-04-12_21h32.07.304,PRaM,2021.2.3,Win32,59.78358343,61b8f3437b89212fae0dfade
7,2.4858,space,0.8349,0,106,106,56,1,,,5f516a44067fba1b4c562a55,64377665f683687ad21116e0,2023-04-12_21h32.07.304,PRaM,2021.2.3,Win32,59.78358343,61b8f3437b89212fae0dfade
5,2.5008,space,0.796,0,107,107,52,1,,,5f516a44067fba1b4c562a55,64377665f683687ad21116e0,2023-04-12_21h32.07.304,PRaM,2021.2.3,Win32,59.78358343,61b8f3437b89212fae0dfade
8,3.778,space,2.085599999,0,108,108,51,1,,,5f516a44067fba1b4c562a55,64377665f683687ad21116e0,2023-04-12_21h32.07.304,PRaM,2021.2.3,Win32,59.78358343,61b8f3437b89212fae0dfade
9,2.1732,space,0.4567,0,109,109,17,1,,,5f516a44067fba1b4c562a55,64377665f683687ad21116e0,2023-04-12_21h32.07.304,PRaM,2021.2.3,Win32,59.78358343,61b8f3437b89212fae0dfade
8,2.484900001,space,0.7765,0,110,110,114,1,,,5f516a44067fba1b4c562a55,64377665f683687ad21116e0,2023-04-12_21h32.07.304,PRaM,2021.2.3,Win32,59.78358343,61b8f3437b89212fae0dfade
8,2.1534,space,0.3383,0,111,111,370,1,,,5f516a44067fba1b4c562a55,64377665f683687ad21116e0,2023-04-12_21h32.07.304,PRaM,2021.2.3,Win32,59.78358343,61b8f3437b89212fae0dfade
2,3.1709,space,1.9418,0,112,112,263,1,,,5f516a44067fba1b4c562a55,64377665f683687ad21116e0,2023-04-12_21h32.07.304,PRaM,2021.2.3,Win32,59.78358343,61b8f3437b89212fae0dfade
8,3.993099999,space,2.291299999,0,113,113,270,1,,,5f516a44067fba1b4c562a55,64377665f683687ad21116e0,2023-04-12_21h32.07.304,PRaM,2021.2.3,Win32,59.78358343,61b8f3437b89212fae0dfade
1,7.4257,space,6.0905,0,114,114,15,1,,,5f516a44067fba1b4c562a55,64377665f683687ad21116e0,2023-04-12_21h32.07.304,PRaM,2021.2.3,Win32,59.78358343,61b8f3437b89212fae0dfade
1,6.5386,space,6.3908,0,115,115,21,1,,,5f516a44067fba1b4c562a55,64377665f683687ad21116e0,2023-04-12_21h32.07.304,PRaM,2021.2.3,Win32,59.78358343,61b8f3437b89212fae0dfade
5,2.271599999,space,0.555,0,116,116,124,1,,,5f516a44067fba1b4c562a55,64377665f683687ad21116e0,2023-04-12_21h32.07.304,PRaM,2021.2.3,Win32,59.78358343,61b8f3437b89212fae0dfade
8,2.3518,space,0.6164,0,117,117,61,1,,,5f516a44067fba1b4c562a55,64377665f683687ad21116e0,2023-04-12_21h32.07.304,PRaM,2021.2.3,Win32,59.78358343,61b8f3437b89212fae0dfade
2,3.4323,space,2.2595,0,118,118,237,1,,,5f516a44067fba1b4c562a55,64377665f683687ad21116e0,2023-04-12_21h32.07.304,PRaM,2021.2.3,Win32,59.78358343,61b8f3437b89212fae0dfade
2,2.3729,space,0.6668,0,119,119,299,1,,,5f516a44067fba1b4c562a55,64377665f683687ad21116e0,2023-04-12_21h32.07.304,PRaM,2021.2.3,Win32,59.78358343,61b8f3437b89212fae0dfade
1,2.105400001,space,0.3649,0,120,120,338,1,,,5f516a44067fba1b4c562a55,64377665f683687ad21116e0,2023-04-12_21h32.07.304,PRaM,2021.2.3,Win32,59.78358343,61b8f3437b89212fae0dfade
9,2.193799999,space,0.472799999,0,121,121,301,1,,,5f516a44067fba1b4c562a55,64377665f683687ad21116e0,2023-04-12_21h32.07.304,PRaM,2021.2.3,Win32,59.78358343,61b8f3437b89212fae0dfade
6,4.7795,space,3.4476,0,122,122,37,1,,,5f516a44067fba1b4c562a55,64377665f683687ad21116e0,2023-04-12_21h32.07.304,PRaM,2021.2.3,Win32,59.78358343,61b8f3437b89212fae0dfade
1,4.637,space,2.9458,0,123,123,92,1,,,5f516a44067fba1b4c562a55,64377665f683687ad21116e0,2023-04-12_21h32.07.304,PRaM,2021.2.3,Win32,59.78358343,61b8f3437b89212fae0dfade
8,2.5064,space,0.758700001,0,124,124,297,1,,,5f516a44067fba1b4c562a55,64377665f683687ad21116e0,2023-04-12_21h32.07.304,PRaM,2021.2.3,Win32,59.78358343,61b8f3437b89212fae0dfade
7,3.9842,space,2.2279,0,125,125,213,1,,,5f516a44067fba1b4c562a55,64377665f683687ad21116e0,2023-04-12_21h32.07.304,PRaM,2021.2.3,Win32,59.78358343,61b8f3437b89212fae0dfade
6,2.9149,space,1.1734,0,126,126,344,1,,,5f516a44067fba1b4c562a55,64377665f683687ad21116e0,2023-04-12_21h32.07.304,PRaM,2021.2.3,Win32,59.78358343,61b8f3437b89212fae0dfade
3,2.4157,space,0.713,0,127,127,25,1,,,5f516a44067fba1b4c562a55,64377665f683687ad21116e0,2023-04-12_21h32.07.304,PRaM,2021.2.3,Win32,59.78358343,61b8f3437b89212fae0dfade
9,2.0215,space,0.289799999,0,128,128,302,1,,,5f516a44067fba1b4c562a55,64377665f683687ad21116e0,2023-04-12_21h32.07.304,PRaM,2021.2.3,Win32,59.78358343,61b8f3437b89212fae0dfade
7,2.7997,space,1.120400001,0,129,129,310,1,,,5f516a44067fba1b4c562a55,64377665f683687ad21116e0,2023-04-12_21h32.07.304,PRaM,2021.2.3,Win32,59.78358343,61b8f3437b89212fae0dfade
2,3.7799,space,2.0598,0,130,130,320,1,,,5f516a44067fba1b4c562a55,64377665f683687ad21116e0,2023-04-12_21h32.07.304,PRaM,2021.2.3,Win32,59.78358343,61b8f3437b89212fae0dfade
2,9.6302,space,7.9518,0,131,131,268,1,,,5f516a44067fba1b4c562a55,64377665f683687ad21116e0,2023-04-12_21h32.07.304,PRaM,2021.2.3,Win32,59.78358343,61b8f3437b89212fae0dfade
4,6.5046,space,4.8193,0,132,132,327,1,,,5f516a44067fba1b4c562a55,64377665f683687ad21116e0,2023-04-12_21h32.07.304,PRaM,2021.2.3,Win32,59.78358343,61b8f3437b89212fae0dfade
8,4.6124,space,3.064400001,0,133,133,20,1,,,5f516a44067fba1b4c562a55,64377665f683687ad21116e0,2023-04-12_21h32.07.304,PRaM,2021.2.3,Win32,59.78358343,61b8f3437b89212fae0dfade
2,3.6751,space,1.9588,0,134,134,1,1,,,5f516a44067fba1b4c562a55,64377665f683687ad21116e0,2023-04-12_21h32.07.304,PRaM,2021.2.3,Win32,59.78358343,61b8f3437b89212fae0dfade
6,4.0276,space,2.361799999,0,135,135,47,1,,,5f516a44067fba1b4c562a55,64377665f683687ad21116e0,2023-04-12_21h32.07.304,PRaM,2021.2.3,Win32,59.78358343,61b8f3437b89212fae0dfade
5,2.7728,space,1.0548,0,136,136,72,1,,,5f516a44067fba1b4c562a55,64377665f683687ad21116e0,2023-04-12_21h32.07.304,PRaM,2021.2.3,Win32,59.78358343,61b8f3437b89212fae0dfade
2,40.8994,space,39.8504,0,137,137,203,1,,,5f516a44067fba1b4c562a55,64377665f683687ad21116e0,2023-04-12_21h32.07.304,PRaM,2021.2.3,Win32,59.78358343,61b8f3437b89212fae0dfade
7,5.2992,space,3.982,0,138,138,6,1,,,5f516a44067fba1b4c562a55,64377665f683687ad21116e0,2023-04-12_21h32.07.304,PRaM,2021.2.3,Win32,59.78358343,61b8f3437b89212fae0dfade
5,2.1375,space,0.4371,0,139,139,187,1,,,5f516a44067fba1b4c562a55,64377665f683687ad21116e0,2023-04-12_21h32.07.304,PRaM,2021.2.3,Win32,59.78358343,61b8f3437b89212fae0dfade
1,2.573799999,space,0.8693,0,140,140,113,1,,,5f516a44067fba1b4c562a55,64377665f683687ad21116e0,2023-04-12_21h32.07.304,PRaM,2021.2.3,Win32,59.78358343,61b8f3437b89212fae0dfade
6,3.3264,space,1.64,0,141,141,81,1,,,5f516a44067fba1b4c562a55,64377665f683687ad21116e0,2023-04-12_21h32.07.304,PRaM,2021.2.3,Win32,59.78358343,61b8f3437b89212fae0dfade
2,2.2885,space,0.5866,0,142,142,275,1,,,5f516a44067fba1b4c562a55,64377665f683687ad21116e0,2023-04-12_21h32.07.304,PRaM,2021.2.3,Win32,59.78358343,61b8f3437b89212fae0dfade
5,2.2884,space,0.584200001,0,143,143,101,1,,,5f516a44067fba1b4c562a55,64377665f683687ad21116e0,2023-04-12_21h32.07.304,PRaM,2021.2.3,Win32,59.78358343,61b8f3437b89212fae0dfade
7,2.4892,space,0.7536,0,144,144,45,1,,,5f516a44067fba1b4c562a55,64377665f683687ad21116e0,2023-04-12_21h32.07.304,PRaM,2021.2.3,Win32,59.78358343,61b8f3437b89212fae0dfade
8,2.1062,space,0.402799999,0,145,145,357,1,,,5f516a44067fba1b4c562a55,64377665f683687ad21116e0,2023-04-12_21h32.07.304,PRaM,2021.2.3,Win32,59.78358343,61b8f3437b89212fae0dfade
1,3.6104,space,1.992900001,0,146,146,60,1,,,5f516a44067fba1b4c562a55,64377665f683687ad21116e0,2023-04-12_21h32.07.304,PRaM,2021.2.3,Win32,59.78358343,61b8f3437b89212fae0dfade
9,3.3109,space,1.6129,0,147,147,127,1,,,5f516a44067fba1b4c562a55,64377665f683687ad21116e0,2023-04-12_21h32.07.304,PRaM,2021.2.3,Win32,59.78358343,61b8f3437b89212fae0dfade
2,3.0402,space,1.3036,0,148,148,95,1,,,5f516a44067fba1b4c562a55,64377665f683687ad21116e0,2023-04-12_21h32.07.304,PRaM,2021.2.3,Win32,59.78358343,61b8f3437b89212fae0dfade
8,2.190099999,space,0.4525,0,149,149,141,1,,,5f516a44067fba1b4c562a55,64377665f683687ad21116e0,2023-04-12_21h32.07.304,PRaM,2021.2.3,Win32,59.78358343,61b8f3437b89212fae0dfade
8,1.8408,space,0.1337,0,150,150,244,1,,,5f516a44067fba1b4c562a55,64377665f683687ad21116e0,2023-04-12_21h32.07.304,PRaM,2021.2.3,Win32,59.78358343,61b8f3437b89212fae0dfade
7,2.2729,space,0.519700001,0,151,151,347,1,,,5f516a44067fba1b4c562a55,64377665f683687ad21116e0,2023-04-12_21h32.07.304,PRaM,2021.2.3,Win32,59.78358343,61b8f3437b89212fae0dfade
3,2.808,space,1.1066,0,152,152,290,1,,,5f516a44067fba1b4c562a55,64377665f683687ad21116e0,2023-04-12_21h32.07.304,PRaM,2021.2.3,Win32,59.78358343,61b8f3437b89212fae0dfade
8,3.1905,space,1.455799999,0,153,153,75,1,,,5f516a44067fba1b4c562a55,64377665f683687ad21116e0,2023-04-12_21h32.07.304,PRaM,2021.2.3,Win32,59.78358343,61b8f3437b89212fae0dfade
2,4.0768,space,2.4443,0,154,154,78,1,,,5f516a44067fba1b4c562a55,64377665f683687ad21116e0,2023-04-12_21h32.07.304,PRaM,2021.2.3,Win32,59.78358343,61b8f3437b89212fae0dfade
3,12.9126,space,11.2437,0,155,155,57,1,,,5f516a44067fba1b4c562a55,64377665f683687ad21116e0,2023-04-12_21h32.07.304,PRaM,2021.2.3,Win32,59.78358343,61b8f3437b89212fae0dfade
5,2.1706,space,0.4185,0,156,156,272,1,,,5f516a44067fba1b4c562a55,64377665f683687ad21116e0,2023-04-12_21h32.07.304,PRaM,2021.2.3,Win32,59.78358343,61b8f3437b89212fae0dfade
7,2.407,space,0.670400001,0,157,157,211,1,,,5f516a44067fba1b4c562a55,64377665f683687ad21116e0,2023-04-12_21h32.07.304,PRaM,2021.2.3,Win32,59.78358343,61b8f3437b89212fae0dfade
5,1.820900001,space,0.1025,0,158,158,146,1,,,5f516a44067fba1b4c562a55,64377665f683687ad21116e0,2023-04-12_21h32.07.304,PRaM,2021.2.3,Win32,59.78358343,61b8f3437b89212fae0dfade
2,2.7395,space,1.0222,0,159,159,28,1,,,5f516a44067fba1b4c562a55,64377665f683687ad21116e0,2023-04-12_21h32.07.304,PRaM,2021.2.3,Win32,59.78358343,61b8f3437b89212fae0dfade
8,4.427799999,space,2.7276,0,160,160,192,1,,,5f516a44067fba1b4c562a55,64377665f683687ad21116e0,2023-04-12_21h32.07.304,PRaM,2021.2.3,Win32,59.78358343,61b8f3437b89212fae0dfade
8,2.4578,space,0.734400001,0,161,161,40,1,,,5f516a44067fba1b4c562a55,64377665f683687ad21116e0,2023-04-12_21h32.07.304,PRaM,2021.2.3,Win32,59.78358343,61b8f3437b89212fae0dfade
7,3.143200001,space,2.0424,0,162,162,221,1,,,5f516a44067fba1b4c562a55,64377665f683687ad21116e0,2023-04-12_21h32.07.304,PRaM,2021.2.3,Win32,59.78358343,61b8f3437b89212fae0dfade
7,2.791,space,1.0389,0,163,163,123,1,,,5f516a44067fba1b4c562a55,64377665f683687ad21116e0,2023-04-12_21h32.07.304,PRaM,2021.2.3,Win32,59.78358343,61b8f3437b89212fae0dfade
8,2.573900001,space,0.7352,0,164,164,145,1,,,5f516a44067fba1b4c562a55,64377665f683687ad21116e0,2023-04-12_21h32.07.304,PRaM,2021.2.3,Win32,59.78358343,61b8f3437b89212fae0dfade
6,4.834900001,space,3.1022,0,165,165,100,1,,,5f516a44067fba1b4c562a55,64377665f683687ad21116e0,2023-04-12_21h32.07.304,PRaM,2021.2.3,Win32,59.78358343,61b8f3437b89212fae0dfade
8,3.226,space,1.5247,0,166,166,352,1,,,5f516a44067fba1b4c562a55,64377665f683687ad21116e0,2023-04-12_21h32.07.304,PRaM,2021.2.3,Win32,59.78358343,61b8f3437b89212fae0dfade
8,2.2558,space,0.551900001,0,167,167,175,1,,,5f516a44067fba1b4c562a55,64377665f683687ad21116e0,2023-04-12_21h32.07.304,PRaM,2021.2.3,Win32,59.78358343,61b8f3437b89212fae0dfade
3,2.4738,space,0.767799999,0,168,168,176,1,,,5f516a44067fba1b4c562a55,64377665f683687ad21116e0,2023-04-12_21h32.07.304,PRaM,2021.2.3,Win32,59.78358343,61b8f3437b89212fae0dfade
8,2.4384,space,0.6915,0,169,169,117,1,,,5f516a44067fba1b4c562a55,64377665f683687ad21116e0,2023-04-12_21h32.07.304,PRaM,2021.2.3,Win32,59.78358343,61b8f3437b89212fae0dfade
8,2.5227,space,0.9178,0,170,170,22,1,,,5f516a44067fba1b4c562a55,64377665f683687ad21116e0,2023-04-12_21h32.07.304,PRaM,2021.2.3,Win32,59.78358343,61b8f3437b89212fae0dfade
3,3.3752,space,1.691200001,0,171,171,169,1,,,5f516a44067fba1b4c562a55,64377665f683687ad21116e0,2023-04-12_21h32.07.304,PRaM,2021.2.3,Win32,59.78358343,61b8f3437b89212fae0dfade
6,4.8312,space,3.1476,0,172,172,177,1,,,5f516a44067fba1b4c562a55,64377665f683687ad21116e0,2023-04-12_21h32.07.304,PRaM,2021.2.3,Win32,59.78358343,61b8f3437b89212fae0dfade
7,2.807200001,space,1.0547,0,173,173,152,1,,,5f516a44067fba1b4c562a55,64377665f683687ad21116e0,2023-04-12_21h32.07.304,PRaM,2021.2.3,Win32,59.78358343,61b8f3437b89212fae0dfade
2,2.2888,space,0.517900001,0,174,174,258,1,,,5f516a44067fba1b4c562a55,64377665f683687ad21116e0,2023-04-12_21h32.07.304,PRaM,2021.2.3,Win32,59.78358343,61b8f3437b89212fae0dfade
6,2.754400001,space,1.021900001,0,175,175,183,1,,,5f516a44067fba1b4c562a55,64377665f683687ad21116e0,2023-04-12_21h32.07.304,PRaM,2021.2.3,Win32,59.78358343,61b8f3437b89212fae0dfade
8,2.6239,space,0.8975,0,176,176,66,1,,,5f516a44067fba1b4c562a55,64377665f683687ad21116e0,2023-04-12_21h32.07.304,PRaM,2021.2.3,Win32,59.78358343,61b8f3437b89212fae0dfade
8,2.7227,space,1.0052,0,177,177,90,1,,,5f516a44067fba1b4c562a55,64377665f683687ad21116e0,2023-04-12_21h32.07.304,PRaM,2021.2.3,Win32,59.78358343,61b8f3437b89212fae0dfade
2,4.2949,space,2.5943,0,178,178,36,1,,,5f516a44067fba1b4c562a55,64377665f683687ad21116e0,2023-04-12_21h32.07.304,PRaM,2021.2.3,Win32,59.78358343,61b8f3437b89212fae0dfade
2,2.1886,space,1.2402,0,179,179,9,1,,,5f516a44067fba1b4c562a55,64377665f683687ad21116e0,2023-04-12_21h32.07.304,PRaM,2021.2.3,Win32,59.78358343,61b8f3437b89212fae0dfade
9,4.178099999,space,2.5595,0,180,180,115,1,,,5f516a44067fba1b4c562a55,64377665f683687ad21116e0,2023-04-12_21h32.07.304,PRaM,2021.2.3,Win32,59.78358343,61b8f3437b89212fae0dfade
8,3.290099999,space,1.588900001,0,181,181,291,1,,,5f516a44067fba1b4c562a55,64377665f683687ad21116e0,2023-04-12_21h32.07.304,PRaM,2021.2.3,Win32,59.78358343,61b8f3437b89212fae0dfade
2,2.3419,space,0.6181,0,182,182,155,1,,,5f516a44067fba1b4c562a55,64377665f683687ad21116e0,2023-04-12_21h32.07.304,PRaM,2021.2.3,Win32,59.78358343,61b8f3437b89212fae0dfade
2,15.0028,space,17.8678,0,183,183,8,1,,,5f516a44067fba1b4c562a55,64377665f683687ad21116e0,2023-04-12_21h32.07.304,PRaM,2021.2.3,Win32,59.78358343,61b8f3437b89212fae0dfade
5,1.973,space,0.2525,0,184,184,376,1,,,5f516a44067fba1b4c562a55,64377665f683687ad21116e0,2023-04-12_21h32.07.304,PRaM,2021.2.3,Win32,59.78358343,61b8f3437b89212fae0dfade
5,1.3515,space,1.140599999,0,185,185,26,1,,,5f516a44067fba1b4c562a55,64377665f683687ad21116e0,2023-04-12_21h32.07.304,PRaM,2021.2.3,Win32,59.78358343,61b8f3437b89212fae0dfade
2,2.7395,space,1.055,0,186,186,316,1,,,5f516a44067fba1b4c562a55,64377665f683687ad21116e0,2023-04-12_21h32.07.304,PRaM,2021.2.3,Win32,59.78358343,61b8f3437b89212fae0dfade
8,6.8542,space,5.1379,0,187,187,99,1,,,5f516a44067fba1b4c562a55,64377665f683687ad21116e0,2023-04-12_21h32.07.304,PRaM,2021.2.3,Win32,59.78358343,61b8f3437b89212fae0dfade
5,1.652799999,space,0.7374,0,188,188,374,1,,,5f516a44067fba1b4c562a55,64377665f683687ad21116e0,2023-04-12_21h32.07.304,PRaM,2021.2.3,Win32,59.78358343,61b8f3437b89212fae0dfade
2,2.408,space,0.702,0,189,189,262,1,,,5f516a44067fba1b4c562a55,64377665f683687ad21116e0,2023-04-12_21h32.07.304,PRaM,2021.2.3,Win32,59.78358343,61b8f3437b89212fae0dfade
2,2.9064,space,1.1899,0,190,190,330,1,,,5f516a44067fba1b4c562a55,64377665f683687ad21116e0,2023-04-12_21h32.07.304,PRaM,2021.2.3,Win32,59.78358343,61b8f3437b89212fae0dfade
8,5.033099999,space,3.3478,0,191,191,269,1,,,5f516a44067fba1b4c562a55,64377665f683687ad21116e0,2023-04-12_21h32.07.304,PRaM,2021.2.3,Win32,59.78358343,61b8f3437b89212fae0dfade
8,2.590799999,space,2.296599999,0,192,192,335,1,,,5f516a44067fba1b4c562a55,64377665f683687ad21116e0,2023-04-12_21h32.07.304,PRaM,2021.2.3,Win32,59.78358343,61b8f3437b89212fae0dfade
2,2.221299999,space,0.5018,0,193,193,13,1,,,5f516a44067fba1b4c562a55,64377665f683687ad21116e0,2023-04-12_21h32.07.304,PRaM,2021.2.3,Win32,59.78358343,61b8f3437b89212fae0dfade
8,4.7965,space,3.080299999,0,194,194,351,1,,,5f516a44067fba1b4c562a55,64377665f683687ad21116e0,2023-04-12_21h32.07.304,PRaM,2021.2.3,Win32,59.78358343,61b8f3437b89212fae0dfade
1,2.1727,space,0.504,0,195,195,188,1,,,5f516a44067fba1b4c562a55,64377665f683687ad21116e0,2023-04-12_21h32.07.304,PRaM,2021.2.3,Win32,59.78358343,61b8f3437b89212fae0dfade
2,4.5462,space,2.8435,0,196,196,143,1,,,5f516a44067fba1b4c562a55,64377665f683687ad21116e0,2023-04-12_21h32.07.304,PRaM,2021.2.3,Win32,59.78358343,61b8f3437b89212fae0dfade
1,4.362700001,space,2.7609,0,197,197,41,1,,,5f516a44067fba1b4c562a55,64377665f683687ad21116e0,2023-04-12_21h32.07.304,PRaM,2021.2.3,Win32,59.78358343,61b8f3437b89212fae0dfade
3,18.5514,space,17.0099,0,198,198,153,1,,,5f516a44067fba1b4c562a55,64377665f683687ad21116e0,2023-04-12_21h32.07.304,PRaM,2021.2.3,Win32,59.78358343,61b8f3437b89212fae0dfade
1,2.8307,space,1.1192,0,199,199,339,1,,,5f516a44067fba1b4c562a55,64377665f683687ad21116e0,2023-04-12_21h32.07.304,PRaM,2021.2.3,Win32,59.78358343,61b8f3437b89212fae0dfade
6,2.6725,space,1.005099999,0,200,200,181,1,,,5f516a44067fba1b4c562a55,64377665f683687ad21116e0,2023-04-12_21h32.07.304,PRaM,2021.2.3,Win32,59.78358343,61b8f3437b89212fae0dfade
6,2.257299999,space,0.5541,0,201,201,340,1,,,5f516a44067fba1b4c562a55,64377665f683687ad21116e0,2023-04-12_21h32.07.304,PRaM,2021.2.3,Win32,59.78358343,61b8f3437b89212fae0dfade
3,3.558099999,space,1.8887,0,202,202,198,1,,,5f516a44067fba1b4c562a55,64377665f683687ad21116e0,2023-04-12_21h32.07.304,PRaM,2021.2.3,Win32,59.78358343,61b8f3437b89212fae0dfade
9,2.6413,space,0.9192,0,203,203,14,1,,,5f516a44067fba1b4c562a55,64377665f683687ad21116e0,2023-04-12_21h32.07.304,PRaM,2021.2.3,Win32,59.78358343,61b8f3437b89212fae0dfade
9,1.9388,space,0.253099999,0,204,204,207,1,,,5f516a44067fba1b4c562a55,64377665f683687ad21116e0,2023-04-12_21h32.07.304,PRaM,2021.2.3,Win32,59.78358343,61b8f3437b89212fae0dfade
2,2.4395,space,0.987599999,0,205,205,240,1,,,5f516a44067fba1b4c562a55,64377665f683687ad21116e0,2023-04-12_21h32.07.304,PRaM,2021.2.3,Win32,59.78358343,61b8f3437b89212fae0dfade
5,2.222,space,0.5212,0,206,206,224,1,,,5f516a44067fba1b4c562a55,64377665f683687ad21116e0,2023-04-12_21h32.07.304,PRaM,2021.2.3,Win32,59.78358343,61b8f3437b89212fae0dfade
8,7.9913,space,6.3953,0,207,207,252,1,,,5f516a44067fba1b4c562a55,64377665f683687ad21116e0,2023-04-12_21h32.07.304,PRaM,2021.2.3,Win32,59.78358343,61b8f3437b89212fae0dfade
8,2.303599999,space,0.5845,0,208,208,184,1,,,5f516a44067fba1b4c562a55,64377665f683687ad21116e0,2023-04-12_21h32.07.304,PRaM,2021.2.3,Win32,59.78358343,61b8f3437b89212fae0dfade
1,3.0085,space,1.3051,0,209,209,54,1,,,5f516a44067fba1b4c562a55,64377665f683687ad21116e0,2023-04-12_21h32.07.304,PRaM,2021.2.3,Win32,59.78358343,61b8f3437b89212fae0dfade
9,2.942400001,space,1.3063,0,210,210,197,1,,,5f516a44067fba1b4c562a55,64377665f683687ad21116e0,2023-04-12_21h32.07.304,PRaM,2021.2.3,Win32,59.78358343,61b8f3437b89212fae0dfade
3,2.3564,space,0.6875,0,211,211,161,1,,,5f516a44067fba1b4c562a55,64377665f683687ad21116e0,2023-04-12_21h32.07.304,PRaM,2021.2.3,Win32,59.78358343,61b8f3437b89212fae0dfade
4,3.1423,space,1.442900001,0,212,212,365,1,,,5f516a44067fba1b4c562a55,64377665f683687ad21116e0,2023-04-12_21h32.07.304,PRaM,2021.2.3,Win32,59.78358343,61b8f3437b89212fae0dfade
5,1.7019,space,0.0181,0,213,213,322,1,,,5f516a44067fba1b4c562a55,64377665f683687ad21116e0,2023-04-12_21h32.07.304,PRaM,2021.2.3,Win32,59.78358343,61b8f3437b89212fae0dfade
7,2.038299999,space,0.3034,0,214,214,139,1,,,5f516a44067fba1b4c562a55,64377665f683687ad21116e0,2023-04-12_21h32.07.304,PRaM,2021.2.3,Win32,59.78358343,61b8f3437b89212fae0dfade
2,4.0287,space,2.3437,0,215,215,185,1,,,5f516a44067fba1b4c562a55,64377665f683687ad21116e0,2023-04-12_21h32.07.304,PRaM,2021.2.3,Win32,59.78358343,61b8f3437b89212fae0dfade
2,2.941599999,space,1.271,0,216,216,295,1,,,5f516a44067fba1b4c562a55,64377665f683687ad21116e0,2023-04-12_21h32.07.304,PRaM,2021.2.3,Win32,59.78358343,61b8f3437b89212fae0dfade
6,5.700299999,space,4.0332,0,217,217,202,1,,,5f516a44067fba1b4c562a55,64377665f683687ad21116e0,2023-04-12_21h32.07.304,PRaM,2021.2.3,Win32,59.78358343,61b8f3437b89212fae0dfade
8,2.722200001,space,1.04,0,218,218,147,1,,,5f516a44067fba1b4c562a55,64377665f683687ad21116e0,2023-04-12_21h32.07.304,PRaM,2021.2.3,Win32,59.78358343,61b8f3437b89212fae0dfade
2,2.656599999,space,0.9675,0,219,219,227,1,,,5f516a44067fba1b4c562a55,64377665f683687ad21116e0,2023-04-12_21h32.07.304,PRaM,2021.2.3,Win32,59.78358343,61b8f3437b89212fae0dfade
8,2.0229,space,0.319299999,0,220,220,242,1,,,5f516a44067fba1b4c562a55,64377665f683687ad21116e0,2023-04-12_21h32.07.304,PRaM,2021.2.3,Win32,59.78358343,61b8f3437b89212fae0dfade
7,2.0727,space,0.3692,0,221,221,76,1,,,5f516a44067fba1b4c562a55,64377665f683687ad21116e0,2023-04-12_21h32.07.304,PRaM,2021.2.3,Win32,59.78358343,61b8f3437b89212fae0dfade
3,3.878900001,space,2.260400001,0,222,222,44,1,,,5f516a44067fba1b4c562a55,64377665f683687ad21116e0,2023-04-12_21h32.07.304,PRaM,2021.2.3,Win32,59.78358343,61b8f3437b89212fae0dfade
7,3.7581,space,2.0935,0,223,223,278,1,,,5f516a44067fba1b4c562a55,64377665f683687ad21116e0,2023-04-12_21h32.07.304,PRaM,2021.2.3,Win32,59.78358343,61b8f3437b89212fae0dfade
5,1.608,space,0.038,0,224,224,367,1,,,5f516a44067fba1b4c562a55,64377665f683687ad21116e0,2023-04-12_21h32.07.304,PRaM,2021.2.3,Win32,59.78358343,61b8f3437b89212fae0dfade
7,2.041700001,space,0.347200001,0,225,225,46,1,,,5f516a44067fba1b4c562a55,64377665f683687ad21116e0,2023-04-12_21h32.07.304,PRaM,2021.2.3,Win32,59.78358343,61b8f3437b89212fae0dfade
8,2.4052,space,0.7539,0,226,226,239,1,,,5f516a44067fba1b4c562a55,64377665f683687ad21116e0,2023-04-12_21h32.07.304,PRaM,2021.2.3,Win32,59.78358343,61b8f3437b89212fae0dfade
7,2.173,space,0.4355,0,227,227,179,1,,,5f516a44067fba1b4c562a55,64377665f683687ad21116e0,2023-04-12_21h32.07.304,PRaM,2021.2.3,Win32,59.78358343,61b8f3437b89212fae0dfade
6,3.1769,space,1.4734,0,228,228,287,1,,,5f516a44067fba1b4c562a55,64377665f683687ad21116e0,2023-04-12_21h32.07.304,PRaM,2021.2.3,Win32,59.78358343,61b8f3437b89212fae0dfade
8,1.7528,space,0.0513,0,229,229,328,1,,,5f516a44067fba1b4c562a55,64377665f683687ad21116e0,2023-04-12_21h32.07.304,PRaM,2021.2.3,Win32,59.78358343,61b8f3437b89212fae0dfade
1,3.609,space,1.940299999,0,230,230,24,1,,,5f516a44067fba1b4c562a55,64377665f683687ad21116e0,2023-04-12_21h32.07.304,PRaM,2021.2.3,Win32,59.78358343,61b8f3437b89212fae0dfade
8,1.8708,space,0.1687,0,231,231,118,1,,,5f516a44067fba1b4c562a55,64377665f683687ad21116e0,2023-04-12_21h32.07.304,PRaM,2021.2.3,Win32,59.78358343,61b8f3437b89212fae0dfade
9,3.0742,space,1.3876,0,232,232,277,1,,,5f516a44067fba1b4c562a55,64377665f683687ad21116e0,2023-04-12_21h32.07.304,PRaM,2021.2.3,Win32,59.78358343,61b8f3437b89212fae0dfade
1,2.089,space,0.402700001,0,233,233,308,1,,,5f516a44067fba1b4c562a55,64377665f683687ad21116e0,2023-04-12_21h32.07.304,PRaM,2021.2.3,Win32,59.78358343,61b8f3437b89212fae0dfade
1,3.1742,space,1.507,0,234,234,313,1,,,5f516a44067fba1b4c562a55,64377665f683687ad21116e0,2023-04-12_21h32.07.304,PRaM,2021.2.3,Win32,59.78358343,61b8f3437b89212fae0dfade
9,3.008799999,space,1.372799999,0,235,235,112,1,,,5f516a44067fba1b4c562a55,64377665f683687ad21116e0,2023-04-12_21h32.07.304,PRaM,2021.2.3,Win32,59.78358343,61b8f3437b89212fae0dfade
2,2.5067,space,0.7852,0,236,236,11,1,,,5f516a44067fba1b4c562a55,64377665f683687ad21116e0,2023-04-12_21h32.07.304,PRaM,2021.2.3,Win32,59.78358343,61b8f3437b89212fae0dfade
2,1.7377,space,0.1532,0,237,237,303,1,,,5f516a44067fba1b4c562a55,64377665f683687ad21116e0,2023-04-12_21h32.07.304,PRaM,2021.2.3,Win32,59.78358343,61b8f3437b89212fae0dfade
2,4.2101,space,2.5278,0,238,238,157,1,,,5f516a44067fba1b4c562a55,64377665f683687ad21116e0,2023-04-12_21h32.07.304,PRaM,2021.2.3,Win32,59.78358343,61b8f3437b89212fae0dfade
1,1.9358,space,0.233400001,0,239,239,71,1,,,5f516a44067fba1b4c562a55,64377665f683687ad21116e0,2023-04-12_21h32.07.304,PRaM,2021.2.3,Win32,59.78358343,61b8f3437b89212fae0dfade
2,1.8559,space,0.151,0,240,240,191,1,,,5f516a44067fba1b4c562a55,64377665f683687ad21116e0,2023-04-12_21h32.07.304,PRaM,2021.2.3,Win32,59.78358343,61b8f3437b89212fae0dfade
2,2.139,space,0.420299999,0,241,241,49,1,,,5f516a44067fba1b4c562a55,64377665f683687ad21116e0,2023-04-12_21h32.07.304,PRaM,2021.2.3,Win32,59.78358343,61b8f3437b89212fae0dfade
7,3.0259,space,1.3229,0,242,242,119,1,,,5f516a44067fba1b4c562a55,64377665f683687ad21116e0,2023-04-12_21h32.07.304,PRaM,2021.2.3,Win32,59.78358343,61b8f3437b89212fae0dfade
6,3.5453,space,1.8685,0,243,243,182,1,,,5f516a44067fba1b4c562a55,64377665f683687ad21116e0,2023-04-12_21h32.07.304,PRaM,2021.2.3,Win32,59.78358343,61b8f3437b89212fae0dfade
4,2.7137,space,0.9871,0,244,244,163,1,,,5f516a44067fba1b4c562a55,64377665f683687ad21116e0,2023-04-12_21h32.07.304,PRaM,2021.2.3,Win32,59.78358343,61b8f3437b89212fae0dfade
6,1.854799999,space,0.1363,0,245,245,280,1,,,5f516a44067fba1b4c562a55,64377665f683687ad21116e0,2023-04-12_21h32.07.304,PRaM,2021.2.3,Win32,59.78358343,61b8f3437b89212fae0dfade
2,2.4518,space,0.735,0,246,246,360,1,,,5f516a44067fba1b4c562a55,64377665f683687ad21116e0,2023-04-12_21h32.07.304,PRaM,2021.2.3,Win32,59.78358343,61b8f3437b89212fae0dfade
1,2.7061,space,1.0047,0,247,247,82,1,,,5f516a44067fba1b4c562a55,64377665f683687ad21116e0,2023-04-12_21h32.07.304,PRaM,2021.2.3,Win32,59.78358343,61b8f3437b89212fae0dfade
2,2.9935,space,1.2726,0,248,248,353,1,,,5f516a44067fba1b4c562a55,64377665f683687ad21116e0,2023-04-12_21h32.07.304,PRaM,2021.2.3,Win32,59.78358343,61b8f3437b89212fae0dfade
1,2.339400001,space,0.6372,0,249,249,135,1,,,5f516a44067fba1b4c562a55,64377665f683687ad21116e0,2023-04-12_21h32.07.304,PRaM,2021.2.3,Win32,59.78358343,61b8f3437b89212fae0dfade
2,1.9722,space,0.253099999,0,250,250,68,1,,,5f516a44067fba1b4c562a55,64377665f683687ad21116e0,2023-04-12_21h32.07.304,PRaM,2021.2.3,Win32,59.78358343,61b8f3437b89212fae0dfade
1,6.925,space,5.2062,0,251,251,189,1,,,5f516a44067fba1b4c562a55,64377665f683687ad21116e0,2023-04-12_21h32.07.304,PRaM,2021.2.3,Win32,59.78358343,61b8f3437b89212fae0dfade
2,2.372,space,0.651,0,252,252,300,1,,,5f516a44067fba1b4c562a55,64377665f683687ad21116e0,2023-04-12_21h32.07.304,PRaM,2021.2.3,Win32,59.78358343,61b8f3437b89212fae0dfade
2,4.428,space,2.742099999,0,253,253,180,1,,,5f516a44067fba1b4c562a55,64377665f683687ad21116e0,2023-04-12_21h32.07.304,PRaM,2021.2.3,Win32,59.78358343,61b8f3437b89212fae0dfade
5,1.5035,space,0.5887,0,254,254,356,1,,,5f516a44067fba1b4c562a55,64377665f683687ad21116e0,2023-04-12_21h32.07.304,PRaM,2021.2.3,Win32,59.78358343,61b8f3437b89212fae0dfade
2,1.8539,space,0.2177,0,255,255,204,1,,,5f516a44067fba1b4c562a55,64377665f683687ad21116e0,2023-04-12_21h32.07.304,PRaM,2021.2.3,Win32,59.78358343,61b8f3437b89212fae0dfade
2,2.9419,space,1.2735,0,256,256,63,1,,,5f516a44067fba1b4c562a55,64377665f683687ad21116e0,2023-04-12_21h32.07.304,PRaM,2021.2.3,Win32,59.78358343,61b8f3437b89212fae0dfade
2,1.804,space,1.1557,0,257,257,132,1,,,5f516a44067fba1b4c562a55,64377665f683687ad21116e0,2023-04-12_21h32.07.304,PRaM,2021.2.3,Win32,59.78358343,61b8f3437b89212fae0dfade
7,3.190900001,space,1.6371,0,258,258,88,1,,,5f516a44067fba1b4c562a55,64377665f683687ad21116e0,2023-04-12_21h32.07.304,PRaM,2021.2.3,Win32,59.78358343,61b8f3437b89212fae0dfade
6,15.9395,space,14.2902,0,259,259,186,1,,,5f516a44067fba1b4c562a55,64377665f683687ad21116e0,2023-04-12_21h32.07.304,PRaM,2021.2.3,Win32,59.78358343,61b8f3437b89212fae0dfade
7,2.287799999,space,0.598,0,260,260,304,1,,,5f516a44067fba1b4c562a55,64377665f683687ad21116e0,2023-04-12_21h32.07.304,PRaM,2021.2.3,Win32,59.78358343,61b8f3437b89212fae0dfade
9,1.9973,space,0.2848,0,261,261,137,1,,,5f516a44067fba1b4c562a55,64377665f683687ad21116e0,2023-04-12_21h32.07.304,PRaM,2021.2.3,Win32,59.78358343,61b8f3437b89212fae0dfade
4,6.989,space,5.320700001,0,262,262,375,1,,,5f516a44067fba1b4c562a55,64377665f683687ad21116e0,2023-04-12_21h32.07.304,PRaM,2021.2.3,Win32,59.78358343,61b8f3437b89212fae0dfade
4,3.959099999,space,2.3757,0,263,263,342,1,,,5f516a44067fba1b4c562a55,64377665f683687ad21116e0,2023-04-12_21h32.07.304,PRaM,2021.2.3,Win32,59.78358343,61b8f3437b89212fae0dfade
2,2.2563,space,0.5531,0,264,264,220,1,,,5f516a44067fba1b4c562a55,64377665f683687ad21116e0,2023-04-12_21h32.07.304,PRaM,2021.2.3,Win32,59.78358343,61b8f3437b89212fae0dfade
6,4.729900001,space,3.0305,0,265,265,236,1,,,5f516a44067fba1b4c562a55,64377665f683687ad21116e0,2023-04-12_21h32.07.304,PRaM,2021.2.3,Win32,59.78358343,61b8f3437b89212fae0dfade
7,2.2052,space,0.467900001,0,266,266,364,1,,,5f516a44067fba1b4c562a55,64377665f683687ad21116e0,2023-04-12_21h32.07.304,PRaM,2021.2.3,Win32,59.78358343,61b8f3437b89212fae0dfade
2,2.774700001,space,1.0588,0,267,267,170,1,,,5f516a44067fba1b4c562a55,64377665f683687ad21116e0,2023-04-12_21h32.07.304,PRaM,2021.2.3,Win32,59.78358343,61b8f3437b89212fae0dfade
1,2.1542,space,0.437099999,0,268,268,232,1,,,5f516a44067fba1b4c562a55,64377665f683687ad21116e0,2023-04-12_21h32.07.304,PRaM,2021.2.3,Win32,59.78358343,61b8f3437b89212fae0dfade
1,1.5534,space,0.5024,0,269,269,283,1,,,5f516a44067fba1b4c562a55,64377665f683687ad21116e0,2023-04-12_21h32.07.304,PRaM,2021.2.3,Win32,59.78358343,61b8f3437b89212fae0dfade
2,2.1231,space,0.4205,0,270,270,231,1,,,5f516a44067fba1b4c562a55,64377665f683687ad21116e0,2023-04-12_21h32.07.304,PRaM,2021.2.3,Win32,59.78358343,61b8f3437b89212fae0dfade
6,2.0747,space,0.7184,0,271,271,334,1,,,5f516a44067fba1b4c562a55,64377665f683687ad21116e0,2023-04-12_21h32.07.304,PRaM,2021.2.3,Win32,59.78358343,61b8f3437b89212fae0dfade
1,4.7129,space,3.093,0,272,272,27,1,,,5f516a44067fba1b4c562a55,64377665f683687ad21116e0,2023-04-12_21h32.07.304,PRaM,2021.2.3,Win32,59.78358343,61b8f3437b89212fae0dfade
2,2.391,space,0.7138,0,273,273,39,1,,,5f516a44067fba1b4c562a55,64377665f683687ad21116e0,2023-04-12_21h32.07.304,PRaM,2021.2.3,Win32,59.78358343,61b8f3437b89212fae0dfade
5,1.8539,space,0.1523,0,274,274,311,1,,,5f516a44067fba1b4c562a55,64377665f683687ad21116e0,2023-04-12_21h32.07.304,PRaM,2021.2.3,Win32,59.78358343,61b8f3437b89212fae0dfade
5,1.8032,space,0.103,0,275,275,377,1,,,5f516a44067fba1b4c562a55,64377665f683687ad21116e0,2023-04-12_21h32.07.304,PRaM,2021.2.3,Win32,59.78358343,61b8f3437b89212fae0dfade
6,2.942,space,1.2225,0,276,276,165,1,,,5f516a44067fba1b4c562a55,64377665f683687ad21116e0,2023-04-12_21h32.07.304,PRaM,2021.2.3,Win32,59.78358343,61b8f3437b89212fae0dfade
8,4.377900001,space,2.6959,0,277,277,285,1,,,5f516a44067fba1b4c562a55,64377665f683687ad21116e0,2023-04-12_21h32.07.304,PRaM,2021.2.3,Win32,59.78358343,61b8f3437b89212fae0dfade
8,1.8544,space,0.1714,0,278,278,154,1,,,5f516a44067fba1b4c562a55,64377665f683687ad21116e0,2023-04-12_21h32.07.304,PRaM,2021.2.3,Win32,59.78358343,61b8f3437b89212fae0dfade
5,2.0707,space,0.3693,0,279,279,332,1,,,5f516a44067fba1b4c562a55,64377665f683687ad21116e0,2023-04-12_21h32.07.304,PRaM,2021.2.3,Win32,59.78358343,61b8f3437b89212fae0dfade
5,1.1839,space,0.1855,0,280,280,257,1,,,5f516a44067fba1b4c562a55,64377665f683687ad21116e0,2023-04-12_21h32.07.304,PRaM,2021.2.3,Win32,59.78358343,61b8f3437b89212fae0dfade
1,3.9766,space,2.3467,0,281,281,65,1,,,5f516a44067fba1b4c562a55,64377665f683687ad21116e0,2023-04-12_21h32.07.304,PRaM,2021.2.3,Win32,59.78358343,61b8f3437b89212fae0dfade
2,4.2767,space,2.6115,0,282,282,171,1,,,5f516a44067fba1b4c562a55,64377665f683687ad21116e0,2023-04-12_21h32.07.304,PRaM,2021.2.3,Win32,59.78358343,61b8f3437b89212fae0dfade
7,2.6548,space,0.969400001,0,283,283,233,1,,,5f516a44067fba1b4c562a55,64377665f683687ad21116e0,2023-04-12_21h32.07.304,PRaM,2021.2.3,Win32,59.78358343,61b8f3437b89212fae0dfade
9,3.3448,space,1.7095,0,284,284,372,1,,,5f516a44067fba1b4c562a55,64377665f683687ad21116e0,2023-04-12_21h32.07.304,PRaM,2021.2.3,Win32,59.78358343,61b8f3437b89212fae0dfade
8,1.8863,space,0.219,0,285,285,102,1,,,5f516a44067fba1b4c562a55,64377665f683687ad21116e0,2023-04-12_21h32.07.304,PRaM,2021.2.3,Win32,59.78358343,61b8f3437b89212fae0dfade
5,1.9217,space,0.2205,0,286,286,349,1,,,5f516a44067fba1b4c562a55,64377665f683687ad21116e0,2023-04-12_21h32.07.304,PRaM,2021.2.3,Win32,59.78358343,61b8f3437b89212fae0dfade
1,3.4432,space,1.8217,0,287,287,67,1,,,5f516a44067fba1b4c562a55,64377665f683687ad21116e0,2023-04-12_21h32.07.304,PRaM,2021.2.3,Win32,59.78358343,61b8f3437b89212fae0dfade
6,2.2727,space,0.5475,0,288,288,150,1,,,5f516a44067fba1b4c562a55,64377665f683687ad21116e0,2023-04-12_21h32.07.304,PRaM,2021.2.3,Win32,59.78358343,61b8f3437b89212fae0dfade
7,9.933,space,8.2153,0,289,289,149,1,,,5f516a44067fba1b4c562a55,64377665f683687ad21116e0,2023-04-12_21h32.07.304,PRaM,2021.2.3,Win32,59.78358343,61b8f3437b89212fae0dfade
4,2.2555,space,0.5324,0,290,290,18,1,,,5f516a44067fba1b4c562a55,64377665f683687ad21116e0,2023-04-12_21h32.07.304,PRaM,2021.2.3,Win32,59.78358343,61b8f3437b89212fae0dfade
2,2.740200001,space,1.0066,0,291,291,131,1,,,5f516a44067fba1b4c562a55,64377665f683687ad21116e0,2023-04-12_21h32.07.304,PRaM,2021.2.3,Win32,59.78358343,61b8f3437b89212fae0dfade
,,space,0.2092,0,292,292,205,1,,,5f516a44067fba1b4c562a55,64377665f683687ad21116e0,2023-04-12_21h32.07.304,PRaM,2021.2.3,Win32,59.78358343,61b8f3437b89212fae0dfade
4,1.4214,space,0.519900001,0,293,293,350,1,,,5f516a44067fba1b4c562a55,64377665f683687ad21116e0,2023-04-12_21h32.07.304,PRaM,2021.2.3,Win32,59.78358343,61b8f3437b89212fae0dfade
2,6.9213,space,5.455,0,294,294,359,1,,,5f516a44067fba1b4c562a55,64377665f683687ad21116e0,2023-04-12_21h32.07.304,PRaM,2021.2.3,Win32,59.78358343,61b8f3437b89212fae0dfade
3,4.3305,space,2.6801,0,295,295,212,1,,,5f516a44067fba1b4c562a55,64377665f683687ad21116e0,2023-04-12_21h32.07.304,PRaM,2021.2.3,Win32,59.78358343,61b8f3437b89212fae0dfade
7,3.1413,space,1.5048,0,296,296,341,1,,,5f516a44067fba1b4c562a55,64377665f683687ad21116e0,2023-04-12_21h32.07.304,PRaM,2021.2.3,Win32,59.78358343,61b8f3437b89212fae0dfade
6,4.412,space,2.694900001,0,297,297,314,1,,,5f516a44067fba1b4c562a55,64377665f683687ad21116e0,2023-04-12_21h32.07.304,PRaM,2021.2.3,Win32,59.78358343,61b8f3437b89212fae0dfade
1,3.959599999,space,2.3245,0,298,298,130,1,,,5f516a44067fba1b4c562a55,64377665f683687ad21116e0,2023-04-12_21h32.07.304,PRaM,2021.2.3,Win32,59.78358343,61b8f3437b89212fae0dfade
2,2.3406,space,0.674299999,0,299,299,73,1,,,5f516a44067fba1b4c562a55,64377665f683687ad21116e0,2023-04-12_21h32.07.304,PRaM,2021.2.3,Win32,59.78358343,61b8f3437b89212fae0dfade
8,6.2274,space,4.5369,0,300,300,279,1,,,5f516a44067fba1b4c562a55,64377665f683687ad21116e0,2023-04-12_21h32.07.304,PRaM,2021.2.3,Win32,59.78358343,61b8f3437b89212fae0dfade
2,2.039200001,space,0.301400001,0,301,301,168,1,,,5f516a44067fba1b4c562a55,64377665f683687ad21116e0,2023-04-12_21h32.07.304,PRaM,2021.2.3,Win32,59.78358343,61b8f3437b89212fae0dfade
8,5.633,space,3.9332,0,302,302,140,1,,,5f516a44067fba1b4c562a55,64377665f683687ad21116e0,2023-04-12_21h32.07.304,PRaM,2021.2.3,Win32,59.78358343,61b8f3437b89212fae0dfade
4,2.6073,space,0.8882,0,303,303,361,1,,,5f516a44067fba1b4c562a55,64377665f683687ad21116e0,2023-04-12_21h32.07.304,PRaM,2021.2.3,Win32,59.78358343,61b8f3437b89212fae0dfade
2,5.4153,space,3.8154,0,304,304,159,1,,,5f516a44067fba1b4c562a55,64377665f683687ad21116e0,2023-04-12_21h32.07.304,PRaM,2021.2.3,Win32,59.78358343,61b8f3437b89212fae0dfade
8,2.5406,space,0.8877,0,305,305,64,1,,,5f516a44067fba1b4c562a55,64377665f683687ad21116e0,2023-04-12_21h32.07.304,PRaM,2021.2.3,Win32,59.78358343,61b8f3437b89212fae0dfade
2,2.6223,space,0.919799999,0,306,306,284,1,,,5f516a44067fba1b4c562a55,64377665f683687ad21116e0,2023-04-12_21h32.07.304,PRaM,2021.2.3,Win32,59.78358343,61b8f3437b89212fae0dfade
2,2.0387,space,0.3197,0,307,307,265,1,,,5f516a44067fba1b4c562a55,64377665f683687ad21116e0,2023-04-12_21h32.07.304,PRaM,2021.2.3,Win32,59.78358343,61b8f3437b89212fae0dfade
1,3.074299999,space,1.4201,0,308,308,34,1,,,5f516a44067fba1b4c562a55,64377665f683687ad21116e0,2023-04-12_21h32.07.304,PRaM,2021.2.3,Win32,59.78358343,61b8f3437b89212fae0dfade
1,1.7041,space,1.4903,0,309,309,260,1,,,5f516a44067fba1b4c562a55,64377665f683687ad21116e0,2023-04-12_21h32.07.304,PRaM,2021.2.3,Win32,59.78358343,61b8f3437b89212fae0dfade
2,2.7742,space,1.0877,0,310,310,2,1,,,5f516a44067fba1b4c562a55,64377665f683687ad21116e0,2023-04-12_21h32.07.304,PRaM,2021.2.3,Win32,59.78358343,61b8f3437b89212fae0dfade
8,2.9398,space,1.6209,0,311,311,164,1,,,5f516a44067fba1b4c562a55,64377665f683687ad21116e0,2023-04-12_21h32.07.304,PRaM,2021.2.3,Win32,59.78358343,61b8f3437b89212fae0dfade
1,2.673099999,space,0.9562,0,312,312,369,1,,,5f516a44067fba1b4c562a55,64377665f683687ad21116e0,2023-04-12_21h32.07.304,PRaM,2021.2.3,Win32,59.78358343,61b8f3437b89212fae0dfade
2,2.2045,space,0.4924,0,313,313,309,1,,,5f516a44067fba1b4c562a55,64377665f683687ad21116e0,2023-04-12_21h32.07.304,PRaM,2021.2.3,Win32,59.78358343,61b8f3437b89212fae0dfade
8,2.1869,space,0.4855,0,314,314,209,1,,,5f516a44067fba1b4c562a55,64377665f683687ad21116e0,2023-04-12_21h32.07.304,PRaM,2021.2.3,Win32,59.78358343,61b8f3437b89212fae0dfade
9,2.5401,space,0.855,0,315,315,83,1,,,5f516a44067fba1b4c562a55,64377665f683687ad21116e0,2023-04-12_21h32.07.304,PRaM,2021.2.3,Win32,59.78358343,61b8f3437b89212fae0dfade
4,2.289,space,0.622,0,316,316,174,1,,,5f516a44067fba1b4c562a55,64377665f683687ad21116e0,2023-04-12_21h32.07.304,PRaM,2021.2.3,Win32,59.78358343,61b8f3437b89212fae0dfade
2,2.0718,space,0.319799999,0,317,317,138,1,,,5f516a44067fba1b4c562a55,64377665f683687ad21116e0,2023-04-12_21h32.07.304,PRaM,2021.2.3,Win32,59.78358343,61b8f3437b89212fae0dfade
2,1.8995,space,0.1354,0,318,318,91,1,,,5f516a44067fba1b4c562a55,64377665f683687ad21116e0,2023-04-12_21h32.07.304,PRaM,2021.2.3,Win32,59.78358343,61b8f3437b89212fae0dfade
7,2.590099999,space,0.855099999,0,319,319,358,1,,,5f516a44067fba1b4c562a55,64377665f683687ad21116e0,2023-04-12_21h32.07.304,PRaM,2021.2.3,Win32,59.78358343,61b8f3437b89212fae0dfade
9,2.3064,space,0.605599999,0,320,320,53,1,,,5f516a44067fba1b4c562a55,64377665f683687ad21116e0,2023-04-12_21h32.07.304,PRaM,2021.2.3,Win32,59.78358343,61b8f3437b89212fae0dfade
8,1.803,space,0.0855,0,321,321,85,1,,,5f516a44067fba1b4c562a55,64377665f683687ad21116e0,2023-04-12_21h32.07.304,PRaM,2021.2.3,Win32,59.78358343,61b8f3437b89212fae0dfade
7,3.1262,space,1.4228,0,322,322,271,1,,,5f516a44067fba1b4c562a55,64377665f683687ad21116e0,2023-04-12_21h32.07.304,PRaM,2021.2.3,Win32,59.78358343,61b8f3437b89212fae0dfade
8,1.9685,space,0.268900001,0,323,323,208,1,,,5f516a44067fba1b4c562a55,64377665f683687ad21116e0,2023-04-12_21h32.07.304,PRaM,2021.2.3,Win32,59.78358343,61b8f3437b89212fae0dfade
8,2.6396,space,0.9217,0,324,324,16,1,,,5f516a44067fba1b4c562a55,64377665f683687ad21116e0,2023-04-12_21h32.07.304,PRaM,2021.2.3,Win32,59.78358343,61b8f3437b89212fae0dfade
2,3.191099999,space,1.5085,0,325,325,266,1,,,5f516a44067fba1b4c562a55,64377665f683687ad21116e0,2023-04-12_21h32.07.304,PRaM,2021.2.3,Win32,59.78358343,61b8f3437b89212fae0dfade
2,3.908099999,space,2.1939,0,326,326,215,1,,,5f516a44067fba1b4c562a55,64377665f683687ad21116e0,2023-04-12_21h32.07.304,PRaM,2021.2.3,Win32,59.78358343,61b8f3437b89212fae0dfade
1,2.6572,space,0.9492,0,327,327,144,1,,,5f516a44067fba1b4c562a55,64377665f683687ad21116e0,2023-04-12_21h32.07.304,PRaM,2021.2.3,Win32,59.78358343,61b8f3437b89212fae0dfade
8,2.1711,space,0.432,0,328,328,336,1,,,5f516a44067fba1b4c562a55,64377665f683687ad21116e0,2023-04-12_21h32.07.304,PRaM,2021.2.3,Win32,59.78358343,61b8f3437b89212fae0dfade
2,2.2557,space,0.5537,0,329,329,234,1,,,5f516a44067fba1b4c562a55,64377665f683687ad21116e0,2023-04-12_21h32.07.304,PRaM,2021.2.3,Win32,59.78358343,61b8f3437b89212fae0dfade
2,2.004400001,space,0.4021,0,330,330,94,1,,,5f516a44067fba1b4c562a55,64377665f683687ad21116e0,2023-04-12_21h32.07.304,PRaM,2021.2.3,Win32,59.78358343,61b8f3437b89212fae0dfade
8,2.4393,space,0.720700001,0,331,331,4,1,,,5f516a44067fba1b4c562a55,64377665f683687ad21116e0,2023-04-12_21h32.07.304,PRaM,2021.2.3,Win32,59.78358343,61b8f3437b89212fae0dfade
2,2.356099999,space,0.634,0,332,332,116,1,,,5f516a44067fba1b4c562a55,64377665f683687ad21116e0,2023-04-12_21h32.07.304,PRaM,2021.2.3,Win32,59.78358343,61b8f3437b89212fae0dfade
8,3.2905,space,1.574,0,333,333,346,1,,,5f516a44067fba1b4c562a55,64377665f683687ad21116e0,2023-04-12_21h32.07.304,PRaM,2021.2.3,Win32,59.78358343,61b8f3437b89212fae0dfade
2,2.3018,space,0.5685,0,334,334,108,1,,,5f516a44067fba1b4c562a55,64377665f683687ad21116e0,2023-04-12_21h32.07.304,PRaM,2021.2.3,Win32,59.78358343,61b8f3437b89212fae0dfade
6,2.0055,space,0.308,0,335,335,178,1,,,5f516a44067fba1b4c562a55,64377665f683687ad21116e0,2023-04-12_21h32.07.304,PRaM,2021.2.3,Win32,59.78358343,61b8f3437b89212fae0dfade
8,2.6857,space,0.931400001,0,336,336,261,1,,,5f516a44067fba1b4c562a55,64377665f683687ad21116e0,2023-04-12_21h32.07.304,PRaM,2021.2.3,Win32,59.78358343,61b8f3437b89212fae0dfade
2,3.645,space,1.9467,0,337,337,125,1,,,5f516a44067fba1b4c562a55,64377665f683687ad21116e0,2023-04-12_21h32.07.304,PRaM,2021.2.3,Win32,59.78358343,61b8f3437b89212fae0dfade
2,2.019099999,space,0.2863,0,338,338,324,1,,,5f516a44067fba1b4c562a55,64377665f683687ad21116e0,2023-04-12_21h32.07.304,PRaM,2021.2.3,Win32,59.78358343,61b8f3437b89212fae0dfade
7,3.0011,space,1.3064,0,339,339,200,1,,,5f516a44067fba1b4c562a55,64377665f683687ad21116e0,2023-04-12_21h32.07.304,PRaM,2021.2.3,Win32,59.78358343,61b8f3437b89212fae0dfade
8,2.7235,space,0.9553,0,340,340,104,1,,,5f516a44067fba1b4c562a55,64377665f683687ad21116e0,2023-04-12_21h32.07.304,PRaM,2021.2.3,Win32,59.78358343,61b8f3437b89212fae0dfade
6,2.7417,space,1.0364,0,341,341,5,1,,,5f516a44067fba1b4c562a55,64377665f683687ad21116e0,2023-04-12_21h32.07.304,PRaM,2021.2.3,Win32,59.78358343,61b8f3437b89212fae0dfade
8,1.6542,space,0.469700001,0,342,342,276,1,,,5f516a44067fba1b4c562a55,64377665f683687ad21116e0,2023-04-12_21h32.07.304,PRaM,2021.2.3,Win32,59.78358343,61b8f3437b89212fae0dfade
1,2.1062,space,0.3848,0,343,343,289,1,,,5f516a44067fba1b4c562a55,64377665f683687ad21116e0,2023-04-12_21h32.07.304,PRaM,2021.2.3,Win32,59.78358343,61b8f3437b89212fae0dfade
2,2.2065,space,0.4907,0,344,344,354,1,,,5f516a44067fba1b4c562a55,64377665f683687ad21116e0,2023-04-12_21h32.07.304,PRaM,2021.2.3,Win32,59.78358343,61b8f3437b89212fae0dfade
8,2.490900001,space,0.765799999,0,345,345,274,1,,,5f516a44067fba1b4c562a55,64377665f683687ad21116e0,2023-04-12_21h32.07.304,PRaM,2021.2.3,Win32,59.78358343,61b8f3437b89212fae0dfade
2,3.5421,space,2.678099999,0,346,346,48,1,,,5f516a44067fba1b4c562a55,64377665f683687ad21116e0,2023-04-12_21h32.07.304,PRaM,2021.2.3,Win32,59.78358343,61b8f3437b89212fae0dfade
2,4.3467,space,2.7273,0,347,347,246,1,,,5f516a44067fba1b4c562a55,64377665f683687ad21116e0,2023-04-12_21h32.07.304,PRaM,2021.2.3,Win32,59.78358343,61b8f3437b89212fae0dfade
8,3.6547,space,2.0505,0,348,348,288,1,,,5f516a44067fba1b4c562a55,64377665f683687ad21116e0,2023-04-12_21h32.07.304,PRaM,2021.2.3,Win32,59.78358343,61b8f3437b89212fae0dfade
7,2.4003,space,1.223400001,0,349,349,201,1,,,5f516a44067fba1b4c562a55,64377665f683687ad21116e0,2023-04-12_21h32.07.304,PRaM,2021.2.3,Win32,59.78358343,61b8f3437b89212fae0dfade
9,2.5739,space,0.9222,0,350,350,264,1,,,5f516a44067fba1b4c562a55,64377665f683687ad21116e0,2023-04-12_21h32.07.304,PRaM,2021.2.3,Win32,59.78358343,61b8f3437b89212fae0dfade
2,2.772,space,1.0696,0,351,351,105,1,,,5f516a44067fba1b4c562a55,64377665f683687ad21116e0,2023-04-12_21h32.07.304,PRaM,2021.2.3,Win32,59.78358343,61b8f3437b89212fae0dfade
2,4.044299999,space,3.2471,0,352,352,315,1,,,5f516a44067fba1b4c562a55,64377665f683687ad21116e0,2023-04-12_21h32.07.304,PRaM,2021.2.3,Win32,59.78358343,61b8f3437b89212fae0dfade
2,1.6538,space,0.068700001,0,353,353,160,1,,,5f516a44067fba1b4c562a55,64377665f683687ad21116e0,2023-04-12_21h32.07.304,PRaM,2021.2.3,Win32,59.78358343,61b8f3437b89212fae0dfade
1,2.1329,space,0.4091,0,354,354,210,1,,,5f516a44067fba1b4c562a55,64377665f683687ad21116e0,2023-04-12_21h32.07.304,PRaM,2021.2.3,Win32,59.78358343,61b8f3437b89212fae0dfade
2,2.941400001,space,3.3975,0,355,355,167,1,,,5f516a44067fba1b4c562a55,64377665f683687ad21116e0,2023-04-12_21h32.07.304,PRaM,2021.2.3,Win32,59.78358343,61b8f3437b89212fae0dfade
8,2.4557,space,0.7445,0,356,356,363,1,,,5f516a44067fba1b4c562a55,64377665f683687ad21116e0,2023-04-12_21h32.07.304,PRaM,2021.2.3,Win32,59.78358343,61b8f3437b89212fae0dfade
9,2.1059,space,0.4549,0,357,357,255,1,,,5f516a44067fba1b4c562a55,64377665f683687ad21116e0,2023-04-12_21h32.07.304,PRaM,2021.2.3,Win32,59.78358343,61b8f3437b89212fae0dfade
1,3.1075,space,1.420099999,0,358,358,106,1,,,5f516a44067fba1b4c562a55,64377665f683687ad21116e0,2023-04-12_21h32.07.304,PRaM,2021.2.3,Win32,59.78358343,61b8f3437b89212fae0dfade
1,1.5874,space,1.3213,0,359,359,89,1,,,5f516a44067fba1b4c562a55,64377665f683687ad21116e0,2023-04-12_21h32.07.304,PRaM,2021.2.3,Win32,59.78358343,61b8f3437b89212fae0dfade
8,1.9218,space,0.2178,0,360,360,110,1,,,5f516a44067fba1b4c562a55,64377665f683687ad21116e0,2023-04-12_21h32.07.304,PRaM,2021.2.3,Win32,59.78358343,61b8f3437b89212fae0dfade
2,2.371099999,space,0.7707,0,361,361,345,1,,,5f516a44067fba1b4c562a55,64377665f683687ad21116e0,2023-04-12_21h32.07.304,PRaM,2021.2.3,Win32,59.78358343,61b8f3437b89212fae0dfade
8,2.0882,space,0.3723,0,362,362,136,1,,,5f516a44067fba1b4c562a55,64377665f683687ad21116e0,2023-04-12_21h32.07.304,PRaM,2021.2.3,Win32,59.78358343,61b8f3437b89212fae0dfade
9,2.0039,space,0.3019,0,363,363,166,1,,,5f516a44067fba1b4c562a55,64377665f683687ad21116e0,2023-04-12_21h32.07.304,PRaM,2021.2.3,Win32,59.78358343,61b8f3437b89212fae0dfade
9,2.1895,space,0.4409,0,364,364,319,1,,,5f516a44067fba1b4c562a55,64377665f683687ad21116e0,2023-04-12_21h32.07.304,PRaM,2021.2.3,Win32,59.78358343,61b8f3437b89212fae0dfade
7,2.5888,space,0.871900001,0,365,365,69,1,,,5f516a44067fba1b4c562a55,64377665f683687ad21116e0,2023-04-12_21h32.07.304,PRaM,2021.2.3,Win32,59.78358343,61b8f3437b89212fae0dfade
2,2.206,space,0.493,0,366,366,267,1,,,5f516a44067fba1b4c562a55,64377665f683687ad21116e0,2023-04-12_21h32.07.304,PRaM,2021.2.3,Win32,59.78358343,61b8f3437b89212fae0dfade
6,2.8552,space,1.153200001,0,367,367,226,1,,,5f516a44067fba1b4c562a55,64377665f683687ad21116e0,2023-04-12_21h32.07.304,PRaM,2021.2.3,Win32,59.78358343,61b8f3437b89212fae0dfade
6,1.8545,space,0.1356,0,368,368,156,1,,,5f516a44067fba1b4c562a55,64377665f683687ad21116e0,2023-04-12_21h32.07.304,PRaM,2021.2.3,Win32,59.78358343,61b8f3437b89212fae0dfade
8,2.357200001,space,0.627299999,0,369,369,326,1,,,5f516a44067fba1b4c562a55,64377665f683687ad21116e0,2023-04-12_21h32.07.304,PRaM,2021.2.3,Win32,59.78358343,61b8f3437b89212fae0dfade
9,2.2229,space,0.5537,0,370,370,225,1,,,5f516a44067fba1b4c562a55,64377665f683687ad21116e0,2023-04-12_21h32.07.304,PRaM,2021.2.3,Win32,59.78358343,61b8f3437b89212fae0dfade
7,2.1891,space,0.442,0,371,371,98,1,,,5f516a44067fba1b4c562a55,64377665f683687ad21116e0,2023-04-12_21h32.07.304,PRaM,2021.2.3,Win32,59.78358343,61b8f3437b89212fae0dfade
2,2.608299999,space,0.9046,0,372,372,58,1,,,5f516a44067fba1b4c562a55,64377665f683687ad21116e0,2023-04-12_21h32.07.304,PRaM,2021.2.3,Win32,59.78358343,61b8f3437b89212fae0dfade
2,1.537099999,space,3.0663,0,373,373,368,1,,,5f516a44067fba1b4c562a55,64377665f683687ad21116e0,2023-04-12_21h32.07.304,PRaM,2021.2.3,Win32,59.78358343,61b8f3437b89212fae0dfade
1,2.5566,space,0.870400001,0,374,374,218,1,,,5f516a44067fba1b4c562a55,64377665f683687ad21116e0,2023-04-12_21h32.07.304,PRaM,2021.2.3,Win32,59.78358343,61b8f3437b89212fae0dfade
8,3.408200001,space,2.0753,0,375,375,19,1,,,5f516a44067fba1b4c562a55,64377665f683687ad21116e0,2023-04-12_21h32.07.304,PRaM,2021.2.3,Win32,59.78358343,61b8f3437b89212fae0dfade
8,4.9809,space,3.33,0,376,376,305,1,,,5f516a44067fba1b4c562a55,64377665f683687ad21116e0,2023-04-12_21h32.07.304,PRaM,2021.2.3,Win32,59.78358343,61b8f3437b89212fae0dfade
7,3.845400001,space,2.1251,0,377,377,79,1,,,5f516a44067fba1b4c562a55,64377665f683687ad21116e0,2023-04-12_21h32.07.304,PRaM,2021.2.3,Win32,59.78358343,61b8f3437b89212fae0dfade
