Rating.response,Rating.rt,EndTrial.keys,EndTrial.rt,trials.thisRepN,trials.thisTrialN,trials.thisN,trials.thisIndex,trials.ran,Pos1,Pos2,participant,session,date,expName,psychopyVersion,OS,frameRate,study_id
7,39.8693,space,39.5961,0,0,0,66,1,,,5f62578ad6e28a29645bf492,61b909699fb9b6d3d05405a5,2021-12-14_22h15.33.425,PRaM,2021.2.3,Win32,59.84440455,61b8f3437b89212fae0dfadf
8,4.6359,space,3.7201,0,1,1,274,1,,,5f62578ad6e28a29645bf492,61b909699fb9b6d3d05405a5,2021-12-14_22h15.33.425,PRaM,2021.2.3,Win32,59.84440455,61b8f3437b89212fae0dfadf
5,3.2432,space,2.0441,0,2,2,127,1,,,5f62578ad6e28a29645bf492,61b909699fb9b6d3d05405a5,2021-12-14_22h15.33.425,PRaM,2021.2.3,Win32,59.84440455,61b8f3437b89212fae0dfadf
4,3.4858,space,4.756,0,3,3,60,1,,,5f62578ad6e28a29645bf492,61b909699fb9b6d3d05405a5,2021-12-14_22h15.33.425,PRaM,2021.2.3,Win32,59.84440455,61b8f3437b89212fae0dfadf
1,6.1628,space,5.1978,0,4,4,54,1,,,5f62578ad6e28a29645bf492,61b909699fb9b6d3d05405a5,2021-12-14_22h15.33.425,PRaM,2021.2.3,Win32,59.84440455,61b8f3437b89212fae0dfadf
6,10.5554,space,9.5119,0,5,5,40,1,,,5f62578ad6e28a29645bf492,61b909699fb9b6d3d05405a5,2021-12-14_22h15.33.425,PRaM,2021.2.3,Win32,59.84440455,61b8f3437b89212fae0dfadf
6,4.3309,space,3.0853,0,6,6,156,1,,,5f62578ad6e28a29645bf492,61b909699fb9b6d3d05405a5,2021-12-14_22h15.33.425,PRaM,2021.2.3,Win32,59.84440455,61b8f3437b89212fae0dfadf
1,28.2933,space,28.369,0,7,7,162,1,,,5f62578ad6e28a29645bf492,61b909699fb9b6d3d05405a5,2021-12-14_22h15.33.425,PRaM,2021.2.3,Win32,59.84440455,61b8f3437b89212fae0dfadf
9,2.5782,space,1.0112,0,8,8,325,1,,,5f62578ad6e28a29645bf492,61b909699fb9b6d3d05405a5,2021-12-14_22h15.33.425,PRaM,2021.2.3,Win32,59.84440455,61b8f3437b89212fae0dfadf
6,3.372,space,1.8016,0,9,9,84,1,,,5f62578ad6e28a29645bf492,61b909699fb9b6d3d05405a5,2021-12-14_22h15.33.425,PRaM,2021.2.3,Win32,59.84440455,61b8f3437b89212fae0dfadf
6,3.3321,space,1.6353,0,10,10,306,1,,,5f62578ad6e28a29645bf492,61b909699fb9b6d3d05405a5,2021-12-14_22h15.33.425,PRaM,2021.2.3,Win32,59.84440455,61b8f3437b89212fae0dfadf
6,4.5652,space,2.8705,0,11,11,149,1,,,5f62578ad6e28a29645bf492,61b909699fb9b6d3d05405a5,2021-12-14_22h15.33.425,PRaM,2021.2.3,Win32,59.84440455,61b8f3437b89212fae0dfadf
8,4.5856,space,2.9942,0,12,12,285,1,,,5f62578ad6e28a29645bf492,61b909699fb9b6d3d05405a5,2021-12-14_22h15.33.425,PRaM,2021.2.3,Win32,59.84440455,61b8f3437b89212fae0dfadf
6,9.2251,space,7.6141,0,13,13,209,1,,,5f62578ad6e28a29645bf492,61b909699fb9b6d3d05405a5,2021-12-14_22h15.33.425,PRaM,2021.2.3,Win32,59.84440455,61b8f3437b89212fae0dfadf
1,4.6715,space,3.2582,0,14,14,106,1,,,5f62578ad6e28a29645bf492,61b909699fb9b6d3d05405a5,2021-12-14_22h15.33.425,PRaM,2021.2.3,Win32,59.84440455,61b8f3437b89212fae0dfadf
8,2.7358,space,1.1037,0,15,15,12,1,,,5f62578ad6e28a29645bf492,61b909699fb9b6d3d05405a5,2021-12-14_22h15.33.425,PRaM,2021.2.3,Win32,59.84440455,61b8f3437b89212fae0dfadf
5,6.3027,space,4.497,0,16,16,203,1,,,5f62578ad6e28a29645bf492,61b909699fb9b6d3d05405a5,2021-12-14_22h15.33.425,PRaM,2021.2.3,Win32,59.84440455,61b8f3437b89212fae0dfadf
3,3.7089,space,1.9989,0,17,17,167,1,,,5f62578ad6e28a29645bf492,61b909699fb9b6d3d05405a5,2021-12-14_22h15.33.425,PRaM,2021.2.3,Win32,59.84440455,61b8f3437b89212fae0dfadf
1,3.2964,space,1.576,0,18,18,245,1,,,5f62578ad6e28a29645bf492,61b909699fb9b6d3d05405a5,2021-12-14_22h15.33.425,PRaM,2021.2.3,Win32,59.84440455,61b8f3437b89212fae0dfadf
2,3.8912,space,2.1915,0,19,19,257,1,,,5f62578ad6e28a29645bf492,61b909699fb9b6d3d05405a5,2021-12-14_22h15.33.425,PRaM,2021.2.3,Win32,59.84440455,61b8f3437b89212fae0dfadf
1,3.4317,space,1.7363,0,20,20,87,1,,,5f62578ad6e28a29645bf492,61b909699fb9b6d3d05405a5,2021-12-14_22h15.33.425,PRaM,2021.2.3,Win32,59.84440455,61b8f3437b89212fae0dfadf
5,4.1072,space,2.2815,0,21,21,266,1,,,5f62578ad6e28a29645bf492,61b909699fb9b6d3d05405a5,2021-12-14_22h15.33.425,PRaM,2021.2.3,Win32,59.84440455,61b8f3437b89212fae0dfadf
1,2.6422,space,1.024,0,22,22,91,1,,,5f62578ad6e28a29645bf492,61b909699fb9b6d3d05405a5,2021-12-14_22h15.33.425,PRaM,2021.2.3,Win32,59.84440455,61b8f3437b89212fae0dfadf
1,2.526,space,0.8729,0,23,23,324,1,,,5f62578ad6e28a29645bf492,61b909699fb9b6d3d05405a5,2021-12-14_22h15.33.425,PRaM,2021.2.3,Win32,59.84440455,61b8f3437b89212fae0dfadf
2,5.8994,space,4.255,0,24,24,57,1,,,5f62578ad6e28a29645bf492,61b909699fb9b6d3d05405a5,2021-12-14_22h15.33.425,PRaM,2021.2.3,Win32,59.84440455,61b8f3437b89212fae0dfadf
2,3.7517,space,2.2307,0,25,25,313,1,,,5f62578ad6e28a29645bf492,61b909699fb9b6d3d05405a5,2021-12-14_22h15.33.425,PRaM,2021.2.3,Win32,59.84440455,61b8f3437b89212fae0dfadf
2,1.5043,space,1.1115,0,26,26,263,1,,,5f62578ad6e28a29645bf492,61b909699fb9b6d3d05405a5,2021-12-14_22h15.33.425,PRaM,2021.2.3,Win32,59.84440455,61b8f3437b89212fae0dfadf
3,3.9343,space,2.3867,0,27,27,310,1,,,5f62578ad6e28a29645bf492,61b909699fb9b6d3d05405a5,2021-12-14_22h15.33.425,PRaM,2021.2.3,Win32,59.84440455,61b8f3437b89212fae0dfadf
3,2.3282,space,0.7654,0,28,28,317,1,,,5f62578ad6e28a29645bf492,61b909699fb9b6d3d05405a5,2021-12-14_22h15.33.425,PRaM,2021.2.3,Win32,59.84440455,61b8f3437b89212fae0dfadf
3,3.5993,space,2.0237,0,29,29,326,1,,,5f62578ad6e28a29645bf492,61b909699fb9b6d3d05405a5,2021-12-14_22h15.33.425,PRaM,2021.2.3,Win32,59.84440455,61b8f3437b89212fae0dfadf
2,25.9261,space,24.362,0,30,30,73,1,,,5f62578ad6e28a29645bf492,61b909699fb9b6d3d05405a5,2021-12-14_22h15.33.425,PRaM,2021.2.3,Win32,59.84440455,61b8f3437b89212fae0dfadf
5,3.5,space,1.7228,0,31,31,43,1,,,5f62578ad6e28a29645bf492,61b909699fb9b6d3d05405a5,2021-12-14_22h15.33.425,PRaM,2021.2.3,Win32,59.84440455,61b8f3437b89212fae0dfadf
4,3.5898,space,2.0039,0,32,32,350,1,,,5f62578ad6e28a29645bf492,61b909699fb9b6d3d05405a5,2021-12-14_22h15.33.425,PRaM,2021.2.3,Win32,59.84440455,61b8f3437b89212fae0dfadf
2,4.4176,space,2.8706,0,33,33,296,1,,,5f62578ad6e28a29645bf492,61b909699fb9b6d3d05405a5,2021-12-14_22h15.33.425,PRaM,2021.2.3,Win32,59.84440455,61b8f3437b89212fae0dfadf
2,2.1182,space,0.5265,0,34,34,133,1,,,5f62578ad6e28a29645bf492,61b909699fb9b6d3d05405a5,2021-12-14_22h15.33.425,PRaM,2021.2.3,Win32,59.84440455,61b8f3437b89212fae0dfadf
2,1.8604,space,0.2064,0,35,35,349,1,,,5f62578ad6e28a29645bf492,61b909699fb9b6d3d05405a5,2021-12-14_22h15.33.425,PRaM,2021.2.3,Win32,59.84440455,61b8f3437b89212fae0dfadf
3,3.4905,space,1.8536,0,36,36,374,1,,,5f62578ad6e28a29645bf492,61b909699fb9b6d3d05405a5,2021-12-14_22h15.33.425,PRaM,2021.2.3,Win32,59.84440455,61b8f3437b89212fae0dfadf
2,6.3762,space,4.5895,0,37,37,254,1,,,5f62578ad6e28a29645bf492,61b909699fb9b6d3d05405a5,2021-12-14_22h15.33.425,PRaM,2021.2.3,Win32,59.84440455,61b8f3437b89212fae0dfadf
1,2.7902,space,1.1043,0,38,38,140,1,,,5f62578ad6e28a29645bf492,61b909699fb9b6d3d05405a5,2021-12-14_22h15.33.425,PRaM,2021.2.3,Win32,59.84440455,61b8f3437b89212fae0dfadf
3,3.5062,space,1.9003,0,39,39,314,1,,,5f62578ad6e28a29645bf492,61b909699fb9b6d3d05405a5,2021-12-14_22h15.33.425,PRaM,2021.2.3,Win32,59.84440455,61b8f3437b89212fae0dfadf
1,6.0679,space,4.5391,0,40,40,94,1,,,5f62578ad6e28a29645bf492,61b909699fb9b6d3d05405a5,2021-12-14_22h15.33.425,PRaM,2021.2.3,Win32,59.84440455,61b8f3437b89212fae0dfadf
2,7.617,space,6.456,0,41,41,36,1,,,5f62578ad6e28a29645bf492,61b909699fb9b6d3d05405a5,2021-12-14_22h15.33.425,PRaM,2021.2.3,Win32,59.84440455,61b8f3437b89212fae0dfadf
7,3.6937,space,2.7223,0,42,42,213,1,,,5f62578ad6e28a29645bf492,61b909699fb9b6d3d05405a5,2021-12-14_22h15.33.425,PRaM,2021.2.3,Win32,59.84440455,61b8f3437b89212fae0dfadf
3,3.4786,space,1.9231,0,43,43,70,1,,,5f62578ad6e28a29645bf492,61b909699fb9b6d3d05405a5,2021-12-14_22h15.33.425,PRaM,2021.2.3,Win32,59.84440455,61b8f3437b89212fae0dfadf
4,9.2727,space,7.6682,0,44,44,113,1,,,5f62578ad6e28a29645bf492,61b909699fb9b6d3d05405a5,2021-12-14_22h15.33.425,PRaM,2021.2.3,Win32,59.84440455,61b8f3437b89212fae0dfadf
1,6.769,space,5.2256,0,45,45,68,1,,,5f62578ad6e28a29645bf492,61b909699fb9b6d3d05405a5,2021-12-14_22h15.33.425,PRaM,2021.2.3,Win32,59.84440455,61b8f3437b89212fae0dfadf
1,10.6736,space,9.1661,0,46,46,260,1,,,5f62578ad6e28a29645bf492,61b909699fb9b6d3d05405a5,2021-12-14_22h15.33.425,PRaM,2021.2.3,Win32,59.84440455,61b8f3437b89212fae0dfadf
1,15.2681,space,14.0567,0,47,47,193,1,,,5f62578ad6e28a29645bf492,61b909699fb9b6d3d05405a5,2021-12-14_22h15.33.425,PRaM,2021.2.3,Win32,59.84440455,61b8f3437b89212fae0dfadf
1,2.2109,space,0.6203,0,48,48,360,1,,,5f62578ad6e28a29645bf492,61b909699fb9b6d3d05405a5,2021-12-14_22h15.33.425,PRaM,2021.2.3,Win32,59.84440455,61b8f3437b89212fae0dfadf
6,4.1253,space,2.5441,0,49,49,83,1,,,5f62578ad6e28a29645bf492,61b909699fb9b6d3d05405a5,2021-12-14_22h15.33.425,PRaM,2021.2.3,Win32,59.84440455,61b8f3437b89212fae0dfadf
2,4.7078,space,3.0714,0,50,50,342,1,,,5f62578ad6e28a29645bf492,61b909699fb9b6d3d05405a5,2021-12-14_22h15.33.425,PRaM,2021.2.3,Win32,59.84440455,61b8f3437b89212fae0dfadf
5,8.6885,space,6.8995,0,51,51,280,1,,,5f62578ad6e28a29645bf492,61b909699fb9b6d3d05405a5,2021-12-14_22h15.33.425,PRaM,2021.2.3,Win32,59.84440455,61b8f3437b89212fae0dfadf
1,3.4816,space,1.792,0,52,52,230,1,,,5f62578ad6e28a29645bf492,61b909699fb9b6d3d05405a5,2021-12-14_22h15.33.425,PRaM,2021.2.3,Win32,59.84440455,61b8f3437b89212fae0dfadf
8,32.8144,space,31.9766,0,53,53,112,1,,,5f62578ad6e28a29645bf492,61b909699fb9b6d3d05405a5,2021-12-14_22h15.33.425,PRaM,2021.2.3,Win32,59.84440455,61b8f3437b89212fae0dfadf
3,2.4587,space,0.8354,0,54,54,256,1,,,5f62578ad6e28a29645bf492,61b909699fb9b6d3d05405a5,2021-12-14_22h15.33.425,PRaM,2021.2.3,Win32,59.84440455,61b8f3437b89212fae0dfadf
5,4.1265,space,2.3847,0,55,55,62,1,,,5f62578ad6e28a29645bf492,61b909699fb9b6d3d05405a5,2021-12-14_22h15.33.425,PRaM,2021.2.3,Win32,59.84440455,61b8f3437b89212fae0dfadf
7,3.9635,space,2.2447,0,56,56,6,1,,,5f62578ad6e28a29645bf492,61b909699fb9b6d3d05405a5,2021-12-14_22h15.33.425,PRaM,2021.2.3,Win32,59.84440455,61b8f3437b89212fae0dfadf
2,2.7327,space,1.0837,0,57,57,364,1,,,5f62578ad6e28a29645bf492,61b909699fb9b6d3d05405a5,2021-12-14_22h15.33.425,PRaM,2021.2.3,Win32,59.84440455,61b8f3437b89212fae0dfadf
7,1.8443,space,0.2401,0,58,58,177,1,,,5f62578ad6e28a29645bf492,61b909699fb9b6d3d05405a5,2021-12-14_22h15.33.425,PRaM,2021.2.3,Win32,59.84440455,61b8f3437b89212fae0dfadf
3,4.5168,space,2.8421,0,59,59,224,1,,,5f62578ad6e28a29645bf492,61b909699fb9b6d3d05405a5,2021-12-14_22h15.33.425,PRaM,2021.2.3,Win32,59.84440455,61b8f3437b89212fae0dfadf
3,2.7259,space,1.6369,0,60,60,243,1,,,5f62578ad6e28a29645bf492,61b909699fb9b6d3d05405a5,2021-12-14_22h15.33.425,PRaM,2021.2.3,Win32,59.84440455,61b8f3437b89212fae0dfadf
6,7.7945,space,6.2078,0,61,61,93,1,,,5f62578ad6e28a29645bf492,61b909699fb9b6d3d05405a5,2021-12-14_22h15.33.425,PRaM,2021.2.3,Win32,59.84440455,61b8f3437b89212fae0dfadf
6,6.2989,space,4.6408,0,62,62,121,1,,,5f62578ad6e28a29645bf492,61b909699fb9b6d3d05405a5,2021-12-14_22h15.33.425,PRaM,2021.2.3,Win32,59.84440455,61b8f3437b89212fae0dfadf
1,20.3901,space,18.866,0,63,63,125,1,,,5f62578ad6e28a29645bf492,61b909699fb9b6d3d05405a5,2021-12-14_22h15.33.425,PRaM,2021.2.3,Win32,59.84440455,61b8f3437b89212fae0dfadf
1,11.6056,space,10.1167,0,64,64,138,1,,,5f62578ad6e28a29645bf492,61b909699fb9b6d3d05405a5,2021-12-14_22h15.33.425,PRaM,2021.2.3,Win32,59.84440455,61b8f3437b89212fae0dfadf
1,2.3919,space,0.8022,0,65,65,329,1,,,5f62578ad6e28a29645bf492,61b909699fb9b6d3d05405a5,2021-12-14_22h15.33.425,PRaM,2021.2.3,Win32,59.84440455,61b8f3437b89212fae0dfadf
1,2.4256,space,0.8604,0,66,66,214,1,,,5f62578ad6e28a29645bf492,61b909699fb9b6d3d05405a5,2021-12-14_22h15.33.425,PRaM,2021.2.3,Win32,59.84440455,61b8f3437b89212fae0dfadf
1,1.7836,space,0.2014,0,67,67,235,1,,,5f62578ad6e28a29645bf492,61b909699fb9b6d3d05405a5,2021-12-14_22h15.33.425,PRaM,2021.2.3,Win32,59.84440455,61b8f3437b89212fae0dfadf
6,3.043,space,1.3689,0,68,68,126,1,,,5f62578ad6e28a29645bf492,61b909699fb9b6d3d05405a5,2021-12-14_22h15.33.425,PRaM,2021.2.3,Win32,59.84440455,61b8f3437b89212fae0dfadf
6,3.2011,space,1.5622,0,69,69,366,1,,,5f62578ad6e28a29645bf492,61b909699fb9b6d3d05405a5,2021-12-14_22h15.33.425,PRaM,2021.2.3,Win32,59.84440455,61b8f3437b89212fae0dfadf
7,2.5653,space,0.8952,0,70,70,3,1,,,5f62578ad6e28a29645bf492,61b909699fb9b6d3d05405a5,2021-12-14_22h15.33.425,PRaM,2021.2.3,Win32,59.84440455,61b8f3437b89212fae0dfadf
8,2.277,space,0.6499,0,71,71,192,1,,,5f62578ad6e28a29645bf492,61b909699fb9b6d3d05405a5,2021-12-14_22h15.33.425,PRaM,2021.2.3,Win32,59.84440455,61b8f3437b89212fae0dfadf
,,space,3.5554,0,72,72,21,1,,,5f62578ad6e28a29645bf492,61b909699fb9b6d3d05405a5,2021-12-14_22h15.33.425,PRaM,2021.2.3,Win32,59.84440455,61b8f3437b89212fae0dfadf
7,5.0693,space,3.3568,0,73,73,305,1,,,5f62578ad6e28a29645bf492,61b909699fb9b6d3d05405a5,2021-12-14_22h15.33.425,PRaM,2021.2.3,Win32,59.84440455,61b8f3437b89212fae0dfadf
1,3.0682,space,1.496,0,74,74,283,1,,,5f62578ad6e28a29645bf492,61b909699fb9b6d3d05405a5,2021-12-14_22h15.33.425,PRaM,2021.2.3,Win32,59.84440455,61b8f3437b89212fae0dfadf
4,2.8553,space,1.2431,0,75,75,59,1,,,5f62578ad6e28a29645bf492,61b909699fb9b6d3d05405a5,2021-12-14_22h15.33.425,PRaM,2021.2.3,Win32,59.84440455,61b8f3437b89212fae0dfadf
4,1.7445,space,0.1185,0,76,76,124,1,,,5f62578ad6e28a29645bf492,61b909699fb9b6d3d05405a5,2021-12-14_22h15.33.425,PRaM,2021.2.3,Win32,59.84440455,61b8f3437b89212fae0dfadf
5,1.9501,space,1.4693,0,77,77,28,1,,,5f62578ad6e28a29645bf492,61b909699fb9b6d3d05405a5,2021-12-14_22h15.33.425,PRaM,2021.2.3,Win32,59.84440455,61b8f3437b89212fae0dfadf
5,2.1493,space,0.5068,0,78,78,104,1,,,5f62578ad6e28a29645bf492,61b909699fb9b6d3d05405a5,2021-12-14_22h15.33.425,PRaM,2021.2.3,Win32,59.84440455,61b8f3437b89212fae0dfadf
2,3.1099,space,1.4407,0,79,79,77,1,,,5f62578ad6e28a29645bf492,61b909699fb9b6d3d05405a5,2021-12-14_22h15.33.425,PRaM,2021.2.3,Win32,59.84440455,61b8f3437b89212fae0dfadf
9,3.4644,space,1.8354,0,80,80,279,1,,,5f62578ad6e28a29645bf492,61b909699fb9b6d3d05405a5,2021-12-14_22h15.33.425,PRaM,2021.2.3,Win32,59.84440455,61b8f3437b89212fae0dfadf
7,3.1065,space,1.4922,0,81,81,30,1,,,5f62578ad6e28a29645bf492,61b909699fb9b6d3d05405a5,2021-12-14_22h15.33.425,PRaM,2021.2.3,Win32,59.84440455,61b8f3437b89212fae0dfadf
5,2.4737,space,0.7185,0,82,82,46,1,,,5f62578ad6e28a29645bf492,61b909699fb9b6d3d05405a5,2021-12-14_22h15.33.425,PRaM,2021.2.3,Win32,59.84440455,61b8f3437b89212fae0dfadf
5,2.5377,space,1.0194,0,83,83,166,1,,,5f62578ad6e28a29645bf492,61b909699fb9b6d3d05405a5,2021-12-14_22h15.33.425,PRaM,2021.2.3,Win32,59.84440455,61b8f3437b89212fae0dfadf
5,2.6024,space,0.9515,0,84,84,251,1,,,5f62578ad6e28a29645bf492,61b909699fb9b6d3d05405a5,2021-12-14_22h15.33.425,PRaM,2021.2.3,Win32,59.84440455,61b8f3437b89212fae0dfadf
2,3.3238,space,1.6744,0,85,85,239,1,,,5f62578ad6e28a29645bf492,61b909699fb9b6d3d05405a5,2021-12-14_22h15.33.425,PRaM,2021.2.3,Win32,59.84440455,61b8f3437b89212fae0dfadf
5,2.8242,space,1.1198,0,86,86,4,1,,,5f62578ad6e28a29645bf492,61b909699fb9b6d3d05405a5,2021-12-14_22h15.33.425,PRaM,2021.2.3,Win32,59.84440455,61b8f3437b89212fae0dfadf
2,50.9324,space,49.2334,0,87,87,122,1,,,5f62578ad6e28a29645bf492,61b909699fb9b6d3d05405a5,2021-12-14_22h15.33.425,PRaM,2021.2.3,Win32,59.84440455,61b8f3437b89212fae0dfadf
3,2.7902,space,1.1599,0,88,88,118,1,,,5f62578ad6e28a29645bf492,61b909699fb9b6d3d05405a5,2021-12-14_22h15.33.425,PRaM,2021.2.3,Win32,59.84440455,61b8f3437b89212fae0dfadf
6,2.492,space,0.8359,0,89,89,205,1,,,5f62578ad6e28a29645bf492,61b909699fb9b6d3d05405a5,2021-12-14_22h15.33.425,PRaM,2021.2.3,Win32,59.84440455,61b8f3437b89212fae0dfadf
3,2.581,space,0.8987,0,90,90,321,1,,,5f62578ad6e28a29645bf492,61b909699fb9b6d3d05405a5,2021-12-14_22h15.33.425,PRaM,2021.2.3,Win32,59.84440455,61b8f3437b89212fae0dfadf
2,15.2889,space,13.8837,0,91,91,217,1,,,5f62578ad6e28a29645bf492,61b909699fb9b6d3d05405a5,2021-12-14_22h15.33.425,PRaM,2021.2.3,Win32,59.84440455,61b8f3437b89212fae0dfadf
7,2.7076,space,1.2694,0,92,92,13,1,,,5f62578ad6e28a29645bf492,61b909699fb9b6d3d05405a5,2021-12-14_22h15.33.425,PRaM,2021.2.3,Win32,59.84440455,61b8f3437b89212fae0dfadf
4,20.4927,space,18.9037,0,93,93,318,1,,,5f62578ad6e28a29645bf492,61b909699fb9b6d3d05405a5,2021-12-14_22h15.33.425,PRaM,2021.2.3,Win32,59.84440455,61b8f3437b89212fae0dfadf
4,1.4628,space,1.2025,0,94,94,250,1,,,5f62578ad6e28a29645bf492,61b909699fb9b6d3d05405a5,2021-12-14_22h15.33.425,PRaM,2021.2.3,Win32,59.84440455,61b8f3437b89212fae0dfadf
5,3.8355,space,2.1083,0,95,95,161,1,,,5f62578ad6e28a29645bf492,61b909699fb9b6d3d05405a5,2021-12-14_22h15.33.425,PRaM,2021.2.3,Win32,59.84440455,61b8f3437b89212fae0dfadf
9,3.5129,space,1.8906,0,96,96,38,1,,,5f62578ad6e28a29645bf492,61b909699fb9b6d3d05405a5,2021-12-14_22h15.33.425,PRaM,2021.2.3,Win32,59.84440455,61b8f3437b89212fae0dfadf
1,2.6653,space,0.954,0,97,97,344,1,,,5f62578ad6e28a29645bf492,61b909699fb9b6d3d05405a5,2021-12-14_22h15.33.425,PRaM,2021.2.3,Win32,59.84440455,61b8f3437b89212fae0dfadf
3,2.4628,space,0.8345,0,98,98,176,1,,,5f62578ad6e28a29645bf492,61b909699fb9b6d3d05405a5,2021-12-14_22h15.33.425,PRaM,2021.2.3,Win32,59.84440455,61b8f3437b89212fae0dfadf
2,2.8323,space,2.2119,0,99,99,303,1,,,5f62578ad6e28a29645bf492,61b909699fb9b6d3d05405a5,2021-12-14_22h15.33.425,PRaM,2021.2.3,Win32,59.84440455,61b8f3437b89212fae0dfadf
1,2.664,space,1.0182,0,100,100,190,1,,,5f62578ad6e28a29645bf492,61b909699fb9b6d3d05405a5,2021-12-14_22h15.33.425,PRaM,2021.2.3,Win32,59.84440455,61b8f3437b89212fae0dfadf
8,2.4076,space,0.815,0,101,101,45,1,,,5f62578ad6e28a29645bf492,61b909699fb9b6d3d05405a5,2021-12-14_22h15.33.425,PRaM,2021.2.3,Win32,59.84440455,61b8f3437b89212fae0dfadf
2,9.001,space,7.4603,0,102,102,144,1,,,5f62578ad6e28a29645bf492,61b909699fb9b6d3d05405a5,2021-12-14_22h15.33.425,PRaM,2021.2.3,Win32,59.84440455,61b8f3437b89212fae0dfadf
2,2.4194,space,0.772,0,103,103,23,1,,,5f62578ad6e28a29645bf492,61b909699fb9b6d3d05405a5,2021-12-14_22h15.33.425,PRaM,2021.2.3,Win32,59.84440455,61b8f3437b89212fae0dfadf
3,3.9541,space,2.3206,0,104,104,98,1,,,5f62578ad6e28a29645bf492,61b909699fb9b6d3d05405a5,2021-12-14_22h15.33.425,PRaM,2021.2.3,Win32,59.84440455,61b8f3437b89212fae0dfadf
9,19.6766,space,18.0696,0,105,105,17,1,,,5f62578ad6e28a29645bf492,61b909699fb9b6d3d05405a5,2021-12-14_22h15.33.425,PRaM,2021.2.3,Win32,59.84440455,61b8f3437b89212fae0dfadf
2,2.3699,space,0.8386,0,106,106,97,1,,,5f62578ad6e28a29645bf492,61b909699fb9b6d3d05405a5,2021-12-14_22h15.33.425,PRaM,2021.2.3,Win32,59.84440455,61b8f3437b89212fae0dfadf
4,2.8406,space,1.2579,0,107,107,246,1,,,5f62578ad6e28a29645bf492,61b909699fb9b6d3d05405a5,2021-12-14_22h15.33.425,PRaM,2021.2.3,Win32,59.84440455,61b8f3437b89212fae0dfadf
2,2.5457,space,0.8592,0,108,108,333,1,,,5f62578ad6e28a29645bf492,61b909699fb9b6d3d05405a5,2021-12-14_22h15.33.425,PRaM,2021.2.3,Win32,59.84440455,61b8f3437b89212fae0dfadf
2,2.506,space,0.8067,0,109,109,109,1,,,5f62578ad6e28a29645bf492,61b909699fb9b6d3d05405a5,2021-12-14_22h15.33.425,PRaM,2021.2.3,Win32,59.84440455,61b8f3437b89212fae0dfadf
5,2.6781,space,0.9461,0,110,110,377,1,,,5f62578ad6e28a29645bf492,61b909699fb9b6d3d05405a5,2021-12-14_22h15.33.425,PRaM,2021.2.3,Win32,59.84440455,61b8f3437b89212fae0dfadf
5,2.4036,space,0.5112,0,111,111,32,1,,,5f62578ad6e28a29645bf492,61b909699fb9b6d3d05405a5,2021-12-14_22h15.33.425,PRaM,2021.2.3,Win32,59.84440455,61b8f3437b89212fae0dfadf
3,2.5902,space,0.9337,0,112,112,258,1,,,5f62578ad6e28a29645bf492,61b909699fb9b6d3d05405a5,2021-12-14_22h15.33.425,PRaM,2021.2.3,Win32,59.84440455,61b8f3437b89212fae0dfadf
1,3.6742,space,2.0051,0,113,113,309,1,,,5f62578ad6e28a29645bf492,61b909699fb9b6d3d05405a5,2021-12-14_22h15.33.425,PRaM,2021.2.3,Win32,59.84440455,61b8f3437b89212fae0dfadf
4,23.8484,space,22.28,0,114,114,286,1,,,5f62578ad6e28a29645bf492,61b909699fb9b6d3d05405a5,2021-12-14_22h15.33.425,PRaM,2021.2.3,Win32,59.84440455,61b8f3437b89212fae0dfadf
4,3.3902,space,1.5532,0,115,115,175,1,,,5f62578ad6e28a29645bf492,61b909699fb9b6d3d05405a5,2021-12-14_22h15.33.425,PRaM,2021.2.3,Win32,59.84440455,61b8f3437b89212fae0dfadf
3,2.7411,space,0.9445,0,116,116,90,1,,,5f62578ad6e28a29645bf492,61b909699fb9b6d3d05405a5,2021-12-14_22h15.33.425,PRaM,2021.2.3,Win32,59.84440455,61b8f3437b89212fae0dfadf
5,3.1937,space,1.3886,0,117,117,11,1,,,5f62578ad6e28a29645bf492,61b909699fb9b6d3d05405a5,2021-12-14_22h15.33.425,PRaM,2021.2.3,Win32,59.84440455,61b8f3437b89212fae0dfadf
6,2.5441,space,0.8173,0,118,118,123,1,,,5f62578ad6e28a29645bf492,61b909699fb9b6d3d05405a5,2021-12-14_22h15.33.425,PRaM,2021.2.3,Win32,59.84440455,61b8f3437b89212fae0dfadf
4,2.4257,space,0.7531,0,119,119,170,1,,,5f62578ad6e28a29645bf492,61b909699fb9b6d3d05405a5,2021-12-14_22h15.33.425,PRaM,2021.2.3,Win32,59.84440455,61b8f3437b89212fae0dfadf
6,3.1144,space,1.4704,0,120,120,182,1,,,5f62578ad6e28a29645bf492,61b909699fb9b6d3d05405a5,2021-12-14_22h15.33.425,PRaM,2021.2.3,Win32,59.84440455,61b8f3437b89212fae0dfadf
3,3.7229,space,2.0599,0,121,121,236,1,,,5f62578ad6e28a29645bf492,61b909699fb9b6d3d05405a5,2021-12-14_22h15.33.425,PRaM,2021.2.3,Win32,59.84440455,61b8f3437b89212fae0dfadf
2,2.1075,space,0.4201,0,122,122,262,1,,,5f62578ad6e28a29645bf492,61b909699fb9b6d3d05405a5,2021-12-14_22h15.33.425,PRaM,2021.2.3,Win32,59.84440455,61b8f3437b89212fae0dfadf
2,2.2297,space,0.5032,0,123,123,179,1,,,5f62578ad6e28a29645bf492,61b909699fb9b6d3d05405a5,2021-12-14_22h15.33.425,PRaM,2021.2.3,Win32,59.84440455,61b8f3437b89212fae0dfadf
2,2.758,space,1.0021,0,124,124,210,1,,,5f62578ad6e28a29645bf492,61b909699fb9b6d3d05405a5,2021-12-14_22h15.33.425,PRaM,2021.2.3,Win32,59.84440455,61b8f3437b89212fae0dfadf
2,2.0973,space,0.5404,0,125,125,229,1,,,5f62578ad6e28a29645bf492,61b909699fb9b6d3d05405a5,2021-12-14_22h15.33.425,PRaM,2021.2.3,Win32,59.84440455,61b8f3437b89212fae0dfadf
3,1.7731,space,0.1519,0,126,126,234,1,,,5f62578ad6e28a29645bf492,61b909699fb9b6d3d05405a5,2021-12-14_22h15.33.425,PRaM,2021.2.3,Win32,59.84440455,61b8f3437b89212fae0dfadf
3,1.7604,space,0.122,0,127,127,58,1,,,5f62578ad6e28a29645bf492,61b909699fb9b6d3d05405a5,2021-12-14_22h15.33.425,PRaM,2021.2.3,Win32,59.84440455,61b8f3437b89212fae0dfadf
2,1.222,space,0.1381,0,128,128,308,1,,,5f62578ad6e28a29645bf492,61b909699fb9b6d3d05405a5,2021-12-14_22h15.33.425,PRaM,2021.2.3,Win32,59.84440455,61b8f3437b89212fae0dfadf
3,2.4804,space,0.7666,0,129,129,35,1,,,5f62578ad6e28a29645bf492,61b909699fb9b6d3d05405a5,2021-12-14_22h15.33.425,PRaM,2021.2.3,Win32,59.84440455,61b8f3437b89212fae0dfadf
2,1.6256,space,0.0077,0,130,130,33,1,,,5f62578ad6e28a29645bf492,61b909699fb9b6d3d05405a5,2021-12-14_22h15.33.425,PRaM,2021.2.3,Win32,59.84440455,61b8f3437b89212fae0dfadf
2,1.9383,space,0.2625,0,131,131,188,1,,,5f62578ad6e28a29645bf492,61b909699fb9b6d3d05405a5,2021-12-14_22h15.33.425,PRaM,2021.2.3,Win32,59.84440455,61b8f3437b89212fae0dfadf
7,3.6253,space,1.921,0,132,132,115,1,,,5f62578ad6e28a29645bf492,61b909699fb9b6d3d05405a5,2021-12-14_22h15.33.425,PRaM,2021.2.3,Win32,59.84440455,61b8f3437b89212fae0dfadf
,,space,1.2062,0,133,133,247,1,,,5f62578ad6e28a29645bf492,61b909699fb9b6d3d05405a5,2021-12-14_22h15.33.425,PRaM,2021.2.3,Win32,59.84440455,61b8f3437b89212fae0dfadf
1,1.9562,space,0.159,0,134,134,237,1,,,5f62578ad6e28a29645bf492,61b909699fb9b6d3d05405a5,2021-12-14_22h15.33.425,PRaM,2021.2.3,Win32,59.84440455,61b8f3437b89212fae0dfadf
1,0.7402,space,0.6826,0,135,135,99,1,,,5f62578ad6e28a29645bf492,61b909699fb9b6d3d05405a5,2021-12-14_22h15.33.425,PRaM,2021.2.3,Win32,59.84440455,61b8f3437b89212fae0dfadf
4,1.2527,space,0.0778,0,136,136,294,1,,,5f62578ad6e28a29645bf492,61b909699fb9b6d3d05405a5,2021-12-14_22h15.33.425,PRaM,2021.2.3,Win32,59.84440455,61b8f3437b89212fae0dfadf
4,1.4227,space,0.164,0,137,137,367,1,,,5f62578ad6e28a29645bf492,61b909699fb9b6d3d05405a5,2021-12-14_22h15.33.425,PRaM,2021.2.3,Win32,59.84440455,61b8f3437b89212fae0dfadf
3,2.1176,space,0.3185,0,138,138,359,1,,,5f62578ad6e28a29645bf492,61b909699fb9b6d3d05405a5,2021-12-14_22h15.33.425,PRaM,2021.2.3,Win32,59.84440455,61b8f3437b89212fae0dfadf
4,1.2758,space,30.3784,0,139,139,41,1,,,5f62578ad6e28a29645bf492,61b909699fb9b6d3d05405a5,2021-12-14_22h15.33.425,PRaM,2021.2.3,Win32,59.84440455,61b8f3437b89212fae0dfadf
,,space,0.6529,0,140,140,219,1,,,5f62578ad6e28a29645bf492,61b909699fb9b6d3d05405a5,2021-12-14_22h15.33.425,PRaM,2021.2.3,Win32,59.84440455,61b8f3437b89212fae0dfadf
4,2.4677,space,0.66,0,141,141,259,1,,,5f62578ad6e28a29645bf492,61b909699fb9b6d3d05405a5,2021-12-14_22h15.33.425,PRaM,2021.2.3,Win32,59.84440455,61b8f3437b89212fae0dfadf
4,1.672,space,0.0016,0,142,142,231,1,,,5f62578ad6e28a29645bf492,61b909699fb9b6d3d05405a5,2021-12-14_22h15.33.425,PRaM,2021.2.3,Win32,59.84440455,61b8f3437b89212fae0dfadf
5,0.9892,space,0.5679,0,143,143,293,1,,,5f62578ad6e28a29645bf492,61b909699fb9b6d3d05405a5,2021-12-14_22h15.33.425,PRaM,2021.2.3,Win32,59.84440455,61b8f3437b89212fae0dfadf
5,1.1005,space,0.6712,0,144,144,226,1,,,5f62578ad6e28a29645bf492,61b909699fb9b6d3d05405a5,2021-12-14_22h15.33.425,PRaM,2021.2.3,Win32,59.84440455,61b8f3437b89212fae0dfadf
2,2.8483,space,1.1684,0,145,145,150,1,,,5f62578ad6e28a29645bf492,61b909699fb9b6d3d05405a5,2021-12-14_22h15.33.425,PRaM,2021.2.3,Win32,59.84440455,61b8f3437b89212fae0dfadf
2,2.0073,space,0.9184,0,146,146,169,1,,,5f62578ad6e28a29645bf492,61b909699fb9b6d3d05405a5,2021-12-14_22h15.33.425,PRaM,2021.2.3,Win32,59.84440455,61b8f3437b89212fae0dfadf
6,9.5045,space,8.3182,0,147,147,327,1,,,5f62578ad6e28a29645bf492,61b909699fb9b6d3d05405a5,2021-12-14_22h15.33.425,PRaM,2021.2.3,Win32,59.84440455,61b8f3437b89212fae0dfadf
7,3.6441,space,2.0016,0,148,148,119,1,,,5f62578ad6e28a29645bf492,61b909699fb9b6d3d05405a5,2021-12-14_22h15.33.425,PRaM,2021.2.3,Win32,59.84440455,61b8f3437b89212fae0dfadf
7,1.5547,space,0.6105,0,149,149,134,1,,,5f62578ad6e28a29645bf492,61b909699fb9b6d3d05405a5,2021-12-14_22h15.33.425,PRaM,2021.2.3,Win32,59.84440455,61b8f3437b89212fae0dfadf
2,4.1334,space,2.6016,0,150,150,10,1,,,5f62578ad6e28a29645bf492,61b909699fb9b6d3d05405a5,2021-12-14_22h15.33.425,PRaM,2021.2.3,Win32,59.84440455,61b8f3437b89212fae0dfadf
8,2.9046,space,1.3085,0,151,151,29,1,,,5f62578ad6e28a29645bf492,61b909699fb9b6d3d05405a5,2021-12-14_22h15.33.425,PRaM,2021.2.3,Win32,59.84440455,61b8f3437b89212fae0dfadf
2,3.4218,space,1.7865,0,152,152,365,1,,,5f62578ad6e28a29645bf492,61b909699fb9b6d3d05405a5,2021-12-14_22h15.33.425,PRaM,2021.2.3,Win32,59.84440455,61b8f3437b89212fae0dfadf
3,3.4261,space,1.7556,0,153,153,56,1,,,5f62578ad6e28a29645bf492,61b909699fb9b6d3d05405a5,2021-12-14_22h15.33.425,PRaM,2021.2.3,Win32,59.84440455,61b8f3437b89212fae0dfadf
3,2.7975,space,1.2427,0,154,154,191,1,,,5f62578ad6e28a29645bf492,61b909699fb9b6d3d05405a5,2021-12-14_22h15.33.425,PRaM,2021.2.3,Win32,59.84440455,61b8f3437b89212fae0dfadf
3,2.422,space,0.7536,0,155,155,330,1,,,5f62578ad6e28a29645bf492,61b909699fb9b6d3d05405a5,2021-12-14_22h15.33.425,PRaM,2021.2.3,Win32,59.84440455,61b8f3437b89212fae0dfadf
3,1.6925,space,0.0014,0,156,156,55,1,,,5f62578ad6e28a29645bf492,61b909699fb9b6d3d05405a5,2021-12-14_22h15.33.425,PRaM,2021.2.3,Win32,59.84440455,61b8f3437b89212fae0dfadf
2,2.6277,space,0.9241,0,157,157,375,1,,,5f62578ad6e28a29645bf492,61b909699fb9b6d3d05405a5,2021-12-14_22h15.33.425,PRaM,2021.2.3,Win32,59.84440455,61b8f3437b89212fae0dfadf
8,3.1859,space,1.4505,0,158,158,277,1,,,5f62578ad6e28a29645bf492,61b909699fb9b6d3d05405a5,2021-12-14_22h15.33.425,PRaM,2021.2.3,Win32,59.84440455,61b8f3437b89212fae0dfadf
9,2.7115,space,1.1367,0,159,159,323,1,,,5f62578ad6e28a29645bf492,61b909699fb9b6d3d05405a5,2021-12-14_22h15.33.425,PRaM,2021.2.3,Win32,59.84440455,61b8f3437b89212fae0dfadf
2,3.3795,space,1.7205,0,160,160,131,1,,,5f62578ad6e28a29645bf492,61b909699fb9b6d3d05405a5,2021-12-14_22h15.33.425,PRaM,2021.2.3,Win32,59.84440455,61b8f3437b89212fae0dfadf
,,space,40.1624,0,161,161,108,1,,,5f62578ad6e28a29645bf492,61b909699fb9b6d3d05405a5,2021-12-14_22h15.33.425,PRaM,2021.2.3,Win32,59.84440455,61b8f3437b89212fae0dfadf
8,5.7981,space,4.3569,0,162,162,47,1,,,5f62578ad6e28a29645bf492,61b909699fb9b6d3d05405a5,2021-12-14_22h15.33.425,PRaM,2021.2.3,Win32,59.84440455,61b8f3437b89212fae0dfadf
3,2.9487,space,1.2914,0,163,163,195,1,,,5f62578ad6e28a29645bf492,61b909699fb9b6d3d05405a5,2021-12-14_22h15.33.425,PRaM,2021.2.3,Win32,59.84440455,61b8f3437b89212fae0dfadf
3,0.9411,space,0.6873,0,164,164,81,1,,,5f62578ad6e28a29645bf492,61b909699fb9b6d3d05405a5,2021-12-14_22h15.33.425,PRaM,2021.2.3,Win32,59.84440455,61b8f3437b89212fae0dfadf
3,2.6136,space,0.9602,0,165,165,157,1,,,5f62578ad6e28a29645bf492,61b909699fb9b6d3d05405a5,2021-12-14_22h15.33.425,PRaM,2021.2.3,Win32,59.84440455,61b8f3437b89212fae0dfadf
3,3.9492,space,3.2397,0,166,166,332,1,,,5f62578ad6e28a29645bf492,61b909699fb9b6d3d05405a5,2021-12-14_22h15.33.425,PRaM,2021.2.3,Win32,59.84440455,61b8f3437b89212fae0dfadf
4,4.3734,space,2.6973,0,167,167,269,1,,,5f62578ad6e28a29645bf492,61b909699fb9b6d3d05405a5,2021-12-14_22h15.33.425,PRaM,2021.2.3,Win32,59.84440455,61b8f3437b89212fae0dfadf
2,3.175,space,1.4706,0,168,168,372,1,,,5f62578ad6e28a29645bf492,61b909699fb9b6d3d05405a5,2021-12-14_22h15.33.425,PRaM,2021.2.3,Win32,59.84440455,61b8f3437b89212fae0dfadf
2,3.0914,space,1.4089,0,169,169,95,1,,,5f62578ad6e28a29645bf492,61b909699fb9b6d3d05405a5,2021-12-14_22h15.33.425,PRaM,2021.2.3,Win32,59.84440455,61b8f3437b89212fae0dfadf
2,1.1221,space,0.7412,0,170,170,152,1,,,5f62578ad6e28a29645bf492,61b909699fb9b6d3d05405a5,2021-12-14_22h15.33.425,PRaM,2021.2.3,Win32,59.84440455,61b8f3437b89212fae0dfadf
8,3.0575,space,1.3919,0,171,171,334,1,,,5f62578ad6e28a29645bf492,61b909699fb9b6d3d05405a5,2021-12-14_22h15.33.425,PRaM,2021.2.3,Win32,59.84440455,61b8f3437b89212fae0dfadf
3,2.5278,space,0.8025,0,172,172,343,1,,,5f62578ad6e28a29645bf492,61b909699fb9b6d3d05405a5,2021-12-14_22h15.33.425,PRaM,2021.2.3,Win32,59.84440455,61b8f3437b89212fae0dfadf
8,3.6084,space,1.8694,0,173,173,110,1,,,5f62578ad6e28a29645bf492,61b909699fb9b6d3d05405a5,2021-12-14_22h15.33.425,PRaM,2021.2.3,Win32,59.84440455,61b8f3437b89212fae0dfadf
7,4.2149,space,2.3789,0,174,174,64,1,,,5f62578ad6e28a29645bf492,61b909699fb9b6d3d05405a5,2021-12-14_22h15.33.425,PRaM,2021.2.3,Win32,59.84440455,61b8f3437b89212fae0dfadf
8,3.1141,space,1.5259,0,175,175,0,1,,,5f62578ad6e28a29645bf492,61b909699fb9b6d3d05405a5,2021-12-14_22h15.33.425,PRaM,2021.2.3,Win32,59.84440455,61b8f3437b89212fae0dfadf
8,2.1584,space,0.4705,0,176,176,19,1,,,5f62578ad6e28a29645bf492,61b909699fb9b6d3d05405a5,2021-12-14_22h15.33.425,PRaM,2021.2.3,Win32,59.84440455,61b8f3437b89212fae0dfadf
3,2.3101,space,0.5684,0,177,177,9,1,,,5f62578ad6e28a29645bf492,61b909699fb9b6d3d05405a5,2021-12-14_22h15.33.425,PRaM,2021.2.3,Win32,59.84440455,61b8f3437b89212fae0dfadf
7,2.7923,space,0.9854,0,178,178,14,1,,,5f62578ad6e28a29645bf492,61b909699fb9b6d3d05405a5,2021-12-14_22h15.33.425,PRaM,2021.2.3,Win32,59.84440455,61b8f3437b89212fae0dfadf
3,2.5139,space,3.6919,0,179,179,299,1,,,5f62578ad6e28a29645bf492,61b909699fb9b6d3d05405a5,2021-12-14_22h15.33.425,PRaM,2021.2.3,Win32,59.84440455,61b8f3437b89212fae0dfadf
8,4.736,space,3.131,0,180,180,186,1,,,5f62578ad6e28a29645bf492,61b909699fb9b6d3d05405a5,2021-12-14_22h15.33.425,PRaM,2021.2.3,Win32,59.84440455,61b8f3437b89212fae0dfadf
2,4.4272,space,3.4545,0,181,181,65,1,,,5f62578ad6e28a29645bf492,61b909699fb9b6d3d05405a5,2021-12-14_22h15.33.425,PRaM,2021.2.3,Win32,59.84440455,61b8f3437b89212fae0dfadf
7,2.6392,space,0.9671,0,182,182,351,1,,,5f62578ad6e28a29645bf492,61b909699fb9b6d3d05405a5,2021-12-14_22h15.33.425,PRaM,2021.2.3,Win32,59.84440455,61b8f3437b89212fae0dfadf
2,41.4637,space,39.8298,0,183,183,345,1,,,5f62578ad6e28a29645bf492,61b909699fb9b6d3d05405a5,2021-12-14_22h15.33.425,PRaM,2021.2.3,Win32,59.84440455,61b8f3437b89212fae0dfadf
2,2.573,space,0.7853,0,184,184,20,1,,,5f62578ad6e28a29645bf492,61b909699fb9b6d3d05405a5,2021-12-14_22h15.33.425,PRaM,2021.2.3,Win32,59.84440455,61b8f3437b89212fae0dfadf
3,1.9069,space,0.2997,0,185,185,173,1,,,5f62578ad6e28a29645bf492,61b909699fb9b6d3d05405a5,2021-12-14_22h15.33.425,PRaM,2021.2.3,Win32,59.84440455,61b8f3437b89212fae0dfadf
2,1.8925,space,0.2039,0,186,186,221,1,,,5f62578ad6e28a29645bf492,61b909699fb9b6d3d05405a5,2021-12-14_22h15.33.425,PRaM,2021.2.3,Win32,59.84440455,61b8f3437b89212fae0dfadf
6,4.5175,space,2.838,0,187,187,207,1,,,5f62578ad6e28a29645bf492,61b909699fb9b6d3d05405a5,2021-12-14_22h15.33.425,PRaM,2021.2.3,Win32,59.84440455,61b8f3437b89212fae0dfadf
7,3.21,space,3.4751,0,188,188,295,1,,,5f62578ad6e28a29645bf492,61b909699fb9b6d3d05405a5,2021-12-14_22h15.33.425,PRaM,2021.2.3,Win32,59.84440455,61b8f3437b89212fae0dfadf
8,2.8262,space,1.1199,0,189,189,301,1,,,5f62578ad6e28a29645bf492,61b909699fb9b6d3d05405a5,2021-12-14_22h15.33.425,PRaM,2021.2.3,Win32,59.84440455,61b8f3437b89212fae0dfadf
6,7.6077,space,6.0092,0,190,190,160,1,,,5f62578ad6e28a29645bf492,61b909699fb9b6d3d05405a5,2021-12-14_22h15.33.425,PRaM,2021.2.3,Win32,59.84440455,61b8f3437b89212fae0dfadf
4,3.3008,space,1.6213,0,191,191,67,1,,,5f62578ad6e28a29645bf492,61b909699fb9b6d3d05405a5,2021-12-14_22h15.33.425,PRaM,2021.2.3,Win32,59.84440455,61b8f3437b89212fae0dfadf
5,2.4795,space,0.761,0,192,192,354,1,,,5f62578ad6e28a29645bf492,61b909699fb9b6d3d05405a5,2021-12-14_22h15.33.425,PRaM,2021.2.3,Win32,59.84440455,61b8f3437b89212fae0dfadf
6,2.6692,space,1.0358,0,193,193,71,1,,,5f62578ad6e28a29645bf492,61b909699fb9b6d3d05405a5,2021-12-14_22h15.33.425,PRaM,2021.2.3,Win32,59.84440455,61b8f3437b89212fae0dfadf
4,18.5521,space,16.9236,0,194,194,315,1,,,5f62578ad6e28a29645bf492,61b909699fb9b6d3d05405a5,2021-12-14_22h15.33.425,PRaM,2021.2.3,Win32,59.84440455,61b8f3437b89212fae0dfadf
4,2.1335,space,0.5857,0,195,195,201,1,,,5f62578ad6e28a29645bf492,61b909699fb9b6d3d05405a5,2021-12-14_22h15.33.425,PRaM,2021.2.3,Win32,59.84440455,61b8f3437b89212fae0dfadf
6,3.8024,space,2.1025,0,196,196,352,1,,,5f62578ad6e28a29645bf492,61b909699fb9b6d3d05405a5,2021-12-14_22h15.33.425,PRaM,2021.2.3,Win32,59.84440455,61b8f3437b89212fae0dfadf
8,2.7734,space,1.1195,0,197,197,335,1,,,5f62578ad6e28a29645bf492,61b909699fb9b6d3d05405a5,2021-12-14_22h15.33.425,PRaM,2021.2.3,Win32,59.84440455,61b8f3437b89212fae0dfadf
6,4.14,space,2.4569,0,198,198,22,1,,,5f62578ad6e28a29645bf492,61b909699fb9b6d3d05405a5,2021-12-14_22h15.33.425,PRaM,2021.2.3,Win32,59.84440455,61b8f3437b89212fae0dfadf
6,1.5242,space,1.2362,0,199,199,270,1,,,5f62578ad6e28a29645bf492,61b909699fb9b6d3d05405a5,2021-12-14_22h15.33.425,PRaM,2021.2.3,Win32,59.84440455,61b8f3437b89212fae0dfadf
8,2.2717,space,0.3367,0,200,200,194,1,,,5f62578ad6e28a29645bf492,61b909699fb9b6d3d05405a5,2021-12-14_22h15.33.425,PRaM,2021.2.3,Win32,59.84440455,61b8f3437b89212fae0dfadf
8,2.1965,space,0.3846,0,201,201,168,1,,,5f62578ad6e28a29645bf492,61b909699fb9b6d3d05405a5,2021-12-14_22h15.33.425,PRaM,2021.2.3,Win32,59.84440455,61b8f3437b89212fae0dfadf
3,2.3394,space,0.6884,0,202,202,82,1,,,5f62578ad6e28a29645bf492,61b909699fb9b6d3d05405a5,2021-12-14_22h15.33.425,PRaM,2021.2.3,Win32,59.84440455,61b8f3437b89212fae0dfadf
4,3.1994,space,1.4666,0,203,203,238,1,,,5f62578ad6e28a29645bf492,61b909699fb9b6d3d05405a5,2021-12-14_22h15.33.425,PRaM,2021.2.3,Win32,59.84440455,61b8f3437b89212fae0dfadf
4,5.6864,space,3.9889,0,204,204,215,1,,,5f62578ad6e28a29645bf492,61b909699fb9b6d3d05405a5,2021-12-14_22h15.33.425,PRaM,2021.2.3,Win32,59.84440455,61b8f3437b89212fae0dfadf
4,1.2471,space,0.2396,0,205,205,18,1,,,5f62578ad6e28a29645bf492,61b909699fb9b6d3d05405a5,2021-12-14_22h15.33.425,PRaM,2021.2.3,Win32,59.84440455,61b8f3437b89212fae0dfadf
3,2.3145,space,0.636,0,206,206,155,1,,,5f62578ad6e28a29645bf492,61b909699fb9b6d3d05405a5,2021-12-14_22h15.33.425,PRaM,2021.2.3,Win32,59.84440455,61b8f3437b89212fae0dfadf
6,4.5346,space,2.8581,0,207,207,75,1,,,5f62578ad6e28a29645bf492,61b909699fb9b6d3d05405a5,2021-12-14_22h15.33.425,PRaM,2021.2.3,Win32,59.84440455,61b8f3437b89212fae0dfadf
6,1.6139,space,0.1857,0,208,208,26,1,,,5f62578ad6e28a29645bf492,61b909699fb9b6d3d05405a5,2021-12-14_22h15.33.425,PRaM,2021.2.3,Win32,59.84440455,61b8f3437b89212fae0dfadf
7,0.9056,space,0.2971,0,209,209,206,1,,,5f62578ad6e28a29645bf492,61b909699fb9b6d3d05405a5,2021-12-14_22h15.33.425,PRaM,2021.2.3,Win32,59.84440455,61b8f3437b89212fae0dfadf
5,1.922,space,0.3523,0,210,210,322,1,,,5f62578ad6e28a29645bf492,61b909699fb9b6d3d05405a5,2021-12-14_22h15.33.425,PRaM,2021.2.3,Win32,59.84440455,61b8f3437b89212fae0dfadf
6,2.0227,space,0.376,0,211,211,211,1,,,5f62578ad6e28a29645bf492,61b909699fb9b6d3d05405a5,2021-12-14_22h15.33.425,PRaM,2021.2.3,Win32,59.84440455,61b8f3437b89212fae0dfadf
6,1.2201,space,0.0349,0,212,212,297,1,,,5f62578ad6e28a29645bf492,61b909699fb9b6d3d05405a5,2021-12-14_22h15.33.425,PRaM,2021.2.3,Win32,59.84440455,61b8f3437b89212fae0dfadf
3,2.6283,space,1.0371,0,213,213,171,1,,,5f62578ad6e28a29645bf492,61b909699fb9b6d3d05405a5,2021-12-14_22h15.33.425,PRaM,2021.2.3,Win32,59.84440455,61b8f3437b89212fae0dfadf
5,1.8769,space,0.4222,0,214,214,362,1,,,5f62578ad6e28a29645bf492,61b909699fb9b6d3d05405a5,2021-12-14_22h15.33.425,PRaM,2021.2.3,Win32,59.84440455,61b8f3437b89212fae0dfadf
6,3.667,space,2.1883,0,215,215,139,1,,,5f62578ad6e28a29645bf492,61b909699fb9b6d3d05405a5,2021-12-14_22h15.33.425,PRaM,2021.2.3,Win32,59.84440455,61b8f3437b89212fae0dfadf
5,2.6265,space,1.0723,0,216,216,101,1,,,5f62578ad6e28a29645bf492,61b909699fb9b6d3d05405a5,2021-12-14_22h15.33.425,PRaM,2021.2.3,Win32,59.84440455,61b8f3437b89212fae0dfadf
5,7.5476,space,5.7339,0,217,217,223,1,,,5f62578ad6e28a29645bf492,61b909699fb9b6d3d05405a5,2021-12-14_22h15.33.425,PRaM,2021.2.3,Win32,59.84440455,61b8f3437b89212fae0dfadf
5,0.9098,space,0.3865,0,218,218,151,1,,,5f62578ad6e28a29645bf492,61b909699fb9b6d3d05405a5,2021-12-14_22h15.33.425,PRaM,2021.2.3,Win32,59.84440455,61b8f3437b89212fae0dfadf
4,1.0584,space,0.0286,0,219,219,183,1,,,5f62578ad6e28a29645bf492,61b909699fb9b6d3d05405a5,2021-12-14_22h15.33.425,PRaM,2021.2.3,Win32,59.84440455,61b8f3437b89212fae0dfadf
6,2.0899,space,1.459,0,220,220,225,1,,,5f62578ad6e28a29645bf492,61b909699fb9b6d3d05405a5,2021-12-14_22h15.33.425,PRaM,2021.2.3,Win32,59.84440455,61b8f3437b89212fae0dfadf
4,1.2887,space,0.4851,0,221,221,61,1,,,5f62578ad6e28a29645bf492,61b909699fb9b6d3d05405a5,2021-12-14_22h15.33.425,PRaM,2021.2.3,Win32,59.84440455,61b8f3437b89212fae0dfadf
3,1.6107,space,0.1843,0,222,222,227,1,,,5f62578ad6e28a29645bf492,61b909699fb9b6d3d05405a5,2021-12-14_22h15.33.425,PRaM,2021.2.3,Win32,59.84440455,61b8f3437b89212fae0dfadf
5,1.2624,space,0.6032,0,223,223,282,1,,,5f62578ad6e28a29645bf492,61b909699fb9b6d3d05405a5,2021-12-14_22h15.33.425,PRaM,2021.2.3,Win32,59.84440455,61b8f3437b89212fae0dfadf
4,1.076,space,0.0428,0,224,224,184,1,,,5f62578ad6e28a29645bf492,61b909699fb9b6d3d05405a5,2021-12-14_22h15.33.425,PRaM,2021.2.3,Win32,59.84440455,61b8f3437b89212fae0dfadf
4,1.5752,space,0.018,0,225,225,287,1,,,5f62578ad6e28a29645bf492,61b909699fb9b6d3d05405a5,2021-12-14_22h15.33.425,PRaM,2021.2.3,Win32,59.84440455,61b8f3437b89212fae0dfadf
,,space,51.166,0,226,226,178,1,,,5f62578ad6e28a29645bf492,61b909699fb9b6d3d05405a5,2021-12-14_22h15.33.425,PRaM,2021.2.3,Win32,59.84440455,61b8f3437b89212fae0dfadf
5,1.4731,space,0.0587,0,227,227,102,1,,,5f62578ad6e28a29645bf492,61b909699fb9b6d3d05405a5,2021-12-14_22h15.33.425,PRaM,2021.2.3,Win32,59.84440455,61b8f3437b89212fae0dfadf
6,1.9574,space,0.2956,0,228,228,200,1,,,5f62578ad6e28a29645bf492,61b909699fb9b6d3d05405a5,2021-12-14_22h15.33.425,PRaM,2021.2.3,Win32,59.84440455,61b8f3437b89212fae0dfadf
5,0.8934,space,0.0705,0,229,229,370,1,,,5f62578ad6e28a29645bf492,61b909699fb9b6d3d05405a5,2021-12-14_22h15.33.425,PRaM,2021.2.3,Win32,59.84440455,61b8f3437b89212fae0dfadf
5,1.2955,space,0.0418,0,230,230,267,1,,,5f62578ad6e28a29645bf492,61b909699fb9b6d3d05405a5,2021-12-14_22h15.33.425,PRaM,2021.2.3,Win32,59.84440455,61b8f3437b89212fae0dfadf
5,0.9958,space,0.0219,0,231,231,5,1,,,5f62578ad6e28a29645bf492,61b909699fb9b6d3d05405a5,2021-12-14_22h15.33.425,PRaM,2021.2.3,Win32,59.84440455,61b8f3437b89212fae0dfadf
5,1.4384,space,0.4185,0,232,232,16,1,,,5f62578ad6e28a29645bf492,61b909699fb9b6d3d05405a5,2021-12-14_22h15.33.425,PRaM,2021.2.3,Win32,59.84440455,61b8f3437b89212fae0dfadf
4,1.6748,space,0.4065,0,233,233,76,1,,,5f62578ad6e28a29645bf492,61b909699fb9b6d3d05405a5,2021-12-14_22h15.33.425,PRaM,2021.2.3,Win32,59.84440455,61b8f3437b89212fae0dfadf
4,1.4078,space,0.0849,0,234,234,2,1,,,5f62578ad6e28a29645bf492,61b909699fb9b6d3d05405a5,2021-12-14_22h15.33.425,PRaM,2021.2.3,Win32,59.84440455,61b8f3437b89212fae0dfadf
4,1.0265,space,0.0919,0,235,235,34,1,,,5f62578ad6e28a29645bf492,61b909699fb9b6d3d05405a5,2021-12-14_22h15.33.425,PRaM,2021.2.3,Win32,59.84440455,61b8f3437b89212fae0dfadf
4,0.9233,space,0.9355,0,236,236,220,1,,,5f62578ad6e28a29645bf492,61b909699fb9b6d3d05405a5,2021-12-14_22h15.33.425,PRaM,2021.2.3,Win32,59.84440455,61b8f3437b89212fae0dfadf
4,0.8737,space,0.4362,0,237,237,222,1,,,5f62578ad6e28a29645bf492,61b909699fb9b6d3d05405a5,2021-12-14_22h15.33.425,PRaM,2021.2.3,Win32,59.84440455,61b8f3437b89212fae0dfadf
4,0.957,space,0.2075,0,238,238,252,1,,,5f62578ad6e28a29645bf492,61b909699fb9b6d3d05405a5,2021-12-14_22h15.33.425,PRaM,2021.2.3,Win32,59.84440455,61b8f3437b89212fae0dfadf
4,2.466,space,1.436,0,239,239,284,1,,,5f62578ad6e28a29645bf492,61b909699fb9b6d3d05405a5,2021-12-14_22h15.33.425,PRaM,2021.2.3,Win32,59.84440455,61b8f3437b89212fae0dfadf
7,4.1826,space,2.5287,0,240,240,7,1,,,5f62578ad6e28a29645bf492,61b909699fb9b6d3d05405a5,2021-12-14_22h15.33.425,PRaM,2021.2.3,Win32,59.84440455,61b8f3437b89212fae0dfadf
6,1.9757,space,0.5884,0,241,241,85,1,,,5f62578ad6e28a29645bf492,61b909699fb9b6d3d05405a5,2021-12-14_22h15.33.425,PRaM,2021.2.3,Win32,59.84440455,61b8f3437b89212fae0dfadf
8,2.0291,space,0.4051,0,242,242,31,1,,,5f62578ad6e28a29645bf492,61b909699fb9b6d3d05405a5,2021-12-14_22h15.33.425,PRaM,2021.2.3,Win32,59.84440455,61b8f3437b89212fae0dfadf
7,2.6591,space,0.9852,0,243,243,371,1,,,5f62578ad6e28a29645bf492,61b909699fb9b6d3d05405a5,2021-12-14_22h15.33.425,PRaM,2021.2.3,Win32,59.84440455,61b8f3437b89212fae0dfadf
8,2.4075,space,0.7391,0,244,244,358,1,,,5f62578ad6e28a29645bf492,61b909699fb9b6d3d05405a5,2021-12-14_22h15.33.425,PRaM,2021.2.3,Win32,59.84440455,61b8f3437b89212fae0dfadf
7,1.4297,space,0.2871,0,245,245,316,1,,,5f62578ad6e28a29645bf492,61b909699fb9b6d3d05405a5,2021-12-14_22h15.33.425,PRaM,2021.2.3,Win32,59.84440455,61b8f3437b89212fae0dfadf
2,10.9784,space,9.7462,0,246,246,158,1,,,5f62578ad6e28a29645bf492,61b909699fb9b6d3d05405a5,2021-12-14_22h15.33.425,PRaM,2021.2.3,Win32,59.84440455,61b8f3437b89212fae0dfadf
2,0.78,space,0.6266,0,247,247,242,1,,,5f62578ad6e28a29645bf492,61b909699fb9b6d3d05405a5,2021-12-14_22h15.33.425,PRaM,2021.2.3,Win32,59.84440455,61b8f3437b89212fae0dfadf
7,4.7692,space,3.1523,0,248,248,42,1,,,5f62578ad6e28a29645bf492,61b909699fb9b6d3d05405a5,2021-12-14_22h15.33.425,PRaM,2021.2.3,Win32,59.84440455,61b8f3437b89212fae0dfadf
8,1.4441,space,0.3593,0,249,249,154,1,,,5f62578ad6e28a29645bf492,61b909699fb9b6d3d05405a5,2021-12-14_22h15.33.425,PRaM,2021.2.3,Win32,59.84440455,61b8f3437b89212fae0dfadf
4,2.6997,space,1.0686,0,250,250,248,1,,,5f62578ad6e28a29645bf492,61b909699fb9b6d3d05405a5,2021-12-14_22h15.33.425,PRaM,2021.2.3,Win32,59.84440455,61b8f3437b89212fae0dfadf
3,3.0125,space,1.45,0,251,251,148,1,,,5f62578ad6e28a29645bf492,61b909699fb9b6d3d05405a5,2021-12-14_22h15.33.425,PRaM,2021.2.3,Win32,59.84440455,61b8f3437b89212fae0dfadf
7,2.7361,space,1.1021,0,252,252,199,1,,,5f62578ad6e28a29645bf492,61b909699fb9b6d3d05405a5,2021-12-14_22h15.33.425,PRaM,2021.2.3,Win32,59.84440455,61b8f3437b89212fae0dfadf
6,3.1423,space,1.4838,0,253,253,216,1,,,5f62578ad6e28a29645bf492,61b909699fb9b6d3d05405a5,2021-12-14_22h15.33.425,PRaM,2021.2.3,Win32,59.84440455,61b8f3437b89212fae0dfadf
6,2.6076,space,0.9174,0,254,254,53,1,,,5f62578ad6e28a29645bf492,61b909699fb9b6d3d05405a5,2021-12-14_22h15.33.425,PRaM,2021.2.3,Win32,59.84440455,61b8f3437b89212fae0dfadf
5,2.5983,space,0.8557,0,255,255,311,1,,,5f62578ad6e28a29645bf492,61b909699fb9b6d3d05405a5,2021-12-14_22h15.33.425,PRaM,2021.2.3,Win32,59.84440455,61b8f3437b89212fae0dfadf
3,2.1344,space,0.4554,0,256,256,135,1,,,5f62578ad6e28a29645bf492,61b909699fb9b6d3d05405a5,2021-12-14_22h15.33.425,PRaM,2021.2.3,Win32,59.84440455,61b8f3437b89212fae0dfadf
7,3.2972,space,1.6289,0,257,257,331,1,,,5f62578ad6e28a29645bf492,61b909699fb9b6d3d05405a5,2021-12-14_22h15.33.425,PRaM,2021.2.3,Win32,59.84440455,61b8f3437b89212fae0dfadf
7,2.3912,space,1.0557,0,258,258,373,1,,,5f62578ad6e28a29645bf492,61b909699fb9b6d3d05405a5,2021-12-14_22h15.33.425,PRaM,2021.2.3,Win32,59.84440455,61b8f3437b89212fae0dfadf
3,3.926,space,2.2721,0,259,259,204,1,,,5f62578ad6e28a29645bf492,61b909699fb9b6d3d05405a5,2021-12-14_22h15.33.425,PRaM,2021.2.3,Win32,59.84440455,61b8f3437b89212fae0dfadf
4,19.9366,space,18.3735,0,260,260,74,1,,,5f62578ad6e28a29645bf492,61b909699fb9b6d3d05405a5,2021-12-14_22h15.33.425,PRaM,2021.2.3,Win32,59.84440455,61b8f3437b89212fae0dfadf
4,1.3912,space,0.2095,0,261,261,353,1,,,5f62578ad6e28a29645bf492,61b909699fb9b6d3d05405a5,2021-12-14_22h15.33.425,PRaM,2021.2.3,Win32,59.84440455,61b8f3437b89212fae0dfadf
3,2.4133,space,0.7741,0,262,262,253,1,,,5f62578ad6e28a29645bf492,61b909699fb9b6d3d05405a5,2021-12-14_22h15.33.425,PRaM,2021.2.3,Win32,59.84440455,61b8f3437b89212fae0dfadf
3,1.8254,space,0.2021,0,263,263,339,1,,,5f62578ad6e28a29645bf492,61b909699fb9b6d3d05405a5,2021-12-14_22h15.33.425,PRaM,2021.2.3,Win32,59.84440455,61b8f3437b89212fae0dfadf
7,2.6382,space,0.9829,0,264,264,328,1,,,5f62578ad6e28a29645bf492,61b909699fb9b6d3d05405a5,2021-12-14_22h15.33.425,PRaM,2021.2.3,Win32,59.84440455,61b8f3437b89212fae0dfadf
4,4.2518,space,2.9975,0,265,265,143,1,,,5f62578ad6e28a29645bf492,61b909699fb9b6d3d05405a5,2021-12-14_22h15.33.425,PRaM,2021.2.3,Win32,59.84440455,61b8f3437b89212fae0dfadf
2,2.2042,space,0.5366,0,266,266,103,1,,,5f62578ad6e28a29645bf492,61b909699fb9b6d3d05405a5,2021-12-14_22h15.33.425,PRaM,2021.2.3,Win32,59.84440455,61b8f3437b89212fae0dfadf
1,3.934,space,2.2462,0,267,267,63,1,,,5f62578ad6e28a29645bf492,61b909699fb9b6d3d05405a5,2021-12-14_22h15.33.425,PRaM,2021.2.3,Win32,59.84440455,61b8f3437b89212fae0dfadf
1,2.4276,space,0.8383,0,268,268,72,1,,,5f62578ad6e28a29645bf492,61b909699fb9b6d3d05405a5,2021-12-14_22h15.33.425,PRaM,2021.2.3,Win32,59.84440455,61b8f3437b89212fae0dfadf
7,3.0881,space,1.3739,0,269,269,228,1,,,5f62578ad6e28a29645bf492,61b909699fb9b6d3d05405a5,2021-12-14_22h15.33.425,PRaM,2021.2.3,Win32,59.84440455,61b8f3437b89212fae0dfadf
2,2.5746,space,0.9095,0,270,270,107,1,,,5f62578ad6e28a29645bf492,61b909699fb9b6d3d05405a5,2021-12-14_22h15.33.425,PRaM,2021.2.3,Win32,59.84440455,61b8f3437b89212fae0dfadf
2,2.5405,space,0.8443,0,271,271,300,1,,,5f62578ad6e28a29645bf492,61b909699fb9b6d3d05405a5,2021-12-14_22h15.33.425,PRaM,2021.2.3,Win32,59.84440455,61b8f3437b89212fae0dfadf
6,3.6492,space,1.9748,0,272,272,202,1,,,5f62578ad6e28a29645bf492,61b909699fb9b6d3d05405a5,2021-12-14_22h15.33.425,PRaM,2021.2.3,Win32,59.84440455,61b8f3437b89212fae0dfadf
2,5.2909,space,4.1247,0,273,273,189,1,,,5f62578ad6e28a29645bf492,61b909699fb9b6d3d05405a5,2021-12-14_22h15.33.425,PRaM,2021.2.3,Win32,59.84440455,61b8f3437b89212fae0dfadf
2,1.0599,space,14.9746,0,274,274,146,1,,,5f62578ad6e28a29645bf492,61b909699fb9b6d3d05405a5,2021-12-14_22h15.33.425,PRaM,2021.2.3,Win32,59.84440455,61b8f3437b89212fae0dfadf
2,2.7597,space,1.1357,0,275,275,78,1,,,5f62578ad6e28a29645bf492,61b909699fb9b6d3d05405a5,2021-12-14_22h15.33.425,PRaM,2021.2.3,Win32,59.84440455,61b8f3437b89212fae0dfadf
4,2.5752,space,0.9347,0,276,276,357,1,,,5f62578ad6e28a29645bf492,61b909699fb9b6d3d05405a5,2021-12-14_22h15.33.425,PRaM,2021.2.3,Win32,59.84440455,61b8f3437b89212fae0dfadf
4,7.3037,space,6.3699,0,277,277,363,1,,,5f62578ad6e28a29645bf492,61b909699fb9b6d3d05405a5,2021-12-14_22h15.33.425,PRaM,2021.2.3,Win32,59.84440455,61b8f3437b89212fae0dfadf
4,4.3497,space,2.7281,0,278,278,37,1,,,5f62578ad6e28a29645bf492,61b909699fb9b6d3d05405a5,2021-12-14_22h15.33.425,PRaM,2021.2.3,Win32,59.84440455,61b8f3437b89212fae0dfadf
4,4.8195,space,4.9892,0,279,279,289,1,,,5f62578ad6e28a29645bf492,61b909699fb9b6d3d05405a5,2021-12-14_22h15.33.425,PRaM,2021.2.3,Win32,59.84440455,61b8f3437b89212fae0dfadf
4,0.9084,space,0.1254,0,280,280,298,1,,,5f62578ad6e28a29645bf492,61b909699fb9b6d3d05405a5,2021-12-14_22h15.33.425,PRaM,2021.2.3,Win32,59.84440455,61b8f3437b89212fae0dfadf
4,104.181,space,103.1015,0,281,281,80,1,,,5f62578ad6e28a29645bf492,61b909699fb9b6d3d05405a5,2021-12-14_22h15.33.425,PRaM,2021.2.3,Win32,59.84440455,61b8f3437b89212fae0dfadf
2,4.4079,space,2.7781,0,282,282,129,1,,,5f62578ad6e28a29645bf492,61b909699fb9b6d3d05405a5,2021-12-14_22h15.33.425,PRaM,2021.2.3,Win32,59.84440455,61b8f3437b89212fae0dfadf
8,3.1626,space,1.5685,0,283,283,136,1,,,5f62578ad6e28a29645bf492,61b909699fb9b6d3d05405a5,2021-12-14_22h15.33.425,PRaM,2021.2.3,Win32,59.84440455,61b8f3437b89212fae0dfadf
3,1.8651,space,0.2888,0,284,284,39,1,,,5f62578ad6e28a29645bf492,61b909699fb9b6d3d05405a5,2021-12-14_22h15.33.425,PRaM,2021.2.3,Win32,59.84440455,61b8f3437b89212fae0dfadf
3,1.4897,space,0.8031,0,285,285,100,1,,,5f62578ad6e28a29645bf492,61b909699fb9b6d3d05405a5,2021-12-14_22h15.33.425,PRaM,2021.2.3,Win32,59.84440455,61b8f3437b89212fae0dfadf
2,4.0855,space,2.462,0,286,286,24,1,,,5f62578ad6e28a29645bf492,61b909699fb9b6d3d05405a5,2021-12-14_22h15.33.425,PRaM,2021.2.3,Win32,59.84440455,61b8f3437b89212fae0dfadf
2,1.3671,space,0.3766,0,287,287,50,1,,,5f62578ad6e28a29645bf492,61b909699fb9b6d3d05405a5,2021-12-14_22h15.33.425,PRaM,2021.2.3,Win32,59.84440455,61b8f3437b89212fae0dfadf
1,2.4547,space,0.7207,0,288,288,376,1,,,5f62578ad6e28a29645bf492,61b909699fb9b6d3d05405a5,2021-12-14_22h15.33.425,PRaM,2021.2.3,Win32,59.84440455,61b8f3437b89212fae0dfadf
1,1.8581,space,0.2023,0,289,289,116,1,,,5f62578ad6e28a29645bf492,61b909699fb9b6d3d05405a5,2021-12-14_22h15.33.425,PRaM,2021.2.3,Win32,59.84440455,61b8f3437b89212fae0dfadf
6,2.6414,space,1.0515,0,290,290,304,1,,,5f62578ad6e28a29645bf492,61b909699fb9b6d3d05405a5,2021-12-14_22h15.33.425,PRaM,2021.2.3,Win32,59.84440455,61b8f3437b89212fae0dfadf
4,2.4353,space,0.7797,0,291,291,174,1,,,5f62578ad6e28a29645bf492,61b909699fb9b6d3d05405a5,2021-12-14_22h15.33.425,PRaM,2021.2.3,Win32,59.84440455,61b8f3437b89212fae0dfadf
5,2.4234,space,0.6784,0,292,292,348,1,,,5f62578ad6e28a29645bf492,61b909699fb9b6d3d05405a5,2021-12-14_22h15.33.425,PRaM,2021.2.3,Win32,59.84440455,61b8f3437b89212fae0dfadf
2,1.9227,space,0.2681,0,293,293,233,1,,,5f62578ad6e28a29645bf492,61b909699fb9b6d3d05405a5,2021-12-14_22h15.33.425,PRaM,2021.2.3,Win32,59.84440455,61b8f3437b89212fae0dfadf
6,3.2725,space,1.6338,0,294,294,208,1,,,5f62578ad6e28a29645bf492,61b909699fb9b6d3d05405a5,2021-12-14_22h15.33.425,PRaM,2021.2.3,Win32,59.84440455,61b8f3437b89212fae0dfadf
7,2.7072,space,1.0444,0,295,295,51,1,,,5f62578ad6e28a29645bf492,61b909699fb9b6d3d05405a5,2021-12-14_22h15.33.425,PRaM,2021.2.3,Win32,59.84440455,61b8f3437b89212fae0dfadf
6,0.9065,space,0.4176,0,296,296,281,1,,,5f62578ad6e28a29645bf492,61b909699fb9b6d3d05405a5,2021-12-14_22h15.33.425,PRaM,2021.2.3,Win32,59.84440455,61b8f3437b89212fae0dfadf
7,0.9844,space,1.2088,0,297,297,275,1,,,5f62578ad6e28a29645bf492,61b909699fb9b6d3d05405a5,2021-12-14_22h15.33.425,PRaM,2021.2.3,Win32,59.84440455,61b8f3437b89212fae0dfadf
4,2.8962,space,1.3037,0,298,298,172,1,,,5f62578ad6e28a29645bf492,61b909699fb9b6d3d05405a5,2021-12-14_22h15.33.425,PRaM,2021.2.3,Win32,59.84440455,61b8f3437b89212fae0dfadf
4,1.1722,space,0.8044,0,299,299,44,1,,,5f62578ad6e28a29645bf492,61b909699fb9b6d3d05405a5,2021-12-14_22h15.33.425,PRaM,2021.2.3,Win32,59.84440455,61b8f3437b89212fae0dfadf
6,1.1099,space,0.2717,0,300,300,249,1,,,5f62578ad6e28a29645bf492,61b909699fb9b6d3d05405a5,2021-12-14_22h15.33.425,PRaM,2021.2.3,Win32,59.84440455,61b8f3437b89212fae0dfadf
5,1.2319,space,0.2411,0,301,301,181,1,,,5f62578ad6e28a29645bf492,61b909699fb9b6d3d05405a5,2021-12-14_22h15.33.425,PRaM,2021.2.3,Win32,59.84440455,61b8f3437b89212fae0dfadf
3,3.7256,space,2.1092,0,302,302,1,1,,,5f62578ad6e28a29645bf492,61b909699fb9b6d3d05405a5,2021-12-14_22h15.33.425,PRaM,2021.2.3,Win32,59.84440455,61b8f3437b89212fae0dfadf
3,1.3562,space,0.2281,0,303,303,198,1,,,5f62578ad6e28a29645bf492,61b909699fb9b6d3d05405a5,2021-12-14_22h15.33.425,PRaM,2021.2.3,Win32,59.84440455,61b8f3437b89212fae0dfadf
6,2.3743,space,0.7856,0,304,304,341,1,,,5f62578ad6e28a29645bf492,61b909699fb9b6d3d05405a5,2021-12-14_22h15.33.425,PRaM,2021.2.3,Win32,59.84440455,61b8f3437b89212fae0dfadf
3,2.1128,space,0.4432,0,305,305,369,1,,,5f62578ad6e28a29645bf492,61b909699fb9b6d3d05405a5,2021-12-14_22h15.33.425,PRaM,2021.2.3,Win32,59.84440455,61b8f3437b89212fae0dfadf
6,1.8133,space,0.2196,0,306,306,114,1,,,5f62578ad6e28a29645bf492,61b909699fb9b6d3d05405a5,2021-12-14_22h15.33.425,PRaM,2021.2.3,Win32,59.84440455,61b8f3437b89212fae0dfadf
8,3.9269,space,2.3044,0,307,307,197,1,,,5f62578ad6e28a29645bf492,61b909699fb9b6d3d05405a5,2021-12-14_22h15.33.425,PRaM,2021.2.3,Win32,59.84440455,61b8f3437b89212fae0dfadf
7,2.0468,space,0.425,0,308,308,337,1,,,5f62578ad6e28a29645bf492,61b909699fb9b6d3d05405a5,2021-12-14_22h15.33.425,PRaM,2021.2.3,Win32,59.84440455,61b8f3437b89212fae0dfadf
3,2.5405,space,1.017,0,309,309,27,1,,,5f62578ad6e28a29645bf492,61b909699fb9b6d3d05405a5,2021-12-14_22h15.33.425,PRaM,2021.2.3,Win32,59.84440455,61b8f3437b89212fae0dfadf
2,1.7108,space,0.0351,0,310,310,347,1,,,5f62578ad6e28a29645bf492,61b909699fb9b6d3d05405a5,2021-12-14_22h15.33.425,PRaM,2021.2.3,Win32,59.84440455,61b8f3437b89212fae0dfadf
7,2.2749,space,0.6269,0,311,311,137,1,,,5f62578ad6e28a29645bf492,61b909699fb9b6d3d05405a5,2021-12-14_22h15.33.425,PRaM,2021.2.3,Win32,59.84440455,61b8f3437b89212fae0dfadf
6,2.108,space,0.3724,0,312,312,187,1,,,5f62578ad6e28a29645bf492,61b909699fb9b6d3d05405a5,2021-12-14_22h15.33.425,PRaM,2021.2.3,Win32,59.84440455,61b8f3437b89212fae0dfadf
9,1.9556,space,0.3182,0,313,313,276,1,,,5f62578ad6e28a29645bf492,61b909699fb9b6d3d05405a5,2021-12-14_22h15.33.425,PRaM,2021.2.3,Win32,59.84440455,61b8f3437b89212fae0dfadf
9,1.8078,space,1.1096,0,314,314,302,1,,,5f62578ad6e28a29645bf492,61b909699fb9b6d3d05405a5,2021-12-14_22h15.33.425,PRaM,2021.2.3,Win32,59.84440455,61b8f3437b89212fae0dfadf
3,3.3101,space,1.9953,0,315,315,147,1,,,5f62578ad6e28a29645bf492,61b909699fb9b6d3d05405a5,2021-12-14_22h15.33.425,PRaM,2021.2.3,Win32,59.84440455,61b8f3437b89212fae0dfadf
7,2.1966,space,0.7893,0,316,316,92,1,,,5f62578ad6e28a29645bf492,61b909699fb9b6d3d05405a5,2021-12-14_22h15.33.425,PRaM,2021.2.3,Win32,59.84440455,61b8f3437b89212fae0dfadf
5,2.3254,space,0.6519,0,317,317,185,1,,,5f62578ad6e28a29645bf492,61b909699fb9b6d3d05405a5,2021-12-14_22h15.33.425,PRaM,2021.2.3,Win32,59.84440455,61b8f3437b89212fae0dfadf
3,32.7352,space,32.0368,0,318,318,128,1,,,5f62578ad6e28a29645bf492,61b909699fb9b6d3d05405a5,2021-12-14_22h15.33.425,PRaM,2021.2.3,Win32,59.84440455,61b8f3437b89212fae0dfadf
4,1.9413,space,0.359,0,319,319,159,1,,,5f62578ad6e28a29645bf492,61b909699fb9b6d3d05405a5,2021-12-14_22h15.33.425,PRaM,2021.2.3,Win32,59.84440455,61b8f3437b89212fae0dfadf
5,1.8769,space,0.1013,0,320,320,291,1,,,5f62578ad6e28a29645bf492,61b909699fb9b6d3d05405a5,2021-12-14_22h15.33.425,PRaM,2021.2.3,Win32,59.84440455,61b8f3437b89212fae0dfadf
5,1.9258,space,0.1435,0,321,321,338,1,,,5f62578ad6e28a29645bf492,61b909699fb9b6d3d05405a5,2021-12-14_22h15.33.425,PRaM,2021.2.3,Win32,59.84440455,61b8f3437b89212fae0dfadf
9,1.7943,space,0.1263,0,322,322,196,1,,,5f62578ad6e28a29645bf492,61b909699fb9b6d3d05405a5,2021-12-14_22h15.33.425,PRaM,2021.2.3,Win32,59.84440455,61b8f3437b89212fae0dfadf
2,4.0551,space,2.5703,0,323,323,292,1,,,5f62578ad6e28a29645bf492,61b909699fb9b6d3d05405a5,2021-12-14_22h15.33.425,PRaM,2021.2.3,Win32,59.84440455,61b8f3437b89212fae0dfadf
7,2.392,space,0.7948,0,324,324,340,1,,,5f62578ad6e28a29645bf492,61b909699fb9b6d3d05405a5,2021-12-14_22h15.33.425,PRaM,2021.2.3,Win32,59.84440455,61b8f3437b89212fae0dfadf
7,1.5661,space,0.1409,0,325,325,164,1,,,5f62578ad6e28a29645bf492,61b909699fb9b6d3d05405a5,2021-12-14_22h15.33.425,PRaM,2021.2.3,Win32,59.84440455,61b8f3437b89212fae0dfadf
7,3.7644,space,2.1206,0,326,326,142,1,,,5f62578ad6e28a29645bf492,61b909699fb9b6d3d05405a5,2021-12-14_22h15.33.425,PRaM,2021.2.3,Win32,59.84440455,61b8f3437b89212fae0dfadf
3,2.6274,space,0.9515,0,327,327,278,1,,,5f62578ad6e28a29645bf492,61b909699fb9b6d3d05405a5,2021-12-14_22h15.33.425,PRaM,2021.2.3,Win32,59.84440455,61b8f3437b89212fae0dfadf
3,1.8953,space,0.3363,0,328,328,261,1,,,5f62578ad6e28a29645bf492,61b909699fb9b6d3d05405a5,2021-12-14_22h15.33.425,PRaM,2021.2.3,Win32,59.84440455,61b8f3437b89212fae0dfadf
3,1.8083,space,0.1928,0,329,329,264,1,,,5f62578ad6e28a29645bf492,61b909699fb9b6d3d05405a5,2021-12-14_22h15.33.425,PRaM,2021.2.3,Win32,59.84440455,61b8f3437b89212fae0dfadf
4,0.7899,space,0.6529,0,330,330,88,1,,,5f62578ad6e28a29645bf492,61b909699fb9b6d3d05405a5,2021-12-14_22h15.33.425,PRaM,2021.2.3,Win32,59.84440455,61b8f3437b89212fae0dfadf
4,1.4773,space,0.0775,0,331,331,272,1,,,5f62578ad6e28a29645bf492,61b909699fb9b6d3d05405a5,2021-12-14_22h15.33.425,PRaM,2021.2.3,Win32,59.84440455,61b8f3437b89212fae0dfadf
3,0.9542,space,0.3445,0,332,332,165,1,,,5f62578ad6e28a29645bf492,61b909699fb9b6d3d05405a5,2021-12-14_22h15.33.425,PRaM,2021.2.3,Win32,59.84440455,61b8f3437b89212fae0dfadf
4,1.3879,space,0.0353,0,333,333,368,1,,,5f62578ad6e28a29645bf492,61b909699fb9b6d3d05405a5,2021-12-14_22h15.33.425,PRaM,2021.2.3,Win32,59.84440455,61b8f3437b89212fae0dfadf
4,1.173,space,0.0682,0,334,334,117,1,,,5f62578ad6e28a29645bf492,61b909699fb9b6d3d05405a5,2021-12-14_22h15.33.425,PRaM,2021.2.3,Win32,59.84440455,61b8f3437b89212fae0dfadf
4,0.8755,space,0.1844,0,335,335,69,1,,,5f62578ad6e28a29645bf492,61b909699fb9b6d3d05405a5,2021-12-14_22h15.33.425,PRaM,2021.2.3,Win32,59.84440455,61b8f3437b89212fae0dfadf
3,1.5929,space,0.5173,0,336,336,141,1,,,5f62578ad6e28a29645bf492,61b909699fb9b6d3d05405a5,2021-12-14_22h15.33.425,PRaM,2021.2.3,Win32,59.84440455,61b8f3437b89212fae0dfadf
7,8.1645,space,6.5713,0,337,337,130,1,,,5f62578ad6e28a29645bf492,61b909699fb9b6d3d05405a5,2021-12-14_22h15.33.425,PRaM,2021.2.3,Win32,59.84440455,61b8f3437b89212fae0dfadf
4,5.0556,space,3.5058,0,338,338,89,1,,,5f62578ad6e28a29645bf492,61b909699fb9b6d3d05405a5,2021-12-14_22h15.33.425,PRaM,2021.2.3,Win32,59.84440455,61b8f3437b89212fae0dfadf
5,3.0587,space,1.3561,0,339,339,361,1,,,5f62578ad6e28a29645bf492,61b909699fb9b6d3d05405a5,2021-12-14_22h15.33.425,PRaM,2021.2.3,Win32,59.84440455,61b8f3437b89212fae0dfadf
6,3.0668,space,1.4208,0,340,340,86,1,,,5f62578ad6e28a29645bf492,61b909699fb9b6d3d05405a5,2021-12-14_22h15.33.425,PRaM,2021.2.3,Win32,59.84440455,61b8f3437b89212fae0dfadf
3,4.446,space,3.0077,0,341,341,265,1,,,5f62578ad6e28a29645bf492,61b909699fb9b6d3d05405a5,2021-12-14_22h15.33.425,PRaM,2021.2.3,Win32,59.84440455,61b8f3437b89212fae0dfadf
3,3.4639,space,1.7861,0,342,342,15,1,,,5f62578ad6e28a29645bf492,61b909699fb9b6d3d05405a5,2021-12-14_22h15.33.425,PRaM,2021.2.3,Win32,59.84440455,61b8f3437b89212fae0dfadf
8,3.2796,space,1.7538,0,343,343,356,1,,,5f62578ad6e28a29645bf492,61b909699fb9b6d3d05405a5,2021-12-14_22h15.33.425,PRaM,2021.2.3,Win32,59.84440455,61b8f3437b89212fae0dfadf
2,3.8229,space,2.2098,0,344,344,8,1,,,5f62578ad6e28a29645bf492,61b909699fb9b6d3d05405a5,2021-12-14_22h15.33.425,PRaM,2021.2.3,Win32,59.84440455,61b8f3437b89212fae0dfadf
3,2.3397,space,1.189,0,345,345,153,1,,,5f62578ad6e28a29645bf492,61b909699fb9b6d3d05405a5,2021-12-14_22h15.33.425,PRaM,2021.2.3,Win32,59.84440455,61b8f3437b89212fae0dfadf
4,1.822,space,0.2235,0,346,346,145,1,,,5f62578ad6e28a29645bf492,61b909699fb9b6d3d05405a5,2021-12-14_22h15.33.425,PRaM,2021.2.3,Win32,59.84440455,61b8f3437b89212fae0dfadf
5,1.7066,space,0.0016,0,347,347,52,1,,,5f62578ad6e28a29645bf492,61b909699fb9b6d3d05405a5,2021-12-14_22h15.33.425,PRaM,2021.2.3,Win32,59.84440455,61b8f3437b89212fae0dfadf
2,1.7909,space,0.129,0,348,348,132,1,,,5f62578ad6e28a29645bf492,61b909699fb9b6d3d05405a5,2021-12-14_22h15.33.425,PRaM,2021.2.3,Win32,59.84440455,61b8f3437b89212fae0dfadf
9,3.2277,space,1.6375,0,349,349,105,1,,,5f62578ad6e28a29645bf492,61b909699fb9b6d3d05405a5,2021-12-14_22h15.33.425,PRaM,2021.2.3,Win32,59.84440455,61b8f3437b89212fae0dfadf
9,0.9916,space,0.4014,0,350,350,307,1,,,5f62578ad6e28a29645bf492,61b909699fb9b6d3d05405a5,2021-12-14_22h15.33.425,PRaM,2021.2.3,Win32,59.84440455,61b8f3437b89212fae0dfadf
7,2.029,space,0.4515,0,351,351,244,1,,,5f62578ad6e28a29645bf492,61b909699fb9b6d3d05405a5,2021-12-14_22h15.33.425,PRaM,2021.2.3,Win32,59.84440455,61b8f3437b89212fae0dfadf
7,1.6952,space,0.0219,0,352,352,319,1,,,5f62578ad6e28a29645bf492,61b909699fb9b6d3d05405a5,2021-12-14_22h15.33.425,PRaM,2021.2.3,Win32,59.84440455,61b8f3437b89212fae0dfadf
6,1.6748,space,0.0748,0,353,353,255,1,,,5f62578ad6e28a29645bf492,61b909699fb9b6d3d05405a5,2021-12-14_22h15.33.425,PRaM,2021.2.3,Win32,59.84440455,61b8f3437b89212fae0dfadf
7,1.2758,space,0.1019,0,354,354,49,1,,,5f62578ad6e28a29645bf492,61b909699fb9b6d3d05405a5,2021-12-14_22h15.33.425,PRaM,2021.2.3,Win32,59.84440455,61b8f3437b89212fae0dfadf
8,1.8139,space,0.1718,0,355,355,120,1,,,5f62578ad6e28a29645bf492,61b909699fb9b6d3d05405a5,2021-12-14_22h15.33.425,PRaM,2021.2.3,Win32,59.84440455,61b8f3437b89212fae0dfadf
6,1.4761,space,0.2699,0,356,356,240,1,,,5f62578ad6e28a29645bf492,61b909699fb9b6d3d05405a5,2021-12-14_22h15.33.425,PRaM,2021.2.3,Win32,59.84440455,61b8f3437b89212fae0dfadf
7,1.7262,space,0.1353,0,357,357,268,1,,,5f62578ad6e28a29645bf492,61b909699fb9b6d3d05405a5,2021-12-14_22h15.33.425,PRaM,2021.2.3,Win32,59.84440455,61b8f3437b89212fae0dfadf
8,3.4121,space,1.9713,0,358,358,96,1,,,5f62578ad6e28a29645bf492,61b909699fb9b6d3d05405a5,2021-12-14_22h15.33.425,PRaM,2021.2.3,Win32,59.84440455,61b8f3437b89212fae0dfadf
8,3.2751,space,1.64,0,359,359,288,1,,,5f62578ad6e28a29645bf492,61b909699fb9b6d3d05405a5,2021-12-14_22h15.33.425,PRaM,2021.2.3,Win32,59.84440455,61b8f3437b89212fae0dfadf
2,47.3898,space,45.7021,0,360,360,232,1,,,5f62578ad6e28a29645bf492,61b909699fb9b6d3d05405a5,2021-12-14_22h15.33.425,PRaM,2021.2.3,Win32,59.84440455,61b8f3437b89212fae0dfadf
2,0.7888,space,1.3429,0,361,361,79,1,,,5f62578ad6e28a29645bf492,61b909699fb9b6d3d05405a5,2021-12-14_22h15.33.425,PRaM,2021.2.3,Win32,59.84440455,61b8f3437b89212fae0dfadf
3,2.5458,space,0.8642,0,362,362,271,1,,,5f62578ad6e28a29645bf492,61b909699fb9b6d3d05405a5,2021-12-14_22h15.33.425,PRaM,2021.2.3,Win32,59.84440455,61b8f3437b89212fae0dfadf
7,2.6922,space,1.1712,0,363,363,355,1,,,5f62578ad6e28a29645bf492,61b909699fb9b6d3d05405a5,2021-12-14_22h15.33.425,PRaM,2021.2.3,Win32,59.84440455,61b8f3437b89212fae0dfadf
3,1.8723,space,0.2348,0,364,364,241,1,,,5f62578ad6e28a29645bf492,61b909699fb9b6d3d05405a5,2021-12-14_22h15.33.425,PRaM,2021.2.3,Win32,59.84440455,61b8f3437b89212fae0dfadf
5,2.0589,space,0.2851,0,365,365,320,1,,,5f62578ad6e28a29645bf492,61b909699fb9b6d3d05405a5,2021-12-14_22h15.33.425,PRaM,2021.2.3,Win32,59.84440455,61b8f3437b89212fae0dfadf
5,2.7793,space,1.0059,0,366,366,346,1,,,5f62578ad6e28a29645bf492,61b909699fb9b6d3d05405a5,2021-12-14_22h15.33.425,PRaM,2021.2.3,Win32,59.84440455,61b8f3437b89212fae0dfadf
2,3.3988,space,1.7658,0,367,367,290,1,,,5f62578ad6e28a29645bf492,61b909699fb9b6d3d05405a5,2021-12-14_22h15.33.425,PRaM,2021.2.3,Win32,59.84440455,61b8f3437b89212fae0dfadf
7,2.1583,space,0.5644,0,368,368,163,1,,,5f62578ad6e28a29645bf492,61b909699fb9b6d3d05405a5,2021-12-14_22h15.33.425,PRaM,2021.2.3,Win32,59.84440455,61b8f3437b89212fae0dfadf
8,1.6934,space,0.0594,0,369,369,336,1,,,5f62578ad6e28a29645bf492,61b909699fb9b6d3d05405a5,2021-12-14_22h15.33.425,PRaM,2021.2.3,Win32,59.84440455,61b8f3437b89212fae0dfadf
8,1.73,space,0.0379,0,370,370,48,1,,,5f62578ad6e28a29645bf492,61b909699fb9b6d3d05405a5,2021-12-14_22h15.33.425,PRaM,2021.2.3,Win32,59.84440455,61b8f3437b89212fae0dfadf
7,2.8082,space,1.1475,0,371,371,25,1,,,5f62578ad6e28a29645bf492,61b909699fb9b6d3d05405a5,2021-12-14_22h15.33.425,PRaM,2021.2.3,Win32,59.84440455,61b8f3437b89212fae0dfadf
1,2.8001,space,1.1699,0,372,372,312,1,,,5f62578ad6e28a29645bf492,61b909699fb9b6d3d05405a5,2021-12-14_22h15.33.425,PRaM,2021.2.3,Win32,59.84440455,61b8f3437b89212fae0dfadf
2,2.2117,space,0.5828,0,373,373,273,1,,,5f62578ad6e28a29645bf492,61b909699fb9b6d3d05405a5,2021-12-14_22h15.33.425,PRaM,2021.2.3,Win32,59.84440455,61b8f3437b89212fae0dfadf
3,1.0588,space,0.1296,0,374,374,212,1,,,5f62578ad6e28a29645bf492,61b909699fb9b6d3d05405a5,2021-12-14_22h15.33.425,PRaM,2021.2.3,Win32,59.84440455,61b8f3437b89212fae0dfadf
9,3.2496,space,1.6235,0,375,375,180,1,,,5f62578ad6e28a29645bf492,61b909699fb9b6d3d05405a5,2021-12-14_22h15.33.425,PRaM,2021.2.3,Win32,59.84440455,61b8f3437b89212fae0dfadf
2,2.5467,space,0.9077,0,376,376,218,1,,,5f62578ad6e28a29645bf492,61b909699fb9b6d3d05405a5,2021-12-14_22h15.33.425,PRaM,2021.2.3,Win32,59.84440455,61b8f3437b89212fae0dfadf
,,space,0.5188,0,377,377,111,1,,,5f62578ad6e28a29645bf492,61b909699fb9b6d3d05405a5,2021-12-14_22h15.33.425,PRaM,2021.2.3,Win32,59.84440455,61b8f3437b89212fae0dfadf
