Rating.response,Rating.rt,EndTrial.keys,EndTrial.rt,trials.thisRepN,trials.thisTrialN,trials.thisN,trials.thisIndex,trials.ran,Pos1,Pos2,participant,session,date,expName,psychopyVersion,OS,frameRate,study_id
1,22.4166,space,23.2932,0,0,0,123,1,,,5f782504951dda38db3ef0b6,61b9002518bdeb1ec81fd380,2021-12-15_09h36.51.256,PRaM,2021.2.3,Win32,59.89099838,61b8f3437b89212fae0dfade
1,10.4798,space,9.3467,0,1,1,6,1,,,5f782504951dda38db3ef0b6,61b9002518bdeb1ec81fd380,2021-12-15_09h36.51.256,PRaM,2021.2.3,Win32,59.89099838,61b8f3437b89212fae0dfade
3,10.4801,space,9.4906,0,2,2,166,1,,,5f782504951dda38db3ef0b6,61b9002518bdeb1ec81fd380,2021-12-15_09h36.51.256,PRaM,2021.2.3,Win32,59.89099838,61b8f3437b89212fae0dfade
1,10.1803,space,8.9588,0,3,3,0,1,,,5f782504951dda38db3ef0b6,61b9002518bdeb1ec81fd380,2021-12-15_09h36.51.256,PRaM,2021.2.3,Win32,59.89099838,61b8f3437b89212fae0dfade
2,6.0763,space,4.8806,0,4,4,242,1,,,5f782504951dda38db3ef0b6,61b9002518bdeb1ec81fd380,2021-12-15_09h36.51.256,PRaM,2021.2.3,Win32,59.89099838,61b8f3437b89212fae0dfade
1,12.3219,space,11.3892,0,5,5,297,1,,,5f782504951dda38db3ef0b6,61b9002518bdeb1ec81fd380,2021-12-15_09h36.51.256,PRaM,2021.2.3,Win32,59.89099838,61b8f3437b89212fae0dfade
1,5.6354,space,6.0129,0,6,6,253,1,,,5f782504951dda38db3ef0b6,61b9002518bdeb1ec81fd380,2021-12-15_09h36.51.256,PRaM,2021.2.3,Win32,59.89099838,61b8f3437b89212fae0dfade
2,6.5735,space,6.2625,0,7,7,371,1,,,5f782504951dda38db3ef0b6,61b9002518bdeb1ec81fd380,2021-12-15_09h36.51.256,PRaM,2021.2.3,Win32,59.89099838,61b8f3437b89212fae0dfade
2,3.5317,space,4.4674,0,8,8,88,1,,,5f782504951dda38db3ef0b6,61b9002518bdeb1ec81fd380,2021-12-15_09h36.51.256,PRaM,2021.2.3,Win32,59.89099838,61b8f3437b89212fae0dfade
1,3.2539,space,2.8974,0,9,9,172,1,,,5f782504951dda38db3ef0b6,61b9002518bdeb1ec81fd380,2021-12-15_09h36.51.256,PRaM,2021.2.3,Win32,59.89099838,61b8f3437b89212fae0dfade
1,2.1912,space,0.8106,0,10,10,108,1,,,5f782504951dda38db3ef0b6,61b9002518bdeb1ec81fd380,2021-12-15_09h36.51.256,PRaM,2021.2.3,Win32,59.89099838,61b8f3437b89212fae0dfade
3,3.0492,space,1.7258,0,11,11,269,1,,,5f782504951dda38db3ef0b6,61b9002518bdeb1ec81fd380,2021-12-15_09h36.51.256,PRaM,2021.2.3,Win32,59.89099838,61b8f3437b89212fae0dfade
1,8.0849,space,6.729,0,12,12,100,1,,,5f782504951dda38db3ef0b6,61b9002518bdeb1ec81fd380,2021-12-15_09h36.51.256,PRaM,2021.2.3,Win32,59.89099838,61b8f3437b89212fae0dfade
2,6.169,space,4.9099,0,13,13,294,1,,,5f782504951dda38db3ef0b6,61b9002518bdeb1ec81fd380,2021-12-15_09h36.51.256,PRaM,2021.2.3,Win32,59.89099838,61b8f3437b89212fae0dfade
1,6.9649,space,5.5357,0,14,14,318,1,,,5f782504951dda38db3ef0b6,61b9002518bdeb1ec81fd380,2021-12-15_09h36.51.256,PRaM,2021.2.3,Win32,59.89099838,61b8f3437b89212fae0dfade
1,19.7215,space,18.6545,0,15,15,344,1,,,5f782504951dda38db3ef0b6,61b9002518bdeb1ec81fd380,2021-12-15_09h36.51.256,PRaM,2021.2.3,Win32,59.89099838,61b8f3437b89212fae0dfade
1,8.3124,space,7.0301,0,16,16,194,1,,,5f782504951dda38db3ef0b6,61b9002518bdeb1ec81fd380,2021-12-15_09h36.51.256,PRaM,2021.2.3,Win32,59.89099838,61b8f3437b89212fae0dfade
2,8.1372,space,6.6667,0,17,17,151,1,,,5f782504951dda38db3ef0b6,61b9002518bdeb1ec81fd380,2021-12-15_09h36.51.256,PRaM,2021.2.3,Win32,59.89099838,61b8f3437b89212fae0dfade
2,4.8319,space,3.3637,0,18,18,14,1,,,5f782504951dda38db3ef0b6,61b9002518bdeb1ec81fd380,2021-12-15_09h36.51.256,PRaM,2021.2.3,Win32,59.89099838,61b8f3437b89212fae0dfade
1,8.2479,space,7.0749,0,19,19,199,1,,,5f782504951dda38db3ef0b6,61b9002518bdeb1ec81fd380,2021-12-15_09h36.51.256,PRaM,2021.2.3,Win32,59.89099838,61b8f3437b89212fae0dfade
1,2.7041,space,1.2262,0,20,20,229,1,,,5f782504951dda38db3ef0b6,61b9002518bdeb1ec81fd380,2021-12-15_09h36.51.256,PRaM,2021.2.3,Win32,59.89099838,61b8f3437b89212fae0dfade
1,3.5377,space,2.0791,0,21,21,367,1,,,5f782504951dda38db3ef0b6,61b9002518bdeb1ec81fd380,2021-12-15_09h36.51.256,PRaM,2021.2.3,Win32,59.89099838,61b8f3437b89212fae0dfade
3,3.5298,space,2.1641,0,22,22,86,1,,,5f782504951dda38db3ef0b6,61b9002518bdeb1ec81fd380,2021-12-15_09h36.51.256,PRaM,2021.2.3,Win32,59.89099838,61b8f3437b89212fae0dfade
1,5.1424,space,5.1256,0,23,23,262,1,,,5f782504951dda38db3ef0b6,61b9002518bdeb1ec81fd380,2021-12-15_09h36.51.256,PRaM,2021.2.3,Win32,59.89099838,61b8f3437b89212fae0dfade
3,2.8811,space,1.5258,0,24,24,115,1,,,5f782504951dda38db3ef0b6,61b9002518bdeb1ec81fd380,2021-12-15_09h36.51.256,PRaM,2021.2.3,Win32,59.89099838,61b8f3437b89212fae0dfade
2,2.7959,space,1.3622,0,25,25,77,1,,,5f782504951dda38db3ef0b6,61b9002518bdeb1ec81fd380,2021-12-15_09h36.51.256,PRaM,2021.2.3,Win32,59.89099838,61b8f3437b89212fae0dfade
1,5.3582,space,5.3779,0,26,26,66,1,,,5f782504951dda38db3ef0b6,61b9002518bdeb1ec81fd380,2021-12-15_09h36.51.256,PRaM,2021.2.3,Win32,59.89099838,61b8f3437b89212fae0dfade
2,2.5648,space,1.0572,0,27,27,305,1,,,5f782504951dda38db3ef0b6,61b9002518bdeb1ec81fd380,2021-12-15_09h36.51.256,PRaM,2021.2.3,Win32,59.89099838,61b8f3437b89212fae0dfade
1,4.3591,space,2.9718,0,28,28,210,1,,,5f782504951dda38db3ef0b6,61b9002518bdeb1ec81fd380,2021-12-15_09h36.51.256,PRaM,2021.2.3,Win32,59.89099838,61b8f3437b89212fae0dfade
2,5.7896,space,4.3126,0,29,29,307,1,,,5f782504951dda38db3ef0b6,61b9002518bdeb1ec81fd380,2021-12-15_09h36.51.256,PRaM,2021.2.3,Win32,59.89099838,61b8f3437b89212fae0dfade
1,2.5617,space,1.3132,0,30,30,289,1,,,5f782504951dda38db3ef0b6,61b9002518bdeb1ec81fd380,2021-12-15_09h36.51.256,PRaM,2021.2.3,Win32,59.89099838,61b8f3437b89212fae0dfade
2,2.7752,space,1.3344,0,31,31,270,1,,,5f782504951dda38db3ef0b6,61b9002518bdeb1ec81fd380,2021-12-15_09h36.51.256,PRaM,2021.2.3,Win32,59.89099838,61b8f3437b89212fae0dfade
1,3.3917,space,1.9429,0,32,32,248,1,,,5f782504951dda38db3ef0b6,61b9002518bdeb1ec81fd380,2021-12-15_09h36.51.256,PRaM,2021.2.3,Win32,59.89099838,61b8f3437b89212fae0dfade
3,2.6837,space,1.2002,0,33,33,372,1,,,5f782504951dda38db3ef0b6,61b9002518bdeb1ec81fd380,2021-12-15_09h36.51.256,PRaM,2021.2.3,Win32,59.89099838,61b8f3437b89212fae0dfade
1,3.3434,space,1.9721,0,34,34,198,1,,,5f782504951dda38db3ef0b6,61b9002518bdeb1ec81fd380,2021-12-15_09h36.51.256,PRaM,2021.2.3,Win32,59.89099838,61b8f3437b89212fae0dfade
2,4.7551,space,3.245,0,35,35,135,1,,,5f782504951dda38db3ef0b6,61b9002518bdeb1ec81fd380,2021-12-15_09h36.51.256,PRaM,2021.2.3,Win32,59.89099838,61b8f3437b89212fae0dfade
1,3.7087,space,2.2501,0,36,36,230,1,,,5f782504951dda38db3ef0b6,61b9002518bdeb1ec81fd380,2021-12-15_09h36.51.256,PRaM,2021.2.3,Win32,59.89099838,61b8f3437b89212fae0dfade
3,2.4914,space,1.0173,0,37,37,56,1,,,5f782504951dda38db3ef0b6,61b9002518bdeb1ec81fd380,2021-12-15_09h36.51.256,PRaM,2021.2.3,Win32,59.89099838,61b8f3437b89212fae0dfade
1,3.469,space,1.9525,0,38,38,92,1,,,5f782504951dda38db3ef0b6,61b9002518bdeb1ec81fd380,2021-12-15_09h36.51.256,PRaM,2021.2.3,Win32,59.89099838,61b8f3437b89212fae0dfade
1,2.7868,space,1.2908,0,39,39,174,1,,,5f782504951dda38db3ef0b6,61b9002518bdeb1ec81fd380,2021-12-15_09h36.51.256,PRaM,2021.2.3,Win32,59.89099838,61b8f3437b89212fae0dfade
1,2.6661,space,1.1853,0,40,40,89,1,,,5f782504951dda38db3ef0b6,61b9002518bdeb1ec81fd380,2021-12-15_09h36.51.256,PRaM,2021.2.3,Win32,59.89099838,61b8f3437b89212fae0dfade
1,2.3351,space,1.0283,0,41,41,2,1,,,5f782504951dda38db3ef0b6,61b9002518bdeb1ec81fd380,2021-12-15_09h36.51.256,PRaM,2021.2.3,Win32,59.89099838,61b8f3437b89212fae0dfade
1,6.3081,space,4.8604,0,42,42,350,1,,,5f782504951dda38db3ef0b6,61b9002518bdeb1ec81fd380,2021-12-15_09h36.51.256,PRaM,2021.2.3,Win32,59.89099838,61b8f3437b89212fae0dfade
1,2.1974,space,0.7052,0,43,43,188,1,,,5f782504951dda38db3ef0b6,61b9002518bdeb1ec81fd380,2021-12-15_09h36.51.256,PRaM,2021.2.3,Win32,59.89099838,61b8f3437b89212fae0dfade
2,3.4791,space,1.9666,0,44,44,351,1,,,5f782504951dda38db3ef0b6,61b9002518bdeb1ec81fd380,2021-12-15_09h36.51.256,PRaM,2021.2.3,Win32,59.89099838,61b8f3437b89212fae0dfade
1,4.0043,space,2.6558,0,45,45,46,1,,,5f782504951dda38db3ef0b6,61b9002518bdeb1ec81fd380,2021-12-15_09h36.51.256,PRaM,2021.2.3,Win32,59.89099838,61b8f3437b89212fae0dfade
1,3.522,space,2.0447,0,46,46,202,1,,,5f782504951dda38db3ef0b6,61b9002518bdeb1ec81fd380,2021-12-15_09h36.51.256,PRaM,2021.2.3,Win32,59.89099838,61b8f3437b89212fae0dfade
1,2.5129,space,1.9263,0,47,47,122,1,,,5f782504951dda38db3ef0b6,61b9002518bdeb1ec81fd380,2021-12-15_09h36.51.256,PRaM,2021.2.3,Win32,59.89099838,61b8f3437b89212fae0dfade
3,2.9115,space,1.3754,0,48,48,114,1,,,5f782504951dda38db3ef0b6,61b9002518bdeb1ec81fd380,2021-12-15_09h36.51.256,PRaM,2021.2.3,Win32,59.89099838,61b8f3437b89212fae0dfade
2,5.5228,space,4.0488,0,49,49,336,1,,,5f782504951dda38db3ef0b6,61b9002518bdeb1ec81fd380,2021-12-15_09h36.51.256,PRaM,2021.2.3,Win32,59.89099838,61b8f3437b89212fae0dfade
2,4.9757,space,3.4756,0,50,50,355,1,,,5f782504951dda38db3ef0b6,61b9002518bdeb1ec81fd380,2021-12-15_09h36.51.256,PRaM,2021.2.3,Win32,59.89099838,61b8f3437b89212fae0dfade
1,2.557,space,1.009,0,51,51,187,1,,,5f782504951dda38db3ef0b6,61b9002518bdeb1ec81fd380,2021-12-15_09h36.51.256,PRaM,2021.2.3,Win32,59.89099838,61b8f3437b89212fae0dfade
2,6.122,space,4.5608,0,52,52,238,1,,,5f782504951dda38db3ef0b6,61b9002518bdeb1ec81fd380,2021-12-15_09h36.51.256,PRaM,2021.2.3,Win32,59.89099838,61b8f3437b89212fae0dfade
1,3.7365,space,2.2416,0,53,53,176,1,,,5f782504951dda38db3ef0b6,61b9002518bdeb1ec81fd380,2021-12-15_09h36.51.256,PRaM,2021.2.3,Win32,59.89099838,61b8f3437b89212fae0dfade
1,4.7252,space,3.1514,0,54,54,345,1,,,5f782504951dda38db3ef0b6,61b9002518bdeb1ec81fd380,2021-12-15_09h36.51.256,PRaM,2021.2.3,Win32,59.89099838,61b8f3437b89212fae0dfade
1,2.3093,space,0.7662,0,55,55,57,1,,,5f782504951dda38db3ef0b6,61b9002518bdeb1ec81fd380,2021-12-15_09h36.51.256,PRaM,2021.2.3,Win32,59.89099838,61b8f3437b89212fae0dfade
1,3.1758,space,1.6328,0,56,56,121,1,,,5f782504951dda38db3ef0b6,61b9002518bdeb1ec81fd380,2021-12-15_09h36.51.256,PRaM,2021.2.3,Win32,59.89099838,61b8f3437b89212fae0dfade
1,3.7589,space,2.2464,0,57,57,233,1,,,5f782504951dda38db3ef0b6,61b9002518bdeb1ec81fd380,2021-12-15_09h36.51.256,PRaM,2021.2.3,Win32,59.89099838,61b8f3437b89212fae0dfade
1,4.2382,space,10.8366,0,58,58,143,1,,,5f782504951dda38db3ef0b6,61b9002518bdeb1ec81fd380,2021-12-15_09h36.51.256,PRaM,2021.2.3,Win32,59.89099838,61b8f3437b89212fae0dfade
2,3.6577,space,2.2363,0,59,59,75,1,,,5f782504951dda38db3ef0b6,61b9002518bdeb1ec81fd380,2021-12-15_09h36.51.256,PRaM,2021.2.3,Win32,59.89099838,61b8f3437b89212fae0dfade
1,2.2667,space,0.8214,0,60,60,68,1,,,5f782504951dda38db3ef0b6,61b9002518bdeb1ec81fd380,2021-12-15_09h36.51.256,PRaM,2021.2.3,Win32,59.89099838,61b8f3437b89212fae0dfade
2,5.4525,space,3.952,0,61,61,375,1,,,5f782504951dda38db3ef0b6,61b9002518bdeb1ec81fd380,2021-12-15_09h36.51.256,PRaM,2021.2.3,Win32,59.89099838,61b8f3437b89212fae0dfade
2,2.4264,space,0.9235,0,62,62,255,1,,,5f782504951dda38db3ef0b6,61b9002518bdeb1ec81fd380,2021-12-15_09h36.51.256,PRaM,2021.2.3,Win32,59.89099838,61b8f3437b89212fae0dfade
2,6.067,space,4.4767,0,63,63,352,1,,,5f782504951dda38db3ef0b6,61b9002518bdeb1ec81fd380,2021-12-15_09h36.51.256,PRaM,2021.2.3,Win32,59.89099838,61b8f3437b89212fae0dfade
1,4.0643,space,2.5275,0,64,64,369,1,,,5f782504951dda38db3ef0b6,61b9002518bdeb1ec81fd380,2021-12-15_09h36.51.256,PRaM,2021.2.3,Win32,59.89099838,61b8f3437b89212fae0dfade
2,3.6735,space,2.1519,0,65,65,304,1,,,5f782504951dda38db3ef0b6,61b9002518bdeb1ec81fd380,2021-12-15_09h36.51.256,PRaM,2021.2.3,Win32,59.89099838,61b8f3437b89212fae0dfade
3,2.6285,space,1.2134,0,66,66,61,1,,,5f782504951dda38db3ef0b6,61b9002518bdeb1ec81fd380,2021-12-15_09h36.51.256,PRaM,2021.2.3,Win32,59.89099838,61b8f3437b89212fae0dfade
1,4.3023,space,2.7491,0,67,67,9,1,,,5f782504951dda38db3ef0b6,61b9002518bdeb1ec81fd380,2021-12-15_09h36.51.256,PRaM,2021.2.3,Win32,59.89099838,61b8f3437b89212fae0dfade
3,2.2706,space,0.691,0,68,68,74,1,,,5f782504951dda38db3ef0b6,61b9002518bdeb1ec81fd380,2021-12-15_09h36.51.256,PRaM,2021.2.3,Win32,59.89099838,61b8f3437b89212fae0dfade
3,3.1854,space,1.662,0,69,69,277,1,,,5f782504951dda38db3ef0b6,61b9002518bdeb1ec81fd380,2021-12-15_09h36.51.256,PRaM,2021.2.3,Win32,59.89099838,61b8f3437b89212fae0dfade
1,2.8629,space,1.3411,0,70,70,193,1,,,5f782504951dda38db3ef0b6,61b9002518bdeb1ec81fd380,2021-12-15_09h36.51.256,PRaM,2021.2.3,Win32,59.89099838,61b8f3437b89212fae0dfade
1,1.978,space,0.4517,0,71,71,232,1,,,5f782504951dda38db3ef0b6,61b9002518bdeb1ec81fd380,2021-12-15_09h36.51.256,PRaM,2021.2.3,Win32,59.89099838,61b8f3437b89212fae0dfade
2,2.4158,space,0.8703,0,72,72,288,1,,,5f782504951dda38db3ef0b6,61b9002518bdeb1ec81fd380,2021-12-15_09h36.51.256,PRaM,2021.2.3,Win32,59.89099838,61b8f3437b89212fae0dfade
3,2.7656,space,1.222,0,73,73,12,1,,,5f782504951dda38db3ef0b6,61b9002518bdeb1ec81fd380,2021-12-15_09h36.51.256,PRaM,2021.2.3,Win32,59.89099838,61b8f3437b89212fae0dfade
1,3.0055,space,2.1731,0,74,74,40,1,,,5f782504951dda38db3ef0b6,61b9002518bdeb1ec81fd380,2021-12-15_09h36.51.256,PRaM,2021.2.3,Win32,59.89099838,61b8f3437b89212fae0dfade
1,2.4838,space,0.9194,0,75,75,155,1,,,5f782504951dda38db3ef0b6,61b9002518bdeb1ec81fd380,2021-12-15_09h36.51.256,PRaM,2021.2.3,Win32,59.89099838,61b8f3437b89212fae0dfade
1,2.4813,space,0.9298,0,76,76,125,1,,,5f782504951dda38db3ef0b6,61b9002518bdeb1ec81fd380,2021-12-15_09h36.51.256,PRaM,2021.2.3,Win32,59.89099838,61b8f3437b89212fae0dfade
3,2.841,space,1.2737,0,77,77,168,1,,,5f782504951dda38db3ef0b6,61b9002518bdeb1ec81fd380,2021-12-15_09h36.51.256,PRaM,2021.2.3,Win32,59.89099838,61b8f3437b89212fae0dfade
3,2.3983,space,0.8491,0,78,78,274,1,,,5f782504951dda38db3ef0b6,61b9002518bdeb1ec81fd380,2021-12-15_09h36.51.256,PRaM,2021.2.3,Win32,59.89099838,61b8f3437b89212fae0dfade
1,3.0798,space,1.4848,0,79,79,191,1,,,5f782504951dda38db3ef0b6,61b9002518bdeb1ec81fd380,2021-12-15_09h36.51.256,PRaM,2021.2.3,Win32,59.89099838,61b8f3437b89212fae0dfade
2,2.5425,space,0.9555,0,80,80,149,1,,,5f782504951dda38db3ef0b6,61b9002518bdeb1ec81fd380,2021-12-15_09h36.51.256,PRaM,2021.2.3,Win32,59.89099838,61b8f3437b89212fae0dfade
1,5.0276,space,3.4738,0,81,81,257,1,,,5f782504951dda38db3ef0b6,61b9002518bdeb1ec81fd380,2021-12-15_09h36.51.256,PRaM,2021.2.3,Win32,59.89099838,61b8f3437b89212fae0dfade
1,2.4369,space,0.8997,0,82,82,315,1,,,5f782504951dda38db3ef0b6,61b9002518bdeb1ec81fd380,2021-12-15_09h36.51.256,PRaM,2021.2.3,Win32,59.89099838,61b8f3437b89212fae0dfade
2,5.3977,space,3.8093,0,83,83,139,1,,,5f782504951dda38db3ef0b6,61b9002518bdeb1ec81fd380,2021-12-15_09h36.51.256,PRaM,2021.2.3,Win32,59.89099838,61b8f3437b89212fae0dfade
1,2.6857,space,1.0991,0,84,84,179,1,,,5f782504951dda38db3ef0b6,61b9002518bdeb1ec81fd380,2021-12-15_09h36.51.256,PRaM,2021.2.3,Win32,59.89099838,61b8f3437b89212fae0dfade
3,3.0526,space,5.5957,0,85,85,254,1,,,5f782504951dda38db3ef0b6,61b9002518bdeb1ec81fd380,2021-12-15_09h36.51.256,PRaM,2021.2.3,Win32,59.89099838,61b8f3437b89212fae0dfade
1,2.9284,space,1.5553,0,86,86,47,1,,,5f782504951dda38db3ef0b6,61b9002518bdeb1ec81fd380,2021-12-15_09h36.51.256,PRaM,2021.2.3,Win32,59.89099838,61b8f3437b89212fae0dfade
2,3.3828,space,1.8365,0,87,87,249,1,,,5f782504951dda38db3ef0b6,61b9002518bdeb1ec81fd380,2021-12-15_09h36.51.256,PRaM,2021.2.3,Win32,59.89099838,61b8f3437b89212fae0dfade
1,2.4708,space,0.9092,0,88,88,33,1,,,5f782504951dda38db3ef0b6,61b9002518bdeb1ec81fd380,2021-12-15_09h36.51.256,PRaM,2021.2.3,Win32,59.89099838,61b8f3437b89212fae0dfade
1,3.9095,space,2.5275,0,89,89,148,1,,,5f782504951dda38db3ef0b6,61b9002518bdeb1ec81fd380,2021-12-15_09h36.51.256,PRaM,2021.2.3,Win32,59.89099838,61b8f3437b89212fae0dfade
2,6.4366,space,4.8259,0,90,90,150,1,,,5f782504951dda38db3ef0b6,61b9002518bdeb1ec81fd380,2021-12-15_09h36.51.256,PRaM,2021.2.3,Win32,59.89099838,61b8f3437b89212fae0dfade
3,11.5945,space,10.0151,0,91,91,107,1,,,5f782504951dda38db3ef0b6,61b9002518bdeb1ec81fd380,2021-12-15_09h36.51.256,PRaM,2021.2.3,Win32,59.89099838,61b8f3437b89212fae0dfade
1,2.7395,space,1.2474,0,92,92,5,1,,,5f782504951dda38db3ef0b6,61b9002518bdeb1ec81fd380,2021-12-15_09h36.51.256,PRaM,2021.2.3,Win32,59.89099838,61b8f3437b89212fae0dfade
1,2.7237,space,1.2461,0,93,93,27,1,,,5f782504951dda38db3ef0b6,61b9002518bdeb1ec81fd380,2021-12-15_09h36.51.256,PRaM,2021.2.3,Win32,59.89099838,61b8f3437b89212fae0dfade
3,3.8621,space,2.3206,0,94,94,19,1,,,5f782504951dda38db3ef0b6,61b9002518bdeb1ec81fd380,2021-12-15_09h36.51.256,PRaM,2021.2.3,Win32,59.89099838,61b8f3437b89212fae0dfade
1,7.1541,space,5.6079,0,95,95,183,1,,,5f782504951dda38db3ef0b6,61b9002518bdeb1ec81fd380,2021-12-15_09h36.51.256,PRaM,2021.2.3,Win32,59.89099838,61b8f3437b89212fae0dfade
4,3.0774,space,2.7842,0,96,96,84,1,,,5f782504951dda38db3ef0b6,61b9002518bdeb1ec81fd380,2021-12-15_09h36.51.256,PRaM,2021.2.3,Win32,59.89099838,61b8f3437b89212fae0dfade
2,5.9406,space,4.3634,0,97,97,146,1,,,5f782504951dda38db3ef0b6,61b9002518bdeb1ec81fd380,2021-12-15_09h36.51.256,PRaM,2021.2.3,Win32,59.89099838,61b8f3437b89212fae0dfade
7,11.1493,space,9.6839,0,98,98,207,1,,,5f782504951dda38db3ef0b6,61b9002518bdeb1ec81fd380,2021-12-15_09h36.51.256,PRaM,2021.2.3,Win32,59.89099838,61b8f3437b89212fae0dfade
2,7.2864,space,5.7887,0,99,99,173,1,,,5f782504951dda38db3ef0b6,61b9002518bdeb1ec81fd380,2021-12-15_09h36.51.256,PRaM,2021.2.3,Win32,59.89099838,61b8f3437b89212fae0dfade
3,3.1035,space,4.7934,0,100,100,208,1,,,5f782504951dda38db3ef0b6,61b9002518bdeb1ec81fd380,2021-12-15_09h36.51.256,PRaM,2021.2.3,Win32,59.89099838,61b8f3437b89212fae0dfade
1,2.2837,space,0.7097,0,101,101,87,1,,,5f782504951dda38db3ef0b6,61b9002518bdeb1ec81fd380,2021-12-15_09h36.51.256,PRaM,2021.2.3,Win32,59.89099838,61b8f3437b89212fae0dfade
1,2.3559,space,0.7498,0,102,102,18,1,,,5f782504951dda38db3ef0b6,61b9002518bdeb1ec81fd380,2021-12-15_09h36.51.256,PRaM,2021.2.3,Win32,59.89099838,61b8f3437b89212fae0dfade
2,3.9734,space,2.4392,0,103,103,29,1,,,5f782504951dda38db3ef0b6,61b9002518bdeb1ec81fd380,2021-12-15_09h36.51.256,PRaM,2021.2.3,Win32,59.89099838,61b8f3437b89212fae0dfade
1,2.619,space,1.2012,0,104,104,132,1,,,5f782504951dda38db3ef0b6,61b9002518bdeb1ec81fd380,2021-12-15_09h36.51.256,PRaM,2021.2.3,Win32,59.89099838,61b8f3437b89212fae0dfade
3,5.6379,space,4.0799,0,105,105,165,1,,,5f782504951dda38db3ef0b6,61b9002518bdeb1ec81fd380,2021-12-15_09h36.51.256,PRaM,2021.2.3,Win32,59.89099838,61b8f3437b89212fae0dfade
1,2.9679,space,1.6526,0,106,106,280,1,,,5f782504951dda38db3ef0b6,61b9002518bdeb1ec81fd380,2021-12-15_09h36.51.256,PRaM,2021.2.3,Win32,59.89099838,61b8f3437b89212fae0dfade
1,3.2483,space,1.6977,0,107,107,31,1,,,5f782504951dda38db3ef0b6,61b9002518bdeb1ec81fd380,2021-12-15_09h36.51.256,PRaM,2021.2.3,Win32,59.89099838,61b8f3437b89212fae0dfade
3,2.8993,space,1.3717,0,108,108,110,1,,,5f782504951dda38db3ef0b6,61b9002518bdeb1ec81fd380,2021-12-15_09h36.51.256,PRaM,2021.2.3,Win32,59.89099838,61b8f3437b89212fae0dfade
1,5.8842,space,4.306,0,109,109,178,1,,,5f782504951dda38db3ef0b6,61b9002518bdeb1ec81fd380,2021-12-15_09h36.51.256,PRaM,2021.2.3,Win32,59.89099838,61b8f3437b89212fae0dfade
2,3.6213,space,2.1252,0,110,110,261,1,,,5f782504951dda38db3ef0b6,61b9002518bdeb1ec81fd380,2021-12-15_09h36.51.256,PRaM,2021.2.3,Win32,59.89099838,61b8f3437b89212fae0dfade
1,3.7949,space,2.2844,0,111,111,133,1,,,5f782504951dda38db3ef0b6,61b9002518bdeb1ec81fd380,2021-12-15_09h36.51.256,PRaM,2021.2.3,Win32,59.89099838,61b8f3437b89212fae0dfade
1,7.9542,space,6.4819,0,112,112,67,1,,,5f782504951dda38db3ef0b6,61b9002518bdeb1ec81fd380,2021-12-15_09h36.51.256,PRaM,2021.2.3,Win32,59.89099838,61b8f3437b89212fae0dfade
3,3.0655,space,1.5743,0,113,113,335,1,,,5f782504951dda38db3ef0b6,61b9002518bdeb1ec81fd380,2021-12-15_09h36.51.256,PRaM,2021.2.3,Win32,59.89099838,61b8f3437b89212fae0dfade
4,2.5522,space,1.8108,0,114,114,325,1,,,5f782504951dda38db3ef0b6,61b9002518bdeb1ec81fd380,2021-12-15_09h36.51.256,PRaM,2021.2.3,Win32,59.89099838,61b8f3437b89212fae0dfade
1,4.0531,space,2.4671,0,115,115,220,1,,,5f782504951dda38db3ef0b6,61b9002518bdeb1ec81fd380,2021-12-15_09h36.51.256,PRaM,2021.2.3,Win32,59.89099838,61b8f3437b89212fae0dfade
1,2.1383,space,0.626,0,116,116,252,1,,,5f782504951dda38db3ef0b6,61b9002518bdeb1ec81fd380,2021-12-15_09h36.51.256,PRaM,2021.2.3,Win32,59.89099838,61b8f3437b89212fae0dfade
1,4.2309,space,2.7979,0,117,117,321,1,,,5f782504951dda38db3ef0b6,61b9002518bdeb1ec81fd380,2021-12-15_09h36.51.256,PRaM,2021.2.3,Win32,59.89099838,61b8f3437b89212fae0dfade
1,4.2302,space,2.7389,0,118,118,283,1,,,5f782504951dda38db3ef0b6,61b9002518bdeb1ec81fd380,2021-12-15_09h36.51.256,PRaM,2021.2.3,Win32,59.89099838,61b8f3437b89212fae0dfade
1,2.7494,space,1.3063,0,119,119,287,1,,,5f782504951dda38db3ef0b6,61b9002518bdeb1ec81fd380,2021-12-15_09h36.51.256,PRaM,2021.2.3,Win32,59.89099838,61b8f3437b89212fae0dfade
1,2.6427,space,1.105,0,120,120,214,1,,,5f782504951dda38db3ef0b6,61b9002518bdeb1ec81fd380,2021-12-15_09h36.51.256,PRaM,2021.2.3,Win32,59.89099838,61b8f3437b89212fae0dfade
1,2.4452,space,0.961,0,121,121,10,1,,,5f782504951dda38db3ef0b6,61b9002518bdeb1ec81fd380,2021-12-15_09h36.51.256,PRaM,2021.2.3,Win32,59.89099838,61b8f3437b89212fae0dfade
1,3.8763,space,2.3184,0,122,122,324,1,,,5f782504951dda38db3ef0b6,61b9002518bdeb1ec81fd380,2021-12-15_09h36.51.256,PRaM,2021.2.3,Win32,59.89099838,61b8f3437b89212fae0dfade
3,3.1462,space,1.63,0,123,123,126,1,,,5f782504951dda38db3ef0b6,61b9002518bdeb1ec81fd380,2021-12-15_09h36.51.256,PRaM,2021.2.3,Win32,59.89099838,61b8f3437b89212fae0dfade
3,6.9807,space,5.3903,0,124,124,119,1,,,5f782504951dda38db3ef0b6,61b9002518bdeb1ec81fd380,2021-12-15_09h36.51.256,PRaM,2021.2.3,Win32,59.89099838,61b8f3437b89212fae0dfade
1,2.2824,space,0.7558,0,125,125,128,1,,,5f782504951dda38db3ef0b6,61b9002518bdeb1ec81fd380,2021-12-15_09h36.51.256,PRaM,2021.2.3,Win32,59.89099838,61b8f3437b89212fae0dfade
4,3.1909,space,1.7101,0,126,126,154,1,,,5f782504951dda38db3ef0b6,61b9002518bdeb1ec81fd380,2021-12-15_09h36.51.256,PRaM,2021.2.3,Win32,59.89099838,61b8f3437b89212fae0dfade
1,2.2985,space,0.7032,0,127,127,308,1,,,5f782504951dda38db3ef0b6,61b9002518bdeb1ec81fd380,2021-12-15_09h36.51.256,PRaM,2021.2.3,Win32,59.89099838,61b8f3437b89212fae0dfade
2,13.4302,space,11.8242,0,128,128,339,1,,,5f782504951dda38db3ef0b6,61b9002518bdeb1ec81fd380,2021-12-15_09h36.51.256,PRaM,2021.2.3,Win32,59.89099838,61b8f3437b89212fae0dfade
5,10.2942,space,8.7312,0,129,129,291,1,,,5f782504951dda38db3ef0b6,61b9002518bdeb1ec81fd380,2021-12-15_09h36.51.256,PRaM,2021.2.3,Win32,59.89099838,61b8f3437b89212fae0dfade
3,3.4885,space,1.8933,0,130,130,120,1,,,5f782504951dda38db3ef0b6,61b9002518bdeb1ec81fd380,2021-12-15_09h36.51.256,PRaM,2021.2.3,Win32,59.89099838,61b8f3437b89212fae0dfade
1,5.3572,space,5.8182,0,131,131,356,1,,,5f782504951dda38db3ef0b6,61b9002518bdeb1ec81fd380,2021-12-15_09h36.51.256,PRaM,2021.2.3,Win32,59.89099838,61b8f3437b89212fae0dfade
2,5.3702,space,3.8006,0,132,132,306,1,,,5f782504951dda38db3ef0b6,61b9002518bdeb1ec81fd380,2021-12-15_09h36.51.256,PRaM,2021.2.3,Win32,59.89099838,61b8f3437b89212fae0dfade
1,6.9183,space,5.3598,0,133,133,49,1,,,5f782504951dda38db3ef0b6,61b9002518bdeb1ec81fd380,2021-12-15_09h36.51.256,PRaM,2021.2.3,Win32,59.89099838,61b8f3437b89212fae0dfade
2,3.5334,space,1.8881,0,134,134,368,1,,,5f782504951dda38db3ef0b6,61b9002518bdeb1ec81fd380,2021-12-15_09h36.51.256,PRaM,2021.2.3,Win32,59.89099838,61b8f3437b89212fae0dfade
3,9.2943,space,7.6552,0,135,135,180,1,,,5f782504951dda38db3ef0b6,61b9002518bdeb1ec81fd380,2021-12-15_09h36.51.256,PRaM,2021.2.3,Win32,59.89099838,61b8f3437b89212fae0dfade
1,3.3719,space,1.7795,0,136,136,28,1,,,5f782504951dda38db3ef0b6,61b9002518bdeb1ec81fd380,2021-12-15_09h36.51.256,PRaM,2021.2.3,Win32,59.89099838,61b8f3437b89212fae0dfade
1,5.6147,space,4.0465,0,137,137,360,1,,,5f782504951dda38db3ef0b6,61b9002518bdeb1ec81fd380,2021-12-15_09h36.51.256,PRaM,2021.2.3,Win32,59.89099838,61b8f3437b89212fae0dfade
1,2.2599,space,0.6973,0,138,138,8,1,,,5f782504951dda38db3ef0b6,61b9002518bdeb1ec81fd380,2021-12-15_09h36.51.256,PRaM,2021.2.3,Win32,59.89099838,61b8f3437b89212fae0dfade
3,2.6093,space,1.04,0,139,139,363,1,,,5f782504951dda38db3ef0b6,61b9002518bdeb1ec81fd380,2021-12-15_09h36.51.256,PRaM,2021.2.3,Win32,59.89099838,61b8f3437b89212fae0dfade
5,4.6705,space,3.0985,0,140,140,17,1,,,5f782504951dda38db3ef0b6,61b9002518bdeb1ec81fd380,2021-12-15_09h36.51.256,PRaM,2021.2.3,Win32,59.89099838,61b8f3437b89212fae0dfade
4,7.5117,space,5.9554,0,141,141,7,1,,,5f782504951dda38db3ef0b6,61b9002518bdeb1ec81fd380,2021-12-15_09h36.51.256,PRaM,2021.2.3,Win32,59.89099838,61b8f3437b89212fae0dfade
1,3.0345,space,2.3532,0,142,142,217,1,,,5f782504951dda38db3ef0b6,61b9002518bdeb1ec81fd380,2021-12-15_09h36.51.256,PRaM,2021.2.3,Win32,59.89099838,61b8f3437b89212fae0dfade
2,2.5227,space,0.9384,0,143,143,99,1,,,5f782504951dda38db3ef0b6,61b9002518bdeb1ec81fd380,2021-12-15_09h36.51.256,PRaM,2021.2.3,Win32,59.89099838,61b8f3437b89212fae0dfade
2,5.7659,space,4.1425,0,144,144,164,1,,,5f782504951dda38db3ef0b6,61b9002518bdeb1ec81fd380,2021-12-15_09h36.51.256,PRaM,2021.2.3,Win32,59.89099838,61b8f3437b89212fae0dfade
1,3.3865,space,1.938,0,145,145,82,1,,,5f782504951dda38db3ef0b6,61b9002518bdeb1ec81fd380,2021-12-15_09h36.51.256,PRaM,2021.2.3,Win32,59.89099838,61b8f3437b89212fae0dfade
1,3.4216,space,2.747,0,146,146,341,1,,,5f782504951dda38db3ef0b6,61b9002518bdeb1ec81fd380,2021-12-15_09h36.51.256,PRaM,2021.2.3,Win32,59.89099838,61b8f3437b89212fae0dfade
1,7.027,space,5.5369,0,147,147,361,1,,,5f782504951dda38db3ef0b6,61b9002518bdeb1ec81fd380,2021-12-15_09h36.51.256,PRaM,2021.2.3,Win32,59.89099838,61b8f3437b89212fae0dfade
1,2.7877,space,1.2275,0,148,148,24,1,,,5f782504951dda38db3ef0b6,61b9002518bdeb1ec81fd380,2021-12-15_09h36.51.256,PRaM,2021.2.3,Win32,59.89099838,61b8f3437b89212fae0dfade
1,7.9222,space,6.3851,0,149,149,73,1,,,5f782504951dda38db3ef0b6,61b9002518bdeb1ec81fd380,2021-12-15_09h36.51.256,PRaM,2021.2.3,Win32,59.89099838,61b8f3437b89212fae0dfade
3,2.3742,space,0.8863,0,150,150,333,1,,,5f782504951dda38db3ef0b6,61b9002518bdeb1ec81fd380,2021-12-15_09h36.51.256,PRaM,2021.2.3,Win32,59.89099838,61b8f3437b89212fae0dfade
4,3.7177,space,2.186,0,151,151,239,1,,,5f782504951dda38db3ef0b6,61b9002518bdeb1ec81fd380,2021-12-15_09h36.51.256,PRaM,2021.2.3,Win32,59.89099838,61b8f3437b89212fae0dfade
1,6.1501,space,4.532,0,152,152,189,1,,,5f782504951dda38db3ef0b6,61b9002518bdeb1ec81fd380,2021-12-15_09h36.51.256,PRaM,2021.2.3,Win32,59.89099838,61b8f3437b89212fae0dfade
1,7.1314,space,5.5115,0,153,153,212,1,,,5f782504951dda38db3ef0b6,61b9002518bdeb1ec81fd380,2021-12-15_09h36.51.256,PRaM,2021.2.3,Win32,59.89099838,61b8f3437b89212fae0dfade
1,2.7654,space,1.2499,0,154,154,169,1,,,5f782504951dda38db3ef0b6,61b9002518bdeb1ec81fd380,2021-12-15_09h36.51.256,PRaM,2021.2.3,Win32,59.89099838,61b8f3437b89212fae0dfade
1,3.7745,space,2.1241,0,155,155,275,1,,,5f782504951dda38db3ef0b6,61b9002518bdeb1ec81fd380,2021-12-15_09h36.51.256,PRaM,2021.2.3,Win32,59.89099838,61b8f3437b89212fae0dfade
7,5.6935,space,4.3384,0,156,156,320,1,,,5f782504951dda38db3ef0b6,61b9002518bdeb1ec81fd380,2021-12-15_09h36.51.256,PRaM,2021.2.3,Win32,59.89099838,61b8f3437b89212fae0dfade
1,4.5058,space,3.0106,0,157,157,95,1,,,5f782504951dda38db3ef0b6,61b9002518bdeb1ec81fd380,2021-12-15_09h36.51.256,PRaM,2021.2.3,Win32,59.89099838,61b8f3437b89212fae0dfade
3,3.0078,space,1.5268,0,158,158,25,1,,,5f782504951dda38db3ef0b6,61b9002518bdeb1ec81fd380,2021-12-15_09h36.51.256,PRaM,2021.2.3,Win32,59.89099838,61b8f3437b89212fae0dfade
1,2.7358,space,1.1561,0,159,159,240,1,,,5f782504951dda38db3ef0b6,61b9002518bdeb1ec81fd380,2021-12-15_09h36.51.256,PRaM,2021.2.3,Win32,59.89099838,61b8f3437b89212fae0dfade
1,2.1267,space,1.6144,0,160,160,353,1,,,5f782504951dda38db3ef0b6,61b9002518bdeb1ec81fd380,2021-12-15_09h36.51.256,PRaM,2021.2.3,Win32,59.89099838,61b8f3437b89212fae0dfade
2,5.6006,space,3.9918,0,161,161,357,1,,,5f782504951dda38db3ef0b6,61b9002518bdeb1ec81fd380,2021-12-15_09h36.51.256,PRaM,2021.2.3,Win32,59.89099838,61b8f3437b89212fae0dfade
1,2.3195,space,0.7767,0,162,162,260,1,,,5f782504951dda38db3ef0b6,61b9002518bdeb1ec81fd380,2021-12-15_09h36.51.256,PRaM,2021.2.3,Win32,59.89099838,61b8f3437b89212fae0dfade
5,5.7628,space,4.2768,0,163,163,16,1,,,5f782504951dda38db3ef0b6,61b9002518bdeb1ec81fd380,2021-12-15_09h36.51.256,PRaM,2021.2.3,Win32,59.89099838,61b8f3437b89212fae0dfade
1,2.4304,space,0.8338,0,164,164,130,1,,,5f782504951dda38db3ef0b6,61b9002518bdeb1ec81fd380,2021-12-15_09h36.51.256,PRaM,2021.2.3,Win32,59.89099838,61b8f3437b89212fae0dfade
3,3.5297,space,3.4491,0,165,165,134,1,,,5f782504951dda38db3ef0b6,61b9002518bdeb1ec81fd380,2021-12-15_09h36.51.256,PRaM,2021.2.3,Win32,59.89099838,61b8f3437b89212fae0dfade
5,3.4686,space,1.9584,0,166,166,259,1,,,5f782504951dda38db3ef0b6,61b9002518bdeb1ec81fd380,2021-12-15_09h36.51.256,PRaM,2021.2.3,Win32,59.89099838,61b8f3437b89212fae0dfade
1,3.6826,space,2.2975,0,167,167,26,1,,,5f782504951dda38db3ef0b6,61b9002518bdeb1ec81fd380,2021-12-15_09h36.51.256,PRaM,2021.2.3,Win32,59.89099838,61b8f3437b89212fae0dfade
2,2.2603,space,0.7515,0,168,168,340,1,,,5f782504951dda38db3ef0b6,61b9002518bdeb1ec81fd380,2021-12-15_09h36.51.256,PRaM,2021.2.3,Win32,59.89099838,61b8f3437b89212fae0dfade
1,2.7729,space,1.1403,0,169,169,145,1,,,5f782504951dda38db3ef0b6,61b9002518bdeb1ec81fd380,2021-12-15_09h36.51.256,PRaM,2021.2.3,Win32,59.89099838,61b8f3437b89212fae0dfade
1,2.6993,space,1.1654,0,170,170,184,1,,,5f782504951dda38db3ef0b6,61b9002518bdeb1ec81fd380,2021-12-15_09h36.51.256,PRaM,2021.2.3,Win32,59.89099838,61b8f3437b89212fae0dfade
1,5.3508,space,4.1185,0,171,171,342,1,,,5f782504951dda38db3ef0b6,61b9002518bdeb1ec81fd380,2021-12-15_09h36.51.256,PRaM,2021.2.3,Win32,59.89099838,61b8f3437b89212fae0dfade
5,6.5181,space,4.9668,0,172,172,213,1,,,5f782504951dda38db3ef0b6,61b9002518bdeb1ec81fd380,2021-12-15_09h36.51.256,PRaM,2021.2.3,Win32,59.89099838,61b8f3437b89212fae0dfade
4,5.9535,space,4.3956,0,173,173,43,1,,,5f782504951dda38db3ef0b6,61b9002518bdeb1ec81fd380,2021-12-15_09h36.51.256,PRaM,2021.2.3,Win32,59.89099838,61b8f3437b89212fae0dfade
1,5.4677,space,3.9366,0,174,174,359,1,,,5f782504951dda38db3ef0b6,61b9002518bdeb1ec81fd380,2021-12-15_09h36.51.256,PRaM,2021.2.3,Win32,59.89099838,61b8f3437b89212fae0dfade
1,2.4416,space,0.8786,0,175,175,161,1,,,5f782504951dda38db3ef0b6,61b9002518bdeb1ec81fd380,2021-12-15_09h36.51.256,PRaM,2021.2.3,Win32,59.89099838,61b8f3437b89212fae0dfade
1,2.1905,space,0.6686,0,176,176,171,1,,,5f782504951dda38db3ef0b6,61b9002518bdeb1ec81fd380,2021-12-15_09h36.51.256,PRaM,2021.2.3,Win32,59.89099838,61b8f3437b89212fae0dfade
2,4.6044,space,2.9744,0,177,177,332,1,,,5f782504951dda38db3ef0b6,61b9002518bdeb1ec81fd380,2021-12-15_09h36.51.256,PRaM,2021.2.3,Win32,59.89099838,61b8f3437b89212fae0dfade
3,5.6172,space,4.0271,0,178,178,62,1,,,5f782504951dda38db3ef0b6,61b9002518bdeb1ec81fd380,2021-12-15_09h36.51.256,PRaM,2021.2.3,Win32,59.89099838,61b8f3437b89212fae0dfade
7,6.4852,space,6.5213,0,179,179,319,1,,,5f782504951dda38db3ef0b6,61b9002518bdeb1ec81fd380,2021-12-15_09h36.51.256,PRaM,2021.2.3,Win32,59.89099838,61b8f3437b89212fae0dfade
1,2.5927,space,1.05,0,180,180,138,1,,,5f782504951dda38db3ef0b6,61b9002518bdeb1ec81fd380,2021-12-15_09h36.51.256,PRaM,2021.2.3,Win32,59.89099838,61b8f3437b89212fae0dfade
1,6.6162,space,5.0528,0,181,181,223,1,,,5f782504951dda38db3ef0b6,61b9002518bdeb1ec81fd380,2021-12-15_09h36.51.256,PRaM,2021.2.3,Win32,59.89099838,61b8f3437b89212fae0dfade
1,2.4023,space,0.7905,0,182,182,373,1,,,5f782504951dda38db3ef0b6,61b9002518bdeb1ec81fd380,2021-12-15_09h36.51.256,PRaM,2021.2.3,Win32,59.89099838,61b8f3437b89212fae0dfade
5,2.8211,space,1.4223,0,183,183,328,1,,,5f782504951dda38db3ef0b6,61b9002518bdeb1ec81fd380,2021-12-15_09h36.51.256,PRaM,2021.2.3,Win32,59.89099838,61b8f3437b89212fae0dfade
4,3.8797,space,2.3008,0,184,184,32,1,,,5f782504951dda38db3ef0b6,61b9002518bdeb1ec81fd380,2021-12-15_09h36.51.256,PRaM,2021.2.3,Win32,59.89099838,61b8f3437b89212fae0dfade
4,2.2131,space,2.2436,0,185,185,226,1,,,5f782504951dda38db3ef0b6,61b9002518bdeb1ec81fd380,2021-12-15_09h36.51.256,PRaM,2021.2.3,Win32,59.89099838,61b8f3437b89212fae0dfade
3,12.3264,space,10.7434,0,186,186,48,1,,,5f782504951dda38db3ef0b6,61b9002518bdeb1ec81fd380,2021-12-15_09h36.51.256,PRaM,2021.2.3,Win32,59.89099838,61b8f3437b89212fae0dfade
2,4.3195,space,2.8264,0,187,187,141,1,,,5f782504951dda38db3ef0b6,61b9002518bdeb1ec81fd380,2021-12-15_09h36.51.256,PRaM,2021.2.3,Win32,59.89099838,61b8f3437b89212fae0dfade
1,2.2829,space,0.7344,0,188,188,247,1,,,5f782504951dda38db3ef0b6,61b9002518bdeb1ec81fd380,2021-12-15_09h36.51.256,PRaM,2021.2.3,Win32,59.89099838,61b8f3437b89212fae0dfade
1,2.9195,space,1.381,0,189,189,106,1,,,5f782504951dda38db3ef0b6,61b9002518bdeb1ec81fd380,2021-12-15_09h36.51.256,PRaM,2021.2.3,Win32,59.89099838,61b8f3437b89212fae0dfade
1,4.8024,space,3.2717,0,190,190,50,1,,,5f782504951dda38db3ef0b6,61b9002518bdeb1ec81fd380,2021-12-15_09h36.51.256,PRaM,2021.2.3,Win32,59.89099838,61b8f3437b89212fae0dfade
2,2.0505,space,0.4412,0,191,191,281,1,,,5f782504951dda38db3ef0b6,61b9002518bdeb1ec81fd380,2021-12-15_09h36.51.256,PRaM,2021.2.3,Win32,59.89099838,61b8f3437b89212fae0dfade
1,2.3929,space,0.8348,0,192,192,91,1,,,5f782504951dda38db3ef0b6,61b9002518bdeb1ec81fd380,2021-12-15_09h36.51.256,PRaM,2021.2.3,Win32,59.89099838,61b8f3437b89212fae0dfade
1,2.0638,space,0.4769,0,193,193,309,1,,,5f782504951dda38db3ef0b6,61b9002518bdeb1ec81fd380,2021-12-15_09h36.51.256,PRaM,2021.2.3,Win32,59.89099838,61b8f3437b89212fae0dfade
1,2.1351,space,0.5649,0,194,194,131,1,,,5f782504951dda38db3ef0b6,61b9002518bdeb1ec81fd380,2021-12-15_09h36.51.256,PRaM,2021.2.3,Win32,59.89099838,61b8f3437b89212fae0dfade
4,8.0768,space,6.4962,0,195,195,156,1,,,5f782504951dda38db3ef0b6,61b9002518bdeb1ec81fd380,2021-12-15_09h36.51.256,PRaM,2021.2.3,Win32,59.89099838,61b8f3437b89212fae0dfade
2,3.3326,space,1.6949,0,196,196,101,1,,,5f782504951dda38db3ef0b6,61b9002518bdeb1ec81fd380,2021-12-15_09h36.51.256,PRaM,2021.2.3,Win32,59.89099838,61b8f3437b89212fae0dfade
1,2.5707,space,1.0232,0,197,197,34,1,,,5f782504951dda38db3ef0b6,61b9002518bdeb1ec81fd380,2021-12-15_09h36.51.256,PRaM,2021.2.3,Win32,59.89099838,61b8f3437b89212fae0dfade
1,3.0132,space,1.3976,0,198,198,54,1,,,5f782504951dda38db3ef0b6,61b9002518bdeb1ec81fd380,2021-12-15_09h36.51.256,PRaM,2021.2.3,Win32,59.89099838,61b8f3437b89212fae0dfade
1,5.4241,space,3.8685,0,199,199,284,1,,,5f782504951dda38db3ef0b6,61b9002518bdeb1ec81fd380,2021-12-15_09h36.51.256,PRaM,2021.2.3,Win32,59.89099838,61b8f3437b89212fae0dfade
4,3.4178,space,5.2611,0,200,200,201,1,,,5f782504951dda38db3ef0b6,61b9002518bdeb1ec81fd380,2021-12-15_09h36.51.256,PRaM,2021.2.3,Win32,59.89099838,61b8f3437b89212fae0dfade
4,4.3938,space,2.8029,0,201,201,20,1,,,5f782504951dda38db3ef0b6,61b9002518bdeb1ec81fd380,2021-12-15_09h36.51.256,PRaM,2021.2.3,Win32,59.89099838,61b8f3437b89212fae0dfade
1,3.7441,space,2.1828,0,202,202,142,1,,,5f782504951dda38db3ef0b6,61b9002518bdeb1ec81fd380,2021-12-15_09h36.51.256,PRaM,2021.2.3,Win32,59.89099838,61b8f3437b89212fae0dfade
5,2.8821,space,2.5659,0,203,203,83,1,,,5f782504951dda38db3ef0b6,61b9002518bdeb1ec81fd380,2021-12-15_09h36.51.256,PRaM,2021.2.3,Win32,59.89099838,61b8f3437b89212fae0dfade
1,4.3171,space,2.6693,0,204,204,235,1,,,5f782504951dda38db3ef0b6,61b9002518bdeb1ec81fd380,2021-12-15_09h36.51.256,PRaM,2021.2.3,Win32,59.89099838,61b8f3437b89212fae0dfade
2,3.9754,space,2.33,0,205,205,140,1,,,5f782504951dda38db3ef0b6,61b9002518bdeb1ec81fd380,2021-12-15_09h36.51.256,PRaM,2021.2.3,Win32,59.89099838,61b8f3437b89212fae0dfade
1,2.3441,space,0.7944,0,206,206,70,1,,,5f782504951dda38db3ef0b6,61b9002518bdeb1ec81fd380,2021-12-15_09h36.51.256,PRaM,2021.2.3,Win32,59.89099838,61b8f3437b89212fae0dfade
1,2.2808,space,0.6875,0,207,207,204,1,,,5f782504951dda38db3ef0b6,61b9002518bdeb1ec81fd380,2021-12-15_09h36.51.256,PRaM,2021.2.3,Win32,59.89099838,61b8f3437b89212fae0dfade
4,2.7864,space,1.1357,0,208,208,93,1,,,5f782504951dda38db3ef0b6,61b9002518bdeb1ec81fd380,2021-12-15_09h36.51.256,PRaM,2021.2.3,Win32,59.89099838,61b8f3437b89212fae0dfade
3,4.7821,space,4.8172,0,209,209,298,1,,,5f782504951dda38db3ef0b6,61b9002518bdeb1ec81fd380,2021-12-15_09h36.51.256,PRaM,2021.2.3,Win32,59.89099838,61b8f3437b89212fae0dfade
1,4.0451,space,2.4681,0,210,210,190,1,,,5f782504951dda38db3ef0b6,61b9002518bdeb1ec81fd380,2021-12-15_09h36.51.256,PRaM,2021.2.3,Win32,59.89099838,61b8f3437b89212fae0dfade
1,2.9894,space,2.7766,0,211,211,374,1,,,5f782504951dda38db3ef0b6,61b9002518bdeb1ec81fd380,2021-12-15_09h36.51.256,PRaM,2021.2.3,Win32,59.89099838,61b8f3437b89212fae0dfade
1,6.4665,space,4.8636,0,212,212,103,1,,,5f782504951dda38db3ef0b6,61b9002518bdeb1ec81fd380,2021-12-15_09h36.51.256,PRaM,2021.2.3,Win32,59.89099838,61b8f3437b89212fae0dfade
1,4.6137,space,3.0337,0,213,213,251,1,,,5f782504951dda38db3ef0b6,61b9002518bdeb1ec81fd380,2021-12-15_09h36.51.256,PRaM,2021.2.3,Win32,59.89099838,61b8f3437b89212fae0dfade
1,2.4029,space,0.8523,0,214,214,266,1,,,5f782504951dda38db3ef0b6,61b9002518bdeb1ec81fd380,2021-12-15_09h36.51.256,PRaM,2021.2.3,Win32,59.89099838,61b8f3437b89212fae0dfade
4,3.3714,space,2.1514,0,215,215,63,1,,,5f782504951dda38db3ef0b6,61b9002518bdeb1ec81fd380,2021-12-15_09h36.51.256,PRaM,2021.2.3,Win32,59.89099838,61b8f3437b89212fae0dfade
1,3.019,space,1.4016,0,216,216,39,1,,,5f782504951dda38db3ef0b6,61b9002518bdeb1ec81fd380,2021-12-15_09h36.51.256,PRaM,2021.2.3,Win32,59.89099838,61b8f3437b89212fae0dfade
1,4.2688,space,2.7361,0,217,217,330,1,,,5f782504951dda38db3ef0b6,61b9002518bdeb1ec81fd380,2021-12-15_09h36.51.256,PRaM,2021.2.3,Win32,59.89099838,61b8f3437b89212fae0dfade
5,3.4258,space,2.458,0,218,218,279,1,,,5f782504951dda38db3ef0b6,61b9002518bdeb1ec81fd380,2021-12-15_09h36.51.256,PRaM,2021.2.3,Win32,59.89099838,61b8f3437b89212fae0dfade
1,4.2158,space,2.6343,0,219,219,163,1,,,5f782504951dda38db3ef0b6,61b9002518bdeb1ec81fd380,2021-12-15_09h36.51.256,PRaM,2021.2.3,Win32,59.89099838,61b8f3437b89212fae0dfade
1,2.1477,space,0.63,0,220,220,245,1,,,5f782504951dda38db3ef0b6,61b9002518bdeb1ec81fd380,2021-12-15_09h36.51.256,PRaM,2021.2.3,Win32,59.89099838,61b8f3437b89212fae0dfade
1,2.6817,space,1.1385,0,221,221,227,1,,,5f782504951dda38db3ef0b6,61b9002518bdeb1ec81fd380,2021-12-15_09h36.51.256,PRaM,2021.2.3,Win32,59.89099838,61b8f3437b89212fae0dfade
2,5.6107,space,4.0131,0,222,222,346,1,,,5f782504951dda38db3ef0b6,61b9002518bdeb1ec81fd380,2021-12-15_09h36.51.256,PRaM,2021.2.3,Win32,59.89099838,61b8f3437b89212fae0dfade
1,2.7213,space,1.1084,0,223,223,104,1,,,5f782504951dda38db3ef0b6,61b9002518bdeb1ec81fd380,2021-12-15_09h36.51.256,PRaM,2021.2.3,Win32,59.89099838,61b8f3437b89212fae0dfade
1,1.9722,space,0.3675,0,224,224,55,1,,,5f782504951dda38db3ef0b6,61b9002518bdeb1ec81fd380,2021-12-15_09h36.51.256,PRaM,2021.2.3,Win32,59.89099838,61b8f3437b89212fae0dfade
1,2.7202,space,1.0684,0,225,225,292,1,,,5f782504951dda38db3ef0b6,61b9002518bdeb1ec81fd380,2021-12-15_09h36.51.256,PRaM,2021.2.3,Win32,59.89099838,61b8f3437b89212fae0dfade
6,7.4686,space,5.8459,0,226,226,302,1,,,5f782504951dda38db3ef0b6,61b9002518bdeb1ec81fd380,2021-12-15_09h36.51.256,PRaM,2021.2.3,Win32,59.89099838,61b8f3437b89212fae0dfade
3,3.2778,space,10.0405,0,227,227,127,1,,,5f782504951dda38db3ef0b6,61b9002518bdeb1ec81fd380,2021-12-15_09h36.51.256,PRaM,2021.2.3,Win32,59.89099838,61b8f3437b89212fae0dfade
3,3.1485,space,6.4656,0,228,228,271,1,,,5f782504951dda38db3ef0b6,61b9002518bdeb1ec81fd380,2021-12-15_09h36.51.256,PRaM,2021.2.3,Win32,59.89099838,61b8f3437b89212fae0dfade
3,3.8183,space,2.2666,0,229,229,76,1,,,5f782504951dda38db3ef0b6,61b9002518bdeb1ec81fd380,2021-12-15_09h36.51.256,PRaM,2021.2.3,Win32,59.89099838,61b8f3437b89212fae0dfade
6,3.0429,space,1.6624,0,230,230,301,1,,,5f782504951dda38db3ef0b6,61b9002518bdeb1ec81fd380,2021-12-15_09h36.51.256,PRaM,2021.2.3,Win32,59.89099838,61b8f3437b89212fae0dfade
7,5.0602,space,3.5808,0,231,231,38,1,,,5f782504951dda38db3ef0b6,61b9002518bdeb1ec81fd380,2021-12-15_09h36.51.256,PRaM,2021.2.3,Win32,59.89099838,61b8f3437b89212fae0dfade
2,9.7155,space,8.194,0,232,232,365,1,,,5f782504951dda38db3ef0b6,61b9002518bdeb1ec81fd380,2021-12-15_09h36.51.256,PRaM,2021.2.3,Win32,59.89099838,61b8f3437b89212fae0dfade
2,2.7423,space,1.1787,0,233,233,209,1,,,5f782504951dda38db3ef0b6,61b9002518bdeb1ec81fd380,2021-12-15_09h36.51.256,PRaM,2021.2.3,Win32,59.89099838,61b8f3437b89212fae0dfade
1,2.5916,space,1.0916,0,234,234,295,1,,,5f782504951dda38db3ef0b6,61b9002518bdeb1ec81fd380,2021-12-15_09h36.51.256,PRaM,2021.2.3,Win32,59.89099838,61b8f3437b89212fae0dfade
7,2.7793,space,1.2559,0,235,235,334,1,,,5f782504951dda38db3ef0b6,61b9002518bdeb1ec81fd380,2021-12-15_09h36.51.256,PRaM,2021.2.3,Win32,59.89099838,61b8f3437b89212fae0dfade
1,5.0182,space,3.5543,0,236,236,311,1,,,5f782504951dda38db3ef0b6,61b9002518bdeb1ec81fd380,2021-12-15_09h36.51.256,PRaM,2021.2.3,Win32,59.89099838,61b8f3437b89212fae0dfade
1,2.1849,space,0.6539,0,237,237,268,1,,,5f782504951dda38db3ef0b6,61b9002518bdeb1ec81fd380,2021-12-15_09h36.51.256,PRaM,2021.2.3,Win32,59.89099838,61b8f3437b89212fae0dfade
2,5.9581,space,4.3741,0,238,238,256,1,,,5f782504951dda38db3ef0b6,61b9002518bdeb1ec81fd380,2021-12-15_09h36.51.256,PRaM,2021.2.3,Win32,59.89099838,61b8f3437b89212fae0dfade
8,11.0459,space,9.5082,0,239,239,323,1,,,5f782504951dda38db3ef0b6,61b9002518bdeb1ec81fd380,2021-12-15_09h36.51.256,PRaM,2021.2.3,Win32,59.89099838,61b8f3437b89212fae0dfade
7,3.7561,space,2.1114,0,240,240,112,1,,,5f782504951dda38db3ef0b6,61b9002518bdeb1ec81fd380,2021-12-15_09h36.51.256,PRaM,2021.2.3,Win32,59.89099838,61b8f3437b89212fae0dfade
3,6.7911,space,5.179,0,241,241,192,1,,,5f782504951dda38db3ef0b6,61b9002518bdeb1ec81fd380,2021-12-15_09h36.51.256,PRaM,2021.2.3,Win32,59.89099838,61b8f3437b89212fae0dfade
1,2.5382,space,1.0311,0,242,242,15,1,,,5f782504951dda38db3ef0b6,61b9002518bdeb1ec81fd380,2021-12-15_09h36.51.256,PRaM,2021.2.3,Win32,59.89099838,61b8f3437b89212fae0dfade
9,6.2849,space,4.8027,0,243,243,276,1,,,5f782504951dda38db3ef0b6,61b9002518bdeb1ec81fd380,2021-12-15_09h36.51.256,PRaM,2021.2.3,Win32,59.89099838,61b8f3437b89212fae0dfade
1,3.7394,space,2.1678,0,244,244,282,1,,,5f782504951dda38db3ef0b6,61b9002518bdeb1ec81fd380,2021-12-15_09h36.51.256,PRaM,2021.2.3,Win32,59.89099838,61b8f3437b89212fae0dfade
1,5.6601,space,4.0339,0,245,245,21,1,,,5f782504951dda38db3ef0b6,61b9002518bdeb1ec81fd380,2021-12-15_09h36.51.256,PRaM,2021.2.3,Win32,59.89099838,61b8f3437b89212fae0dfade
3,2.9371,space,2.252,0,246,246,314,1,,,5f782504951dda38db3ef0b6,61b9002518bdeb1ec81fd380,2021-12-15_09h36.51.256,PRaM,2021.2.3,Win32,59.89099838,61b8f3437b89212fae0dfade
1,3.1811,space,1.7176,0,247,247,58,1,,,5f782504951dda38db3ef0b6,61b9002518bdeb1ec81fd380,2021-12-15_09h36.51.256,PRaM,2021.2.3,Win32,59.89099838,61b8f3437b89212fae0dfade
3,5.57,space,4.1145,0,248,248,337,1,,,5f782504951dda38db3ef0b6,61b9002518bdeb1ec81fd380,2021-12-15_09h36.51.256,PRaM,2021.2.3,Win32,59.89099838,61b8f3437b89212fae0dfade
1,2.7582,space,1.2022,0,249,249,317,1,,,5f782504951dda38db3ef0b6,61b9002518bdeb1ec81fd380,2021-12-15_09h36.51.256,PRaM,2021.2.3,Win32,59.89099838,61b8f3437b89212fae0dfade
2,5.4179,space,3.9568,0,250,250,98,1,,,5f782504951dda38db3ef0b6,61b9002518bdeb1ec81fd380,2021-12-15_09h36.51.256,PRaM,2021.2.3,Win32,59.89099838,61b8f3437b89212fae0dfade
1,2.2972,space,0.7973,0,251,251,263,1,,,5f782504951dda38db3ef0b6,61b9002518bdeb1ec81fd380,2021-12-15_09h36.51.256,PRaM,2021.2.3,Win32,59.89099838,61b8f3437b89212fae0dfade
7,4.4387,space,2.9419,0,252,252,348,1,,,5f782504951dda38db3ef0b6,61b9002518bdeb1ec81fd380,2021-12-15_09h36.51.256,PRaM,2021.2.3,Win32,59.89099838,61b8f3437b89212fae0dfade
8,3.5035,space,1.9288,0,253,253,197,1,,,5f782504951dda38db3ef0b6,61b9002518bdeb1ec81fd380,2021-12-15_09h36.51.256,PRaM,2021.2.3,Win32,59.89099838,61b8f3437b89212fae0dfade
1,5.535,space,3.9708,0,254,254,94,1,,,5f782504951dda38db3ef0b6,61b9002518bdeb1ec81fd380,2021-12-15_09h36.51.256,PRaM,2021.2.3,Win32,59.89099838,61b8f3437b89212fae0dfade
7,3.7702,space,5.0311,0,255,255,3,1,,,5f782504951dda38db3ef0b6,61b9002518bdeb1ec81fd380,2021-12-15_09h36.51.256,PRaM,2021.2.3,Win32,59.89099838,61b8f3437b89212fae0dfade
1,2.762,space,1.2093,0,256,256,231,1,,,5f782504951dda38db3ef0b6,61b9002518bdeb1ec81fd380,2021-12-15_09h36.51.256,PRaM,2021.2.3,Win32,59.89099838,61b8f3437b89212fae0dfade
1,2.216,space,0.661,0,257,257,343,1,,,5f782504951dda38db3ef0b6,61b9002518bdeb1ec81fd380,2021-12-15_09h36.51.256,PRaM,2021.2.3,Win32,59.89099838,61b8f3437b89212fae0dfade
2,2.5721,space,1.0015,0,258,258,177,1,,,5f782504951dda38db3ef0b6,61b9002518bdeb1ec81fd380,2021-12-15_09h36.51.256,PRaM,2021.2.3,Win32,59.89099838,61b8f3437b89212fae0dfade
3,7.1043,space,5.5703,0,259,259,273,1,,,5f782504951dda38db3ef0b6,61b9002518bdeb1ec81fd380,2021-12-15_09h36.51.256,PRaM,2021.2.3,Win32,59.89099838,61b8f3437b89212fae0dfade
1,2.3234,space,0.8433,0,260,260,272,1,,,5f782504951dda38db3ef0b6,61b9002518bdeb1ec81fd380,2021-12-15_09h36.51.256,PRaM,2021.2.3,Win32,59.89099838,61b8f3437b89212fae0dfade
1,2.1596,space,0.5715,0,261,261,23,1,,,5f782504951dda38db3ef0b6,61b9002518bdeb1ec81fd380,2021-12-15_09h36.51.256,PRaM,2021.2.3,Win32,59.89099838,61b8f3437b89212fae0dfade
1,12.2639,space,10.6332,0,262,262,147,1,,,5f782504951dda38db3ef0b6,61b9002518bdeb1ec81fd380,2021-12-15_09h36.51.256,PRaM,2021.2.3,Win32,59.89099838,61b8f3437b89212fae0dfade
2,3.4216,space,1.8228,0,263,263,228,1,,,5f782504951dda38db3ef0b6,61b9002518bdeb1ec81fd380,2021-12-15_09h36.51.256,PRaM,2021.2.3,Win32,59.89099838,61b8f3437b89212fae0dfade
5,4.8578,space,3.3001,0,264,264,196,1,,,5f782504951dda38db3ef0b6,61b9002518bdeb1ec81fd380,2021-12-15_09h36.51.256,PRaM,2021.2.3,Win32,59.89099838,61b8f3437b89212fae0dfade
1,6.2053,space,4.6329,0,265,265,81,1,,,5f782504951dda38db3ef0b6,61b9002518bdeb1ec81fd380,2021-12-15_09h36.51.256,PRaM,2021.2.3,Win32,59.89099838,61b8f3437b89212fae0dfade
1,2.4384,space,0.8536,0,266,266,265,1,,,5f782504951dda38db3ef0b6,61b9002518bdeb1ec81fd380,2021-12-15_09h36.51.256,PRaM,2021.2.3,Win32,59.89099838,61b8f3437b89212fae0dfade
5,4.6315,space,3.1043,0,267,267,327,1,,,5f782504951dda38db3ef0b6,61b9002518bdeb1ec81fd380,2021-12-15_09h36.51.256,PRaM,2021.2.3,Win32,59.89099838,61b8f3437b89212fae0dfade
1,3.3585,space,1.7876,0,268,268,79,1,,,5f782504951dda38db3ef0b6,61b9002518bdeb1ec81fd380,2021-12-15_09h36.51.256,PRaM,2021.2.3,Win32,59.89099838,61b8f3437b89212fae0dfade
6,6.5854,space,5.0547,0,269,269,152,1,,,5f782504951dda38db3ef0b6,61b9002518bdeb1ec81fd380,2021-12-15_09h36.51.256,PRaM,2021.2.3,Win32,59.89099838,61b8f3437b89212fae0dfade
6,4.6993,space,3.2731,0,270,270,59,1,,,5f782504951dda38db3ef0b6,61b9002518bdeb1ec81fd380,2021-12-15_09h36.51.256,PRaM,2021.2.3,Win32,59.89099838,61b8f3437b89212fae0dfade
7,2.5426,space,1.2158,0,271,271,370,1,,,5f782504951dda38db3ef0b6,61b9002518bdeb1ec81fd380,2021-12-15_09h36.51.256,PRaM,2021.2.3,Win32,59.89099838,61b8f3437b89212fae0dfade
1,2.5374,space,0.9227,0,272,272,293,1,,,5f782504951dda38db3ef0b6,61b9002518bdeb1ec81fd380,2021-12-15_09h36.51.256,PRaM,2021.2.3,Win32,59.89099838,61b8f3437b89212fae0dfade
1,2.2084,space,0.5738,0,273,273,65,1,,,5f782504951dda38db3ef0b6,61b9002518bdeb1ec81fd380,2021-12-15_09h36.51.256,PRaM,2021.2.3,Win32,59.89099838,61b8f3437b89212fae0dfade
1,3.1171,space,1.5113,0,274,274,118,1,,,5f782504951dda38db3ef0b6,61b9002518bdeb1ec81fd380,2021-12-15_09h36.51.256,PRaM,2021.2.3,Win32,59.89099838,61b8f3437b89212fae0dfade
1,2.0879,space,0.4972,0,275,275,170,1,,,5f782504951dda38db3ef0b6,61b9002518bdeb1ec81fd380,2021-12-15_09h36.51.256,PRaM,2021.2.3,Win32,59.89099838,61b8f3437b89212fae0dfade
1,11.007,space,10.2012,0,276,276,300,1,,,5f782504951dda38db3ef0b6,61b9002518bdeb1ec81fd380,2021-12-15_09h36.51.256,PRaM,2021.2.3,Win32,59.89099838,61b8f3437b89212fae0dfade
1,2.9571,space,1.3386,0,277,277,377,1,,,5f782504951dda38db3ef0b6,61b9002518bdeb1ec81fd380,2021-12-15_09h36.51.256,PRaM,2021.2.3,Win32,59.89099838,61b8f3437b89212fae0dfade
1,4.028,space,2.4594,0,278,278,349,1,,,5f782504951dda38db3ef0b6,61b9002518bdeb1ec81fd380,2021-12-15_09h36.51.256,PRaM,2021.2.3,Win32,59.89099838,61b8f3437b89212fae0dfade
1,2.4171,space,0.8717,0,279,279,237,1,,,5f782504951dda38db3ef0b6,61b9002518bdeb1ec81fd380,2021-12-15_09h36.51.256,PRaM,2021.2.3,Win32,59.89099838,61b8f3437b89212fae0dfade
3,2.3997,space,0.7796,0,280,280,102,1,,,5f782504951dda38db3ef0b6,61b9002518bdeb1ec81fd380,2021-12-15_09h36.51.256,PRaM,2021.2.3,Win32,59.89099838,61b8f3437b89212fae0dfade
1,1.8046,space,0.1147,0,281,281,129,1,,,5f782504951dda38db3ef0b6,61b9002518bdeb1ec81fd380,2021-12-15_09h36.51.256,PRaM,2021.2.3,Win32,59.89099838,61b8f3437b89212fae0dfade
1,3.275,space,1.7412,0,282,282,250,1,,,5f782504951dda38db3ef0b6,61b9002518bdeb1ec81fd380,2021-12-15_09h36.51.256,PRaM,2021.2.3,Win32,59.89099838,61b8f3437b89212fae0dfade
2,6.1103,space,4.4192,0,283,283,236,1,,,5f782504951dda38db3ef0b6,61b9002518bdeb1ec81fd380,2021-12-15_09h36.51.256,PRaM,2021.2.3,Win32,59.89099838,61b8f3437b89212fae0dfade
1,4.0176,space,2.9778,0,284,284,224,1,,,5f782504951dda38db3ef0b6,61b9002518bdeb1ec81fd380,2021-12-15_09h36.51.256,PRaM,2021.2.3,Win32,59.89099838,61b8f3437b89212fae0dfade
3,3.1176,space,1.549,0,285,285,44,1,,,5f782504951dda38db3ef0b6,61b9002518bdeb1ec81fd380,2021-12-15_09h36.51.256,PRaM,2021.2.3,Win32,59.89099838,61b8f3437b89212fae0dfade
1,3.5358,space,1.8887,0,286,286,109,1,,,5f782504951dda38db3ef0b6,61b9002518bdeb1ec81fd380,2021-12-15_09h36.51.256,PRaM,2021.2.3,Win32,59.89099838,61b8f3437b89212fae0dfade
3,3.0032,space,1.6046,0,287,287,71,1,,,5f782504951dda38db3ef0b6,61b9002518bdeb1ec81fd380,2021-12-15_09h36.51.256,PRaM,2021.2.3,Win32,59.89099838,61b8f3437b89212fae0dfade
4,6.6215,space,5.0949,0,288,288,221,1,,,5f782504951dda38db3ef0b6,61b9002518bdeb1ec81fd380,2021-12-15_09h36.51.256,PRaM,2021.2.3,Win32,59.89099838,61b8f3437b89212fae0dfade
5,2.6073,space,3.0161,0,289,289,159,1,,,5f782504951dda38db3ef0b6,61b9002518bdeb1ec81fd380,2021-12-15_09h36.51.256,PRaM,2021.2.3,Win32,59.89099838,61b8f3437b89212fae0dfade
7,6.1883,space,5.163,0,290,290,285,1,,,5f782504951dda38db3ef0b6,61b9002518bdeb1ec81fd380,2021-12-15_09h36.51.256,PRaM,2021.2.3,Win32,59.89099838,61b8f3437b89212fae0dfade
1,2.3084,space,0.7195,0,291,291,362,1,,,5f782504951dda38db3ef0b6,61b9002518bdeb1ec81fd380,2021-12-15_09h36.51.256,PRaM,2021.2.3,Win32,59.89099838,61b8f3437b89212fae0dfade
1,2.2632,space,0.7394,0,292,292,13,1,,,5f782504951dda38db3ef0b6,61b9002518bdeb1ec81fd380,2021-12-15_09h36.51.256,PRaM,2021.2.3,Win32,59.89099838,61b8f3437b89212fae0dfade
1,2.2758,space,0.7637,0,293,293,36,1,,,5f782504951dda38db3ef0b6,61b9002518bdeb1ec81fd380,2021-12-15_09h36.51.256,PRaM,2021.2.3,Win32,59.89099838,61b8f3437b89212fae0dfade
7,2.5386,space,2.1235,0,294,294,331,1,,,5f782504951dda38db3ef0b6,61b9002518bdeb1ec81fd380,2021-12-15_09h36.51.256,PRaM,2021.2.3,Win32,59.89099838,61b8f3437b89212fae0dfade
2,2.0868,space,0.5128,0,295,295,246,1,,,5f782504951dda38db3ef0b6,61b9002518bdeb1ec81fd380,2021-12-15_09h36.51.256,PRaM,2021.2.3,Win32,59.89099838,61b8f3437b89212fae0dfade
1,2.9841,space,1.3579,0,296,296,97,1,,,5f782504951dda38db3ef0b6,61b9002518bdeb1ec81fd380,2021-12-15_09h36.51.256,PRaM,2021.2.3,Win32,59.89099838,61b8f3437b89212fae0dfade
1,7.1109,space,5.6271,0,297,297,215,1,,,5f782504951dda38db3ef0b6,61b9002518bdeb1ec81fd380,2021-12-15_09h36.51.256,PRaM,2021.2.3,Win32,59.89099838,61b8f3437b89212fae0dfade
1,2.5533,space,0.9497,0,298,298,286,1,,,5f782504951dda38db3ef0b6,61b9002518bdeb1ec81fd380,2021-12-15_09h36.51.256,PRaM,2021.2.3,Win32,59.89099838,61b8f3437b89212fae0dfade
3,3.5615,space,1.8983,0,299,299,326,1,,,5f782504951dda38db3ef0b6,61b9002518bdeb1ec81fd380,2021-12-15_09h36.51.256,PRaM,2021.2.3,Win32,59.89099838,61b8f3437b89212fae0dfade
5,2.4218,space,0.7875,0,300,300,153,1,,,5f782504951dda38db3ef0b6,61b9002518bdeb1ec81fd380,2021-12-15_09h36.51.256,PRaM,2021.2.3,Win32,59.89099838,61b8f3437b89212fae0dfade
2,3.7904,space,2.204,0,301,301,72,1,,,5f782504951dda38db3ef0b6,61b9002518bdeb1ec81fd380,2021-12-15_09h36.51.256,PRaM,2021.2.3,Win32,59.89099838,61b8f3437b89212fae0dfade
1,2.223,space,0.5854,0,302,302,113,1,,,5f782504951dda38db3ef0b6,61b9002518bdeb1ec81fd380,2021-12-15_09h36.51.256,PRaM,2021.2.3,Win32,59.89099838,61b8f3437b89212fae0dfade
1,2.4963,space,0.8879,0,303,303,78,1,,,5f782504951dda38db3ef0b6,61b9002518bdeb1ec81fd380,2021-12-15_09h36.51.256,PRaM,2021.2.3,Win32,59.89099838,61b8f3437b89212fae0dfade
1,3.2981,space,2.1103,0,304,304,96,1,,,5f782504951dda38db3ef0b6,61b9002518bdeb1ec81fd380,2021-12-15_09h36.51.256,PRaM,2021.2.3,Win32,59.89099838,61b8f3437b89212fae0dfade
2,7.2759,space,5.6386,0,305,305,124,1,,,5f782504951dda38db3ef0b6,61b9002518bdeb1ec81fd380,2021-12-15_09h36.51.256,PRaM,2021.2.3,Win32,59.89099838,61b8f3437b89212fae0dfade
5,4.4194,space,2.7135,0,306,306,278,1,,,5f782504951dda38db3ef0b6,61b9002518bdeb1ec81fd380,2021-12-15_09h36.51.256,PRaM,2021.2.3,Win32,59.89099838,61b8f3437b89212fae0dfade
4,5.1632,space,3.5453,0,307,307,244,1,,,5f782504951dda38db3ef0b6,61b9002518bdeb1ec81fd380,2021-12-15_09h36.51.256,PRaM,2021.2.3,Win32,59.89099838,61b8f3437b89212fae0dfade
1,8.1735,space,6.5634,0,308,308,205,1,,,5f782504951dda38db3ef0b6,61b9002518bdeb1ec81fd380,2021-12-15_09h36.51.256,PRaM,2021.2.3,Win32,59.89099838,61b8f3437b89212fae0dfade
4,3.0884,space,2.4775,0,309,309,4,1,,,5f782504951dda38db3ef0b6,61b9002518bdeb1ec81fd380,2021-12-15_09h36.51.256,PRaM,2021.2.3,Win32,59.89099838,61b8f3437b89212fae0dfade
1,2.3066,space,0.7488,0,310,310,41,1,,,5f782504951dda38db3ef0b6,61b9002518bdeb1ec81fd380,2021-12-15_09h36.51.256,PRaM,2021.2.3,Win32,59.89099838,61b8f3437b89212fae0dfade
6,7.5577,space,6.0282,0,311,311,64,1,,,5f782504951dda38db3ef0b6,61b9002518bdeb1ec81fd380,2021-12-15_09h36.51.256,PRaM,2021.2.3,Win32,59.89099838,61b8f3437b89212fae0dfade
1,6.1619,space,4.5665,0,312,312,175,1,,,5f782504951dda38db3ef0b6,61b9002518bdeb1ec81fd380,2021-12-15_09h36.51.256,PRaM,2021.2.3,Win32,59.89099838,61b8f3437b89212fae0dfade
2,4.6156,space,3.013,0,313,313,290,1,,,5f782504951dda38db3ef0b6,61b9002518bdeb1ec81fd380,2021-12-15_09h36.51.256,PRaM,2021.2.3,Win32,59.89099838,61b8f3437b89212fae0dfade
1,2.2547,space,0.7088,0,314,314,162,1,,,5f782504951dda38db3ef0b6,61b9002518bdeb1ec81fd380,2021-12-15_09h36.51.256,PRaM,2021.2.3,Win32,59.89099838,61b8f3437b89212fae0dfade
1,1.7362,space,0.1649,0,315,315,116,1,,,5f782504951dda38db3ef0b6,61b9002518bdeb1ec81fd380,2021-12-15_09h36.51.256,PRaM,2021.2.3,Win32,59.89099838,61b8f3437b89212fae0dfade
5,2.0634,space,0.4645,0,316,316,136,1,,,5f782504951dda38db3ef0b6,61b9002518bdeb1ec81fd380,2021-12-15_09h36.51.256,PRaM,2021.2.3,Win32,59.89099838,61b8f3437b89212fae0dfade
1,5.6732,space,6.115,0,317,317,22,1,,,5f782504951dda38db3ef0b6,61b9002518bdeb1ec81fd380,2021-12-15_09h36.51.256,PRaM,2021.2.3,Win32,59.89099838,61b8f3437b89212fae0dfade
4,5.6887,space,4.1495,0,318,318,267,1,,,5f782504951dda38db3ef0b6,61b9002518bdeb1ec81fd380,2021-12-15_09h36.51.256,PRaM,2021.2.3,Win32,59.89099838,61b8f3437b89212fae0dfade
1,3.0729,space,1.4672,0,319,319,322,1,,,5f782504951dda38db3ef0b6,61b9002518bdeb1ec81fd380,2021-12-15_09h36.51.256,PRaM,2021.2.3,Win32,59.89099838,61b8f3437b89212fae0dfade
2,3.3845,space,1.7686,0,320,320,158,1,,,5f782504951dda38db3ef0b6,61b9002518bdeb1ec81fd380,2021-12-15_09h36.51.256,PRaM,2021.2.3,Win32,59.89099838,61b8f3437b89212fae0dfade
2,7.1815,space,5.4846,0,321,321,376,1,,,5f782504951dda38db3ef0b6,61b9002518bdeb1ec81fd380,2021-12-15_09h36.51.256,PRaM,2021.2.3,Win32,59.89099838,61b8f3437b89212fae0dfade
1,4.8766,space,3.2229,0,322,322,30,1,,,5f782504951dda38db3ef0b6,61b9002518bdeb1ec81fd380,2021-12-15_09h36.51.256,PRaM,2021.2.3,Win32,59.89099838,61b8f3437b89212fae0dfade
6,6.9828,space,5.3339,0,323,323,85,1,,,5f782504951dda38db3ef0b6,61b9002518bdeb1ec81fd380,2021-12-15_09h36.51.256,PRaM,2021.2.3,Win32,59.89099838,61b8f3437b89212fae0dfade
7,4.3621,space,2.7054,0,324,324,105,1,,,5f782504951dda38db3ef0b6,61b9002518bdeb1ec81fd380,2021-12-15_09h36.51.256,PRaM,2021.2.3,Win32,59.89099838,61b8f3437b89212fae0dfade
4,2.8974,space,1.2679,0,325,325,216,1,,,5f782504951dda38db3ef0b6,61b9002518bdeb1ec81fd380,2021-12-15_09h36.51.256,PRaM,2021.2.3,Win32,59.89099838,61b8f3437b89212fae0dfade
3,4.2975,space,2.7043,0,326,326,313,1,,,5f782504951dda38db3ef0b6,61b9002518bdeb1ec81fd380,2021-12-15_09h36.51.256,PRaM,2021.2.3,Win32,59.89099838,61b8f3437b89212fae0dfade
2,4.1741,space,2.5231,0,327,327,219,1,,,5f782504951dda38db3ef0b6,61b9002518bdeb1ec81fd380,2021-12-15_09h36.51.256,PRaM,2021.2.3,Win32,59.89099838,61b8f3437b89212fae0dfade
1,2.3259,space,0.8084,0,328,328,354,1,,,5f782504951dda38db3ef0b6,61b9002518bdeb1ec81fd380,2021-12-15_09h36.51.256,PRaM,2021.2.3,Win32,59.89099838,61b8f3437b89212fae0dfade
5,7.2342,space,5.6006,0,329,329,80,1,,,5f782504951dda38db3ef0b6,61b9002518bdeb1ec81fd380,2021-12-15_09h36.51.256,PRaM,2021.2.3,Win32,59.89099838,61b8f3437b89212fae0dfade
1,2.7608,space,1.104,0,330,330,195,1,,,5f782504951dda38db3ef0b6,61b9002518bdeb1ec81fd380,2021-12-15_09h36.51.256,PRaM,2021.2.3,Win32,59.89099838,61b8f3437b89212fae0dfade
1,6.8585,space,5.2558,0,331,331,203,1,,,5f782504951dda38db3ef0b6,61b9002518bdeb1ec81fd380,2021-12-15_09h36.51.256,PRaM,2021.2.3,Win32,59.89099838,61b8f3437b89212fae0dfade
1,2.1479,space,0.5375,0,332,332,299,1,,,5f782504951dda38db3ef0b6,61b9002518bdeb1ec81fd380,2021-12-15_09h36.51.256,PRaM,2021.2.3,Win32,59.89099838,61b8f3437b89212fae0dfade
1,2.5517,space,0.9878,0,333,333,312,1,,,5f782504951dda38db3ef0b6,61b9002518bdeb1ec81fd380,2021-12-15_09h36.51.256,PRaM,2021.2.3,Win32,59.89099838,61b8f3437b89212fae0dfade
1,3.413,space,1.8379,0,334,334,316,1,,,5f782504951dda38db3ef0b6,61b9002518bdeb1ec81fd380,2021-12-15_09h36.51.256,PRaM,2021.2.3,Win32,59.89099838,61b8f3437b89212fae0dfade
1,2.1022,space,0.4991,0,335,335,364,1,,,5f782504951dda38db3ef0b6,61b9002518bdeb1ec81fd380,2021-12-15_09h36.51.256,PRaM,2021.2.3,Win32,59.89099838,61b8f3437b89212fae0dfade
1,2.0407,space,0.4865,0,336,336,111,1,,,5f782504951dda38db3ef0b6,61b9002518bdeb1ec81fd380,2021-12-15_09h36.51.256,PRaM,2021.2.3,Win32,59.89099838,61b8f3437b89212fae0dfade
2,2.5209,space,0.9437,0,337,337,303,1,,,5f782504951dda38db3ef0b6,61b9002518bdeb1ec81fd380,2021-12-15_09h36.51.256,PRaM,2021.2.3,Win32,59.89099838,61b8f3437b89212fae0dfade
1,2.1171,space,0.5687,0,338,338,52,1,,,5f782504951dda38db3ef0b6,61b9002518bdeb1ec81fd380,2021-12-15_09h36.51.256,PRaM,2021.2.3,Win32,59.89099838,61b8f3437b89212fae0dfade
1,2.0445,space,0.3995,0,339,339,167,1,,,5f782504951dda38db3ef0b6,61b9002518bdeb1ec81fd380,2021-12-15_09h36.51.256,PRaM,2021.2.3,Win32,59.89099838,61b8f3437b89212fae0dfade
1,5.7949,space,4.1588,0,340,340,234,1,,,5f782504951dda38db3ef0b6,61b9002518bdeb1ec81fd380,2021-12-15_09h36.51.256,PRaM,2021.2.3,Win32,59.89099838,61b8f3437b89212fae0dfade
1,1.8598,space,0.2627,0,341,341,206,1,,,5f782504951dda38db3ef0b6,61b9002518bdeb1ec81fd380,2021-12-15_09h36.51.256,PRaM,2021.2.3,Win32,59.89099838,61b8f3437b89212fae0dfade
5,4.2916,space,2.6285,0,342,342,117,1,,,5f782504951dda38db3ef0b6,61b9002518bdeb1ec81fd380,2021-12-15_09h36.51.256,PRaM,2021.2.3,Win32,59.89099838,61b8f3437b89212fae0dfade
5,2.5011,space,0.9383,0,343,343,45,1,,,5f782504951dda38db3ef0b6,61b9002518bdeb1ec81fd380,2021-12-15_09h36.51.256,PRaM,2021.2.3,Win32,59.89099838,61b8f3437b89212fae0dfade
8,7.1027,space,5.4846,0,344,344,42,1,,,5f782504951dda38db3ef0b6,61b9002518bdeb1ec81fd380,2021-12-15_09h36.51.256,PRaM,2021.2.3,Win32,59.89099838,61b8f3437b89212fae0dfade
1,3.1956,space,1.5762,0,345,345,157,1,,,5f782504951dda38db3ef0b6,61b9002518bdeb1ec81fd380,2021-12-15_09h36.51.256,PRaM,2021.2.3,Win32,59.89099838,61b8f3437b89212fae0dfade
1,2.0276,space,0.4158,0,346,346,338,1,,,5f782504951dda38db3ef0b6,61b9002518bdeb1ec81fd380,2021-12-15_09h36.51.256,PRaM,2021.2.3,Win32,59.89099838,61b8f3437b89212fae0dfade
9,3.8425,space,3.5564,0,347,347,137,1,,,5f782504951dda38db3ef0b6,61b9002518bdeb1ec81fd380,2021-12-15_09h36.51.256,PRaM,2021.2.3,Win32,59.89099838,61b8f3437b89212fae0dfade
1,6.895,space,8.8478,0,348,348,310,1,,,5f782504951dda38db3ef0b6,61b9002518bdeb1ec81fd380,2021-12-15_09h36.51.256,PRaM,2021.2.3,Win32,59.89099838,61b8f3437b89212fae0dfade
1,2.0476,space,0.4334,0,349,349,35,1,,,5f782504951dda38db3ef0b6,61b9002518bdeb1ec81fd380,2021-12-15_09h36.51.256,PRaM,2021.2.3,Win32,59.89099838,61b8f3437b89212fae0dfade
4,3.7156,space,2.1505,0,350,350,69,1,,,5f782504951dda38db3ef0b6,61b9002518bdeb1ec81fd380,2021-12-15_09h36.51.256,PRaM,2021.2.3,Win32,59.89099838,61b8f3437b89212fae0dfade
5,3.8475,space,2.2606,0,351,351,211,1,,,5f782504951dda38db3ef0b6,61b9002518bdeb1ec81fd380,2021-12-15_09h36.51.256,PRaM,2021.2.3,Win32,59.89099838,61b8f3437b89212fae0dfade
5,3.1773,space,1.6321,0,352,352,296,1,,,5f782504951dda38db3ef0b6,61b9002518bdeb1ec81fd380,2021-12-15_09h36.51.256,PRaM,2021.2.3,Win32,59.89099838,61b8f3437b89212fae0dfade
1,2.6011,space,1.0675,0,353,353,160,1,,,5f782504951dda38db3ef0b6,61b9002518bdeb1ec81fd380,2021-12-15_09h36.51.256,PRaM,2021.2.3,Win32,59.89099838,61b8f3437b89212fae0dfade
1,2.2423,space,0.6178,0,354,354,11,1,,,5f782504951dda38db3ef0b6,61b9002518bdeb1ec81fd380,2021-12-15_09h36.51.256,PRaM,2021.2.3,Win32,59.89099838,61b8f3437b89212fae0dfade
1,2.2512,space,0.6703,0,355,355,1,1,,,5f782504951dda38db3ef0b6,61b9002518bdeb1ec81fd380,2021-12-15_09h36.51.256,PRaM,2021.2.3,Win32,59.89099838,61b8f3437b89212fae0dfade
2,2.9166,space,1.3011,0,356,356,37,1,,,5f782504951dda38db3ef0b6,61b9002518bdeb1ec81fd380,2021-12-15_09h36.51.256,PRaM,2021.2.3,Win32,59.89099838,61b8f3437b89212fae0dfade
1,2.1861,space,0.5477,0,357,357,241,1,,,5f782504951dda38db3ef0b6,61b9002518bdeb1ec81fd380,2021-12-15_09h36.51.256,PRaM,2021.2.3,Win32,59.89099838,61b8f3437b89212fae0dfade
5,5.0211,space,3.3782,0,358,358,182,1,,,5f782504951dda38db3ef0b6,61b9002518bdeb1ec81fd380,2021-12-15_09h36.51.256,PRaM,2021.2.3,Win32,59.89099838,61b8f3437b89212fae0dfade
6,5.6411,space,4.0198,0,359,359,258,1,,,5f782504951dda38db3ef0b6,61b9002518bdeb1ec81fd380,2021-12-15_09h36.51.256,PRaM,2021.2.3,Win32,59.89099838,61b8f3437b89212fae0dfade
8,4.5243,space,4.232,0,360,360,53,1,,,5f782504951dda38db3ef0b6,61b9002518bdeb1ec81fd380,2021-12-15_09h36.51.256,PRaM,2021.2.3,Win32,59.89099838,61b8f3437b89212fae0dfade
8,5.2389,space,3.5495,0,361,361,225,1,,,5f782504951dda38db3ef0b6,61b9002518bdeb1ec81fd380,2021-12-15_09h36.51.256,PRaM,2021.2.3,Win32,59.89099838,61b8f3437b89212fae0dfade
7,5.4214,space,3.7123,0,362,362,51,1,,,5f782504951dda38db3ef0b6,61b9002518bdeb1ec81fd380,2021-12-15_09h36.51.256,PRaM,2021.2.3,Win32,59.89099838,61b8f3437b89212fae0dfade
8,2.9255,space,1.4131,0,363,363,222,1,,,5f782504951dda38db3ef0b6,61b9002518bdeb1ec81fd380,2021-12-15_09h36.51.256,PRaM,2021.2.3,Win32,59.89099838,61b8f3437b89212fae0dfade
2,3.6825,space,2.0656,0,364,364,200,1,,,5f782504951dda38db3ef0b6,61b9002518bdeb1ec81fd380,2021-12-15_09h36.51.256,PRaM,2021.2.3,Win32,59.89099838,61b8f3437b89212fae0dfade
2,3.0572,space,1.4886,0,365,365,366,1,,,5f782504951dda38db3ef0b6,61b9002518bdeb1ec81fd380,2021-12-15_09h36.51.256,PRaM,2021.2.3,Win32,59.89099838,61b8f3437b89212fae0dfade
1,2.445,space,0.7805,0,366,366,218,1,,,5f782504951dda38db3ef0b6,61b9002518bdeb1ec81fd380,2021-12-15_09h36.51.256,PRaM,2021.2.3,Win32,59.89099838,61b8f3437b89212fae0dfade
4,3.0402,space,1.4709,0,367,367,186,1,,,5f782504951dda38db3ef0b6,61b9002518bdeb1ec81fd380,2021-12-15_09h36.51.256,PRaM,2021.2.3,Win32,59.89099838,61b8f3437b89212fae0dfade
2,5.477,space,3.8358,0,368,368,90,1,,,5f782504951dda38db3ef0b6,61b9002518bdeb1ec81fd380,2021-12-15_09h36.51.256,PRaM,2021.2.3,Win32,59.89099838,61b8f3437b89212fae0dfade
1,2.4751,space,0.8,0,369,369,358,1,,,5f782504951dda38db3ef0b6,61b9002518bdeb1ec81fd380,2021-12-15_09h36.51.256,PRaM,2021.2.3,Win32,59.89099838,61b8f3437b89212fae0dfade
1,2.4099,space,0.8041,0,370,370,185,1,,,5f782504951dda38db3ef0b6,61b9002518bdeb1ec81fd380,2021-12-15_09h36.51.256,PRaM,2021.2.3,Win32,59.89099838,61b8f3437b89212fae0dfade
5,5.3418,space,3.6949,0,371,371,60,1,,,5f782504951dda38db3ef0b6,61b9002518bdeb1ec81fd380,2021-12-15_09h36.51.256,PRaM,2021.2.3,Win32,59.89099838,61b8f3437b89212fae0dfade
2,2.7499,space,1.1435,0,372,372,144,1,,,5f782504951dda38db3ef0b6,61b9002518bdeb1ec81fd380,2021-12-15_09h36.51.256,PRaM,2021.2.3,Win32,59.89099838,61b8f3437b89212fae0dfade
2,3.4951,space,1.8339,0,373,373,347,1,,,5f782504951dda38db3ef0b6,61b9002518bdeb1ec81fd380,2021-12-15_09h36.51.256,PRaM,2021.2.3,Win32,59.89099838,61b8f3437b89212fae0dfade
1,2.2134,space,0.5808,0,374,374,243,1,,,5f782504951dda38db3ef0b6,61b9002518bdeb1ec81fd380,2021-12-15_09h36.51.256,PRaM,2021.2.3,Win32,59.89099838,61b8f3437b89212fae0dfade
2,4.6278,space,3.0878,0,375,375,264,1,,,5f782504951dda38db3ef0b6,61b9002518bdeb1ec81fd380,2021-12-15_09h36.51.256,PRaM,2021.2.3,Win32,59.89099838,61b8f3437b89212fae0dfade
1,2.6183,space,1.0567,0,376,376,181,1,,,5f782504951dda38db3ef0b6,61b9002518bdeb1ec81fd380,2021-12-15_09h36.51.256,PRaM,2021.2.3,Win32,59.89099838,61b8f3437b89212fae0dfade
1,1.7913,space,0.1367,0,377,377,329,1,,,5f782504951dda38db3ef0b6,61b9002518bdeb1ec81fd380,2021-12-15_09h36.51.256,PRaM,2021.2.3,Win32,59.89099838,61b8f3437b89212fae0dfade
