Rating.response,Rating.rt,EndTrial.keys,EndTrial.rt,trials.thisRepN,trials.thisTrialN,trials.thisN,trials.thisIndex,trials.ran,Pos1,Pos2,participant,session,date,expName,psychopyVersion,OS,frameRate,study_id
2,5.735,space,6.436,0,0,0,266,1,,,5fd7782dee03dc08d3f3f491,64377300a02b195fde449f25,04-12-2023_23h14.32.133,PRaM,2021.2.3,Win32,60.0240096,61b8f3437b89212fae0dfade
2,8.214,space,6.835,0,1,1,243,1,,,5fd7782dee03dc08d3f3f491,64377300a02b195fde449f25,04-12-2023_23h14.32.133,PRaM,2021.2.3,Win32,60.0240096,61b8f3437b89212fae0dfade
2,9.597,space,8.601,0,2,2,215,1,,,5fd7782dee03dc08d3f3f491,64377300a02b195fde449f25,04-12-2023_23h14.32.133,PRaM,2021.2.3,Win32,60.0240096,61b8f3437b89212fae0dfade
1,12.665,space,11.166,0,3,3,292,1,,,5fd7782dee03dc08d3f3f491,64377300a02b195fde449f25,04-12-2023_23h14.32.133,PRaM,2021.2.3,Win32,60.0240096,61b8f3437b89212fae0dfade
3,6.763,space,5.968,0,4,4,99,1,,,5fd7782dee03dc08d3f3f491,64377300a02b195fde449f25,04-12-2023_23h14.32.133,PRaM,2021.2.3,Win32,60.0240096,61b8f3437b89212fae0dfade
8,3.898,space,3.85,0,5,5,325,1,,,5fd7782dee03dc08d3f3f491,64377300a02b195fde449f25,04-12-2023_23h14.32.133,PRaM,2021.2.3,Win32,60.0240096,61b8f3437b89212fae0dfade
1,4.231,space,2.603,0,6,6,289,1,,,5fd7782dee03dc08d3f3f491,64377300a02b195fde449f25,04-12-2023_23h14.32.133,PRaM,2021.2.3,Win32,60.0240096,61b8f3437b89212fae0dfade
7,3.599,space,2.233,0,7,7,38,1,,,5fd7782dee03dc08d3f3f491,64377300a02b195fde449f25,04-12-2023_23h14.32.133,PRaM,2021.2.3,Win32,60.0240096,61b8f3437b89212fae0dfade
4,4.846,space,3.352,0,8,8,174,1,,,5fd7782dee03dc08d3f3f491,64377300a02b195fde449f25,04-12-2023_23h14.32.133,PRaM,2021.2.3,Win32,60.0240096,61b8f3437b89212fae0dfade
1,6.148,space,4.535,0,9,9,9,1,,,5fd7782dee03dc08d3f3f491,64377300a02b195fde449f25,04-12-2023_23h14.32.133,PRaM,2021.2.3,Win32,60.0240096,61b8f3437b89212fae0dfade
3,8.163,space,6.601,0,10,10,44,1,,,5fd7782dee03dc08d3f3f491,64377300a02b195fde449f25,04-12-2023_23h14.32.133,PRaM,2021.2.3,Win32,60.0240096,61b8f3437b89212fae0dfade
9,3.614,space,2.018,0,11,11,17,1,,,5fd7782dee03dc08d3f3f491,64377300a02b195fde449f25,04-12-2023_23h14.32.133,PRaM,2021.2.3,Win32,60.0240096,61b8f3437b89212fae0dfade
5,7.779,space,6.368,0,12,12,256,1,,,5fd7782dee03dc08d3f3f491,64377300a02b195fde449f25,04-12-2023_23h14.32.133,PRaM,2021.2.3,Win32,60.0240096,61b8f3437b89212fae0dfade
6,5.648,space,4.033,0,13,13,136,1,,,5fd7782dee03dc08d3f3f491,64377300a02b195fde449f25,04-12-2023_23h14.32.133,PRaM,2021.2.3,Win32,60.0240096,61b8f3437b89212fae0dfade
7,9.981,space,8.518,0,14,14,368,1,,,5fd7782dee03dc08d3f3f491,64377300a02b195fde449f25,04-12-2023_23h14.32.133,PRaM,2021.2.3,Win32,60.0240096,61b8f3437b89212fae0dfade
4,5.563,space,3.854,0,15,15,47,1,,,5fd7782dee03dc08d3f3f491,64377300a02b195fde449f25,04-12-2023_23h14.32.133,PRaM,2021.2.3,Win32,60.0240096,61b8f3437b89212fae0dfade
6,4.361,space,2.716,0,16,16,331,1,,,5fd7782dee03dc08d3f3f491,64377300a02b195fde449f25,04-12-2023_23h14.32.133,PRaM,2021.2.3,Win32,60.0240096,61b8f3437b89212fae0dfade
4,10.098,space,8.5,0,17,17,233,1,,,5fd7782dee03dc08d3f3f491,64377300a02b195fde449f25,04-12-2023_23h14.32.133,PRaM,2021.2.3,Win32,60.0240096,61b8f3437b89212fae0dfade
3,6.932,space,5.268,0,18,18,361,1,,,5fd7782dee03dc08d3f3f491,64377300a02b195fde449f25,04-12-2023_23h14.32.133,PRaM,2021.2.3,Win32,60.0240096,61b8f3437b89212fae0dfade
2,4.781,space,3.084,0,19,19,13,1,,,5fd7782dee03dc08d3f3f491,64377300a02b195fde449f25,04-12-2023_23h14.32.133,PRaM,2021.2.3,Win32,60.0240096,61b8f3437b89212fae0dfade
5,6.879,space,5.268,0,20,20,244,1,,,5fd7782dee03dc08d3f3f491,64377300a02b195fde449f25,04-12-2023_23h14.32.133,PRaM,2021.2.3,Win32,60.0240096,61b8f3437b89212fae0dfade
7,4.964,space,3.318,0,21,21,121,1,,,5fd7782dee03dc08d3f3f491,64377300a02b195fde449f25,04-12-2023_23h14.32.133,PRaM,2021.2.3,Win32,60.0240096,61b8f3437b89212fae0dfade
1,15.481,space,13.902,0,22,22,82,1,,,5fd7782dee03dc08d3f3f491,64377300a02b195fde449f25,04-12-2023_23h14.32.133,PRaM,2021.2.3,Win32,60.0240096,61b8f3437b89212fae0dfade
1,4.316,space,2.602,0,23,23,63,1,,,5fd7782dee03dc08d3f3f491,64377300a02b195fde449f25,04-12-2023_23h14.32.133,PRaM,2021.2.3,Win32,60.0240096,61b8f3437b89212fae0dfade
5,5.915,space,4.3,0,24,24,154,1,,,5fd7782dee03dc08d3f3f491,64377300a02b195fde449f25,04-12-2023_23h14.32.133,PRaM,2021.2.3,Win32,60.0240096,61b8f3437b89212fae0dfade
8,8.58,space,7.052,0,25,25,159,1,,,5fd7782dee03dc08d3f3f491,64377300a02b195fde449f25,04-12-2023_23h14.32.133,PRaM,2021.2.3,Win32,60.0240096,61b8f3437b89212fae0dfade
4,5.631,space,3.967,0,26,26,377,1,,,5fd7782dee03dc08d3f3f491,64377300a02b195fde449f25,04-12-2023_23h14.32.133,PRaM,2021.2.3,Win32,60.0240096,61b8f3437b89212fae0dfade
6,4.131,space,2.319,0,27,27,21,1,,,5fd7782dee03dc08d3f3f491,64377300a02b195fde449f25,04-12-2023_23h14.32.133,PRaM,2021.2.3,Win32,60.0240096,61b8f3437b89212fae0dfade
2,6.382,space,4.768,0,28,28,324,1,,,5fd7782dee03dc08d3f3f491,64377300a02b195fde449f25,04-12-2023_23h14.32.133,PRaM,2021.2.3,Win32,60.0240096,61b8f3437b89212fae0dfade
2,6.782,space,5.184,0,29,29,185,1,,,5fd7782dee03dc08d3f3f491,64377300a02b195fde449f25,04-12-2023_23h14.32.133,PRaM,2021.2.3,Win32,60.0240096,61b8f3437b89212fae0dfade
3,10.73,space,9.002,0,30,30,100,1,,,5fd7782dee03dc08d3f3f491,64377300a02b195fde449f25,04-12-2023_23h14.32.133,PRaM,2021.2.3,Win32,60.0240096,61b8f3437b89212fae0dfade
3,7.246,space,5.784,0,31,31,258,1,,,5fd7782dee03dc08d3f3f491,64377300a02b195fde449f25,04-12-2023_23h14.32.133,PRaM,2021.2.3,Win32,60.0240096,61b8f3437b89212fae0dfade
5,5.43,space,3.75,0,32,32,29,1,,,5fd7782dee03dc08d3f3f491,64377300a02b195fde449f25,04-12-2023_23h14.32.133,PRaM,2021.2.3,Win32,60.0240096,61b8f3437b89212fae0dfade
2,16.847,space,15.169,0,33,33,122,1,,,5fd7782dee03dc08d3f3f491,64377300a02b195fde449f25,04-12-2023_23h14.32.133,PRaM,2021.2.3,Win32,60.0240096,61b8f3437b89212fae0dfade
9,3.115,space,1.418,0,34,34,112,1,,,5fd7782dee03dc08d3f3f491,64377300a02b195fde449f25,04-12-2023_23h14.32.133,PRaM,2021.2.3,Win32,60.0240096,61b8f3437b89212fae0dfade
1,7.264,space,5.869,0,35,35,98,1,,,5fd7782dee03dc08d3f3f491,64377300a02b195fde449f25,04-12-2023_23h14.32.133,PRaM,2021.2.3,Win32,60.0240096,61b8f3437b89212fae0dfade
3,9.197,space,7.367,0,36,36,356,1,,,5fd7782dee03dc08d3f3f491,64377300a02b195fde449f25,04-12-2023_23h14.32.133,PRaM,2021.2.3,Win32,60.0240096,61b8f3437b89212fae0dfade
8,5.915,space,4.168,0,37,37,7,1,,,5fd7782dee03dc08d3f3f491,64377300a02b195fde449f25,04-12-2023_23h14.32.133,PRaM,2021.2.3,Win32,60.0240096,61b8f3437b89212fae0dfade
6,6.099,space,4.418,0,38,38,167,1,,,5fd7782dee03dc08d3f3f491,64377300a02b195fde449f25,04-12-2023_23h14.32.133,PRaM,2021.2.3,Win32,60.0240096,61b8f3437b89212fae0dfade
1,3.597,space,1.953,0,39,39,248,1,,,5fd7782dee03dc08d3f3f491,64377300a02b195fde449f25,04-12-2023_23h14.32.133,PRaM,2021.2.3,Win32,60.0240096,61b8f3437b89212fae0dfade
5,4.384,space,2.687,0,40,40,43,1,,,5fd7782dee03dc08d3f3f491,64377300a02b195fde449f25,04-12-2023_23h14.32.133,PRaM,2021.2.3,Win32,60.0240096,61b8f3437b89212fae0dfade
1,3.214,space,1.52,0,41,41,91,1,,,5fd7782dee03dc08d3f3f491,64377300a02b195fde449f25,04-12-2023_23h14.32.133,PRaM,2021.2.3,Win32,60.0240096,61b8f3437b89212fae0dfade
3,6.064,space,4.418,0,42,42,170,1,,,5fd7782dee03dc08d3f3f491,64377300a02b195fde449f25,04-12-2023_23h14.32.133,PRaM,2021.2.3,Win32,60.0240096,61b8f3437b89212fae0dfade
2,5.166,space,3.419,0,43,43,263,1,,,5fd7782dee03dc08d3f3f491,64377300a02b195fde449f25,04-12-2023_23h14.32.133,PRaM,2021.2.3,Win32,60.0240096,61b8f3437b89212fae0dfade
2,9.33,space,7.551,0,44,44,260,1,,,5fd7782dee03dc08d3f3f491,64377300a02b195fde449f25,04-12-2023_23h14.32.133,PRaM,2021.2.3,Win32,60.0240096,61b8f3437b89212fae0dfade
4,7.197,space,5.667,0,45,45,346,1,,,5fd7782dee03dc08d3f3f491,64377300a02b195fde449f25,04-12-2023_23h14.32.133,PRaM,2021.2.3,Win32,60.0240096,61b8f3437b89212fae0dfade
7,5.246,space,3.485,0,46,46,269,1,,,5fd7782dee03dc08d3f3f491,64377300a02b195fde449f25,04-12-2023_23h14.32.133,PRaM,2021.2.3,Win32,60.0240096,61b8f3437b89212fae0dfade
5,15.23,space,13.433,0,47,47,150,1,,,5fd7782dee03dc08d3f3f491,64377300a02b195fde449f25,04-12-2023_23h14.32.133,PRaM,2021.2.3,Win32,60.0240096,61b8f3437b89212fae0dfade
1,8.281,space,6.651,0,48,48,273,1,,,5fd7782dee03dc08d3f3f491,64377300a02b195fde449f25,04-12-2023_23h14.32.133,PRaM,2021.2.3,Win32,60.0240096,61b8f3437b89212fae0dfade
1,6.531,space,4.935,0,49,49,214,1,,,5fd7782dee03dc08d3f3f491,64377300a02b195fde449f25,04-12-2023_23h14.32.133,PRaM,2021.2.3,Win32,60.0240096,61b8f3437b89212fae0dfade
9,3.696,space,2.468,0,50,50,363,1,,,5fd7782dee03dc08d3f3f491,64377300a02b195fde449f25,04-12-2023_23h14.32.133,PRaM,2021.2.3,Win32,60.0240096,61b8f3437b89212fae0dfade
1,6.448,space,4.868,0,51,51,68,1,,,5fd7782dee03dc08d3f3f491,64377300a02b195fde449f25,04-12-2023_23h14.32.133,PRaM,2021.2.3,Win32,60.0240096,61b8f3437b89212fae0dfade
4,3.78,space,2.085,0,52,52,124,1,,,5fd7782dee03dc08d3f3f491,64377300a02b195fde449f25,04-12-2023_23h14.32.133,PRaM,2021.2.3,Win32,60.0240096,61b8f3437b89212fae0dfade
5,6.248,space,4.669,0,53,53,314,1,,,5fd7782dee03dc08d3f3f491,64377300a02b195fde449f25,04-12-2023_23h14.32.133,PRaM,2021.2.3,Win32,60.0240096,61b8f3437b89212fae0dfade
3,4.614,space,2.968,0,54,54,146,1,,,5fd7782dee03dc08d3f3f491,64377300a02b195fde449f25,04-12-2023_23h14.32.133,PRaM,2021.2.3,Win32,60.0240096,61b8f3437b89212fae0dfade
4,13.933,space,12.251,0,55,55,172,1,,,5fd7782dee03dc08d3f3f491,64377300a02b195fde449f25,04-12-2023_23h14.32.133,PRaM,2021.2.3,Win32,60.0240096,61b8f3437b89212fae0dfade
6,4.782,space,3.119,0,56,56,281,1,,,5fd7782dee03dc08d3f3f491,64377300a02b195fde449f25,04-12-2023_23h14.32.133,PRaM,2021.2.3,Win32,60.0240096,61b8f3437b89212fae0dfade
2,7.615,space,5.979,0,57,57,166,1,,,5fd7782dee03dc08d3f3f491,64377300a02b195fde449f25,04-12-2023_23h14.32.133,PRaM,2021.2.3,Win32,60.0240096,61b8f3437b89212fae0dfade
2,9.172,space,7.334,0,58,58,176,1,,,5fd7782dee03dc08d3f3f491,64377300a02b195fde449f25,04-12-2023_23h14.32.133,PRaM,2021.2.3,Win32,60.0240096,61b8f3437b89212fae0dfade
6,5.796,space,4.201,0,59,59,101,1,,,5fd7782dee03dc08d3f3f491,64377300a02b195fde449f25,04-12-2023_23h14.32.133,PRaM,2021.2.3,Win32,60.0240096,61b8f3437b89212fae0dfade
1,11.481,space,9.851,0,60,60,37,1,,,5fd7782dee03dc08d3f3f491,64377300a02b195fde449f25,04-12-2023_23h14.32.133,PRaM,2021.2.3,Win32,60.0240096,61b8f3437b89212fae0dfade
3,5.23,space,3.467,0,61,61,348,1,,,5fd7782dee03dc08d3f3f491,64377300a02b195fde449f25,04-12-2023_23h14.32.133,PRaM,2021.2.3,Win32,60.0240096,61b8f3437b89212fae0dfade
1,3.415,space,1.701,0,62,62,111,1,,,5fd7782dee03dc08d3f3f491,64377300a02b195fde449f25,04-12-2023_23h14.32.133,PRaM,2021.2.3,Win32,60.0240096,61b8f3437b89212fae0dfade
3,14.998,space,13.551,0,63,63,177,1,,,5fd7782dee03dc08d3f3f491,64377300a02b195fde449f25,04-12-2023_23h14.32.133,PRaM,2021.2.3,Win32,60.0240096,61b8f3437b89212fae0dfade
8,3.114,space,1.4,0,64,64,12,1,,,5fd7782dee03dc08d3f3f491,64377300a02b195fde449f25,04-12-2023_23h14.32.133,PRaM,2021.2.3,Win32,60.0240096,61b8f3437b89212fae0dfade
8,7.497,space,5.887,0,65,65,127,1,,,5fd7782dee03dc08d3f3f491,64377300a02b195fde449f25,04-12-2023_23h14.32.133,PRaM,2021.2.3,Win32,60.0240096,61b8f3437b89212fae0dfade
2,5.948,space,4.317,0,66,66,24,1,,,5fd7782dee03dc08d3f3f491,64377300a02b195fde449f25,04-12-2023_23h14.32.133,PRaM,2021.2.3,Win32,60.0240096,61b8f3437b89212fae0dfade
7,6.025,space,4.335,0,67,67,19,1,,,5fd7782dee03dc08d3f3f491,64377300a02b195fde449f25,04-12-2023_23h14.32.133,PRaM,2021.2.3,Win32,60.0240096,61b8f3437b89212fae0dfade
9,5.38,space,3.784,0,68,68,3,1,,,5fd7782dee03dc08d3f3f491,64377300a02b195fde449f25,04-12-2023_23h14.32.133,PRaM,2021.2.3,Win32,60.0240096,61b8f3437b89212fae0dfade
2,6.579,space,5.201,0,69,69,35,1,,,5fd7782dee03dc08d3f3f491,64377300a02b195fde449f25,04-12-2023_23h14.32.133,PRaM,2021.2.3,Win32,60.0240096,61b8f3437b89212fae0dfade
6,7.23,space,5.634,0,70,70,140,1,,,5fd7782dee03dc08d3f3f491,64377300a02b195fde449f25,04-12-2023_23h14.32.133,PRaM,2021.2.3,Win32,60.0240096,61b8f3437b89212fae0dfade
3,5.431,space,3.768,0,71,71,340,1,,,5fd7782dee03dc08d3f3f491,64377300a02b195fde449f25,04-12-2023_23h14.32.133,PRaM,2021.2.3,Win32,60.0240096,61b8f3437b89212fae0dfade
8,6.53,space,5.535,0,72,72,209,1,,,5fd7782dee03dc08d3f3f491,64377300a02b195fde449f25,04-12-2023_23h14.32.133,PRaM,2021.2.3,Win32,60.0240096,61b8f3437b89212fae0dfade
4,6.633,space,5.085,0,73,73,224,1,,,5fd7782dee03dc08d3f3f491,64377300a02b195fde449f25,04-12-2023_23h14.32.133,PRaM,2021.2.3,Win32,60.0240096,61b8f3437b89212fae0dfade
1,3.23,space,1.502,0,74,74,330,1,,,5fd7782dee03dc08d3f3f491,64377300a02b195fde449f25,04-12-2023_23h14.32.133,PRaM,2021.2.3,Win32,60.0240096,61b8f3437b89212fae0dfade
5,6.846,space,5.217,0,75,75,317,1,,,5fd7782dee03dc08d3f3f491,64377300a02b195fde449f25,04-12-2023_23h14.32.133,PRaM,2021.2.3,Win32,60.0240096,61b8f3437b89212fae0dfade
1,8.412,space,6.901,0,76,76,250,1,,,5fd7782dee03dc08d3f3f491,64377300a02b195fde449f25,04-12-2023_23h14.32.133,PRaM,2021.2.3,Win32,60.0240096,61b8f3437b89212fae0dfade
6,3.931,space,2.585,0,77,77,297,1,,,5fd7782dee03dc08d3f3f491,64377300a02b195fde449f25,04-12-2023_23h14.32.133,PRaM,2021.2.3,Win32,60.0240096,61b8f3437b89212fae0dfade
4,4.098,space,2.401,0,78,78,344,1,,,5fd7782dee03dc08d3f3f491,64377300a02b195fde449f25,04-12-2023_23h14.32.133,PRaM,2021.2.3,Win32,60.0240096,61b8f3437b89212fae0dfade
9,3.282,space,2.036,0,79,79,302,1,,,5fd7782dee03dc08d3f3f491,64377300a02b195fde449f25,04-12-2023_23h14.32.133,PRaM,2021.2.3,Win32,60.0240096,61b8f3437b89212fae0dfade
7,4.43,space,2.735,0,80,80,279,1,,,5fd7782dee03dc08d3f3f491,64377300a02b195fde449f25,04-12-2023_23h14.32.133,PRaM,2021.2.3,Win32,60.0240096,61b8f3437b89212fae0dfade
1,4.13,space,3.184,0,81,81,189,1,,,5fd7782dee03dc08d3f3f491,64377300a02b195fde449f25,04-12-2023_23h14.32.133,PRaM,2021.2.3,Win32,60.0240096,61b8f3437b89212fae0dfade
2,5.63,space,4.134,0,82,82,31,1,,,5fd7782dee03dc08d3f3f491,64377300a02b195fde449f25,04-12-2023_23h14.32.133,PRaM,2021.2.3,Win32,60.0240096,61b8f3437b89212fae0dfade
2,4.181,space,2.635,0,83,83,165,1,,,5fd7782dee03dc08d3f3f491,64377300a02b195fde449f25,04-12-2023_23h14.32.133,PRaM,2021.2.3,Win32,60.0240096,61b8f3437b89212fae0dfade
3,5.664,space,4.267,0,84,84,367,1,,,5fd7782dee03dc08d3f3f491,64377300a02b195fde449f25,04-12-2023_23h14.32.133,PRaM,2021.2.3,Win32,60.0240096,61b8f3437b89212fae0dfade
3,11.815,space,10.45,0,85,85,90,1,,,5fd7782dee03dc08d3f3f491,64377300a02b195fde449f25,04-12-2023_23h14.32.133,PRaM,2021.2.3,Win32,60.0240096,61b8f3437b89212fae0dfade
1,3.732,space,2.118,0,86,86,130,1,,,5fd7782dee03dc08d3f3f491,64377300a02b195fde449f25,04-12-2023_23h14.32.133,PRaM,2021.2.3,Win32,60.0240096,61b8f3437b89212fae0dfade
2,6.015,space,4.386,0,87,87,268,1,,,5fd7782dee03dc08d3f3f491,64377300a02b195fde449f25,04-12-2023_23h14.32.133,PRaM,2021.2.3,Win32,60.0240096,61b8f3437b89212fae0dfade
6,3.497,space,2.301,0,88,88,45,1,,,5fd7782dee03dc08d3f3f491,64377300a02b195fde449f25,04-12-2023_23h14.32.133,PRaM,2021.2.3,Win32,60.0240096,61b8f3437b89212fae0dfade
8,5.581,space,3.935,0,89,89,285,1,,,5fd7782dee03dc08d3f3f491,64377300a02b195fde449f25,04-12-2023_23h14.32.133,PRaM,2021.2.3,Win32,60.0240096,61b8f3437b89212fae0dfade
4,3.913,space,2.368,0,90,90,322,1,,,5fd7782dee03dc08d3f3f491,64377300a02b195fde449f25,04-12-2023_23h14.32.133,PRaM,2021.2.3,Win32,60.0240096,61b8f3437b89212fae0dfade
1,3.18,space,1.651,0,91,91,107,1,,,5fd7782dee03dc08d3f3f491,64377300a02b195fde449f25,04-12-2023_23h14.32.133,PRaM,2021.2.3,Win32,60.0240096,61b8f3437b89212fae0dfade
5,5.197,space,3.52,0,92,92,187,1,,,5fd7782dee03dc08d3f3f491,64377300a02b195fde449f25,04-12-2023_23h14.32.133,PRaM,2021.2.3,Win32,60.0240096,61b8f3437b89212fae0dfade
2,11.497,space,9.917,0,93,93,48,1,,,5fd7782dee03dc08d3f3f491,64377300a02b195fde449f25,04-12-2023_23h14.32.133,PRaM,2021.2.3,Win32,60.0240096,61b8f3437b89212fae0dfade
3,13.014,space,11.453,0,94,94,286,1,,,5fd7782dee03dc08d3f3f491,64377300a02b195fde449f25,04-12-2023_23h14.32.133,PRaM,2021.2.3,Win32,60.0240096,61b8f3437b89212fae0dfade
9,3.714,space,2.169,0,95,95,14,1,,,5fd7782dee03dc08d3f3f491,64377300a02b195fde449f25,04-12-2023_23h14.32.133,PRaM,2021.2.3,Win32,60.0240096,61b8f3437b89212fae0dfade
1,3.231,space,1.534,0,96,96,155,1,,,5fd7782dee03dc08d3f3f491,64377300a02b195fde449f25,04-12-2023_23h14.32.133,PRaM,2021.2.3,Win32,60.0240096,61b8f3437b89212fae0dfade
1,2.613,space,1.018,0,97,97,144,1,,,5fd7782dee03dc08d3f3f491,64377300a02b195fde449f25,04-12-2023_23h14.32.133,PRaM,2021.2.3,Win32,60.0240096,61b8f3437b89212fae0dfade
1,6.763,space,5.302,0,98,98,113,1,,,5fd7782dee03dc08d3f3f491,64377300a02b195fde449f25,04-12-2023_23h14.32.133,PRaM,2021.2.3,Win32,60.0240096,61b8f3437b89212fae0dfade
4,22.382,space,20.902,0,99,99,299,1,,,5fd7782dee03dc08d3f3f491,64377300a02b195fde449f25,04-12-2023_23h14.32.133,PRaM,2021.2.3,Win32,60.0240096,61b8f3437b89212fae0dfade
2,4.731,space,3.251,0,100,100,8,1,,,5fd7782dee03dc08d3f3f491,64377300a02b195fde449f25,04-12-2023_23h14.32.133,PRaM,2021.2.3,Win32,60.0240096,61b8f3437b89212fae0dfade
2,6.615,space,5.018,0,101,101,133,1,,,5fd7782dee03dc08d3f3f491,64377300a02b195fde449f25,04-12-2023_23h14.32.133,PRaM,2021.2.3,Win32,60.0240096,61b8f3437b89212fae0dfade
6,2.848,space,2.103,0,102,102,294,1,,,5fd7782dee03dc08d3f3f491,64377300a02b195fde449f25,04-12-2023_23h14.32.133,PRaM,2021.2.3,Win32,60.0240096,61b8f3437b89212fae0dfade
4,5.756,space,4.136,0,103,103,6,1,,,5fd7782dee03dc08d3f3f491,64377300a02b195fde449f25,04-12-2023_23h14.32.133,PRaM,2021.2.3,Win32,60.0240096,61b8f3437b89212fae0dfade
2,8.08,space,6.684,0,104,104,75,1,,,5fd7782dee03dc08d3f3f491,64377300a02b195fde449f25,04-12-2023_23h14.32.133,PRaM,2021.2.3,Win32,60.0240096,61b8f3437b89212fae0dfade
4,4.897,space,3.217,0,105,105,22,1,,,5fd7782dee03dc08d3f3f491,64377300a02b195fde449f25,04-12-2023_23h14.32.133,PRaM,2021.2.3,Win32,60.0240096,61b8f3437b89212fae0dfade
6,2.565,space,0.902,0,106,106,270,1,,,5fd7782dee03dc08d3f3f491,64377300a02b195fde449f25,04-12-2023_23h14.32.133,PRaM,2021.2.3,Win32,60.0240096,61b8f3437b89212fae0dfade
5,6.231,space,4.951,0,107,107,46,1,,,5fd7782dee03dc08d3f3f491,64377300a02b195fde449f25,04-12-2023_23h14.32.133,PRaM,2021.2.3,Win32,60.0240096,61b8f3437b89212fae0dfade
8,15.197,space,13.435,0,108,108,118,1,,,5fd7782dee03dc08d3f3f491,64377300a02b195fde449f25,04-12-2023_23h14.32.133,PRaM,2021.2.3,Win32,60.0240096,61b8f3437b89212fae0dfade
2,5.448,space,3.917,0,109,109,262,1,,,5fd7782dee03dc08d3f3f491,64377300a02b195fde449f25,04-12-2023_23h14.32.133,PRaM,2021.2.3,Win32,60.0240096,61b8f3437b89212fae0dfade
3,3.648,space,2.036,0,110,110,126,1,,,5fd7782dee03dc08d3f3f491,64377300a02b195fde449f25,04-12-2023_23h14.32.133,PRaM,2021.2.3,Win32,60.0240096,61b8f3437b89212fae0dfade
1,2.431,space,0.852,0,111,111,290,1,,,5fd7782dee03dc08d3f3f491,64377300a02b195fde449f25,04-12-2023_23h14.32.133,PRaM,2021.2.3,Win32,60.0240096,61b8f3437b89212fae0dfade
2,4.631,space,2.967,0,112,112,333,1,,,5fd7782dee03dc08d3f3f491,64377300a02b195fde449f25,04-12-2023_23h14.32.133,PRaM,2021.2.3,Win32,60.0240096,61b8f3437b89212fae0dfade
1,5.98,space,4.401,0,113,113,203,1,,,5fd7782dee03dc08d3f3f491,64377300a02b195fde449f25,04-12-2023_23h14.32.133,PRaM,2021.2.3,Win32,60.0240096,61b8f3437b89212fae0dfade
1,4.949,space,3.269,0,114,114,23,1,,,5fd7782dee03dc08d3f3f491,64377300a02b195fde449f25,04-12-2023_23h14.32.133,PRaM,2021.2.3,Win32,60.0240096,61b8f3437b89212fae0dfade
8,3.578,space,2.317,0,115,115,288,1,,,5fd7782dee03dc08d3f3f491,64377300a02b195fde449f25,04-12-2023_23h14.32.133,PRaM,2021.2.3,Win32,60.0240096,61b8f3437b89212fae0dfade
8,7.416,space,6.118,0,116,116,350,1,,,5fd7782dee03dc08d3f3f491,64377300a02b195fde449f25,04-12-2023_23h14.32.133,PRaM,2021.2.3,Win32,60.0240096,61b8f3437b89212fae0dfade
2,2.529,space,0.752,0,117,117,316,1,,,5fd7782dee03dc08d3f3f491,64377300a02b195fde449f25,04-12-2023_23h14.32.133,PRaM,2021.2.3,Win32,60.0240096,61b8f3437b89212fae0dfade
1,8.997,space,7.567,0,118,118,28,1,,,5fd7782dee03dc08d3f3f491,64377300a02b195fde449f25,04-12-2023_23h14.32.133,PRaM,2021.2.3,Win32,60.0240096,61b8f3437b89212fae0dfade
5,4.868,space,3.401,0,119,119,349,1,,,5fd7782dee03dc08d3f3f491,64377300a02b195fde449f25,04-12-2023_23h14.32.133,PRaM,2021.2.3,Win32,60.0240096,61b8f3437b89212fae0dfade
9,18.529,space,16.967,0,120,120,134,1,,,5fd7782dee03dc08d3f3f491,64377300a02b195fde449f25,04-12-2023_23h14.32.133,PRaM,2021.2.3,Win32,60.0240096,61b8f3437b89212fae0dfade
7,3.113,space,1.4,0,121,121,86,1,,,5fd7782dee03dc08d3f3f491,64377300a02b195fde449f25,04-12-2023_23h14.32.133,PRaM,2021.2.3,Win32,60.0240096,61b8f3437b89212fae0dfade
1,3.514,space,1.919,0,122,122,27,1,,,5fd7782dee03dc08d3f3f491,64377300a02b195fde449f25,04-12-2023_23h14.32.133,PRaM,2021.2.3,Win32,60.0240096,61b8f3437b89212fae0dfade
8,5.348,space,3.752,0,123,123,147,1,,,5fd7782dee03dc08d3f3f491,64377300a02b195fde449f25,04-12-2023_23h14.32.133,PRaM,2021.2.3,Win32,60.0240096,61b8f3437b89212fae0dfade
1,3.714,space,2.185,0,124,124,247,1,,,5fd7782dee03dc08d3f3f491,64377300a02b195fde449f25,04-12-2023_23h14.32.133,PRaM,2021.2.3,Win32,60.0240096,61b8f3437b89212fae0dfade
1,5.248,space,3.651,0,125,125,278,1,,,5fd7782dee03dc08d3f3f491,64377300a02b195fde449f25,04-12-2023_23h14.32.133,PRaM,2021.2.3,Win32,60.0240096,61b8f3437b89212fae0dfade
2,7.297,space,5.884,0,126,126,78,1,,,5fd7782dee03dc08d3f3f491,64377300a02b195fde449f25,04-12-2023_23h14.32.133,PRaM,2021.2.3,Win32,60.0240096,61b8f3437b89212fae0dfade
3,4.764,space,3.185,0,127,127,26,1,,,5fd7782dee03dc08d3f3f491,64377300a02b195fde449f25,04-12-2023_23h14.32.133,PRaM,2021.2.3,Win32,60.0240096,61b8f3437b89212fae0dfade
3,8.581,space,6.934,0,128,128,311,1,,,5fd7782dee03dc08d3f3f491,64377300a02b195fde449f25,04-12-2023_23h14.32.133,PRaM,2021.2.3,Win32,60.0240096,61b8f3437b89212fae0dfade
4,3.679,space,2.135,0,129,129,341,1,,,5fd7782dee03dc08d3f3f491,64377300a02b195fde449f25,04-12-2023_23h14.32.133,PRaM,2021.2.3,Win32,60.0240096,61b8f3437b89212fae0dfade
6,18.863,space,17.833,0,130,130,173,1,,,5fd7782dee03dc08d3f3f491,64377300a02b195fde449f25,04-12-2023_23h14.32.133,PRaM,2021.2.3,Win32,60.0240096,61b8f3437b89212fae0dfade
3,31.413,space,29.833,0,131,131,52,1,,,5fd7782dee03dc08d3f3f491,64377300a02b195fde449f25,04-12-2023_23h14.32.133,PRaM,2021.2.3,Win32,60.0240096,61b8f3437b89212fae0dfade
5,4.046,space,2.385,0,132,132,171,1,,,5fd7782dee03dc08d3f3f491,64377300a02b195fde449f25,04-12-2023_23h14.32.133,PRaM,2021.2.3,Win32,60.0240096,61b8f3437b89212fae0dfade
1,6.798,space,5.243,0,133,133,217,1,,,5fd7782dee03dc08d3f3f491,64377300a02b195fde449f25,04-12-2023_23h14.32.133,PRaM,2021.2.3,Win32,60.0240096,61b8f3437b89212fae0dfade
1,2.339,space,0.769,0,134,134,70,1,,,5fd7782dee03dc08d3f3f491,64377300a02b195fde449f25,04-12-2023_23h14.32.133,PRaM,2021.2.3,Win32,60.0240096,61b8f3437b89212fae0dfade
1,2.364,space,0.718,0,135,135,309,1,,,5fd7782dee03dc08d3f3f491,64377300a02b195fde449f25,04-12-2023_23h14.32.133,PRaM,2021.2.3,Win32,60.0240096,61b8f3437b89212fae0dfade
1,3.164,space,1.551,0,136,136,94,1,,,5fd7782dee03dc08d3f3f491,64377300a02b195fde449f25,04-12-2023_23h14.32.133,PRaM,2021.2.3,Win32,60.0240096,61b8f3437b89212fae0dfade
2,5.515,space,4.001,0,137,137,345,1,,,5fd7782dee03dc08d3f3f491,64377300a02b195fde449f25,04-12-2023_23h14.32.133,PRaM,2021.2.3,Win32,60.0240096,61b8f3437b89212fae0dfade
9,4.49,space,2.885,0,138,138,197,1,,,5fd7782dee03dc08d3f3f491,64377300a02b195fde449f25,04-12-2023_23h14.32.133,PRaM,2021.2.3,Win32,60.0240096,61b8f3437b89212fae0dfade
2,3.514,space,1.884,0,139,139,92,1,,,5fd7782dee03dc08d3f3f491,64377300a02b195fde449f25,04-12-2023_23h14.32.133,PRaM,2021.2.3,Win32,60.0240096,61b8f3437b89212fae0dfade
2,6.03,space,4.351,0,140,140,188,1,,,5fd7782dee03dc08d3f3f491,64377300a02b195fde449f25,04-12-2023_23h14.32.133,PRaM,2021.2.3,Win32,60.0240096,61b8f3437b89212fae0dfade
6,14.515,space,13.801,0,141,141,226,1,,,5fd7782dee03dc08d3f3f491,64377300a02b195fde449f25,04-12-2023_23h14.32.133,PRaM,2021.2.3,Win32,60.0240096,61b8f3437b89212fae0dfade
6,3.264,space,1.435,0,142,142,228,1,,,5fd7782dee03dc08d3f3f491,64377300a02b195fde449f25,04-12-2023_23h14.32.133,PRaM,2021.2.3,Win32,60.0240096,61b8f3437b89212fae0dfade
4,13.714,space,12.103,0,143,143,253,1,,,5fd7782dee03dc08d3f3f491,64377300a02b195fde449f25,04-12-2023_23h14.32.133,PRaM,2021.2.3,Win32,60.0240096,61b8f3437b89212fae0dfade
4,3.062,space,1.485,0,144,144,251,1,,,5fd7782dee03dc08d3f3f491,64377300a02b195fde449f25,04-12-2023_23h14.32.133,PRaM,2021.2.3,Win32,60.0240096,61b8f3437b89212fae0dfade
2,5.315,space,3.603,0,145,145,58,1,,,5fd7782dee03dc08d3f3f491,64377300a02b195fde449f25,04-12-2023_23h14.32.133,PRaM,2021.2.3,Win32,60.0240096,61b8f3437b89212fae0dfade
5,4.315,space,2.702,0,146,146,104,1,,,5fd7782dee03dc08d3f3f491,64377300a02b195fde449f25,04-12-2023_23h14.32.133,PRaM,2021.2.3,Win32,60.0240096,61b8f3437b89212fae0dfade
6,4.282,space,2.835,0,147,147,337,1,,,5fd7782dee03dc08d3f3f491,64377300a02b195fde449f25,04-12-2023_23h14.32.133,PRaM,2021.2.3,Win32,60.0240096,61b8f3437b89212fae0dfade
6,8.247,space,6.967,0,148,148,239,1,,,5fd7782dee03dc08d3f3f491,64377300a02b195fde449f25,04-12-2023_23h14.32.133,PRaM,2021.2.3,Win32,60.0240096,61b8f3437b89212fae0dfade
1,4.78,space,3.168,0,149,149,39,1,,,5fd7782dee03dc08d3f3f491,64377300a02b195fde449f25,04-12-2023_23h14.32.133,PRaM,2021.2.3,Win32,60.0240096,61b8f3437b89212fae0dfade
6,6.23,space,4.651,0,150,150,271,1,,,5fd7782dee03dc08d3f3f491,64377300a02b195fde449f25,04-12-2023_23h14.32.133,PRaM,2021.2.3,Win32,60.0240096,61b8f3437b89212fae0dfade
4,4.264,space,2.752,0,151,151,357,1,,,5fd7782dee03dc08d3f3f491,64377300a02b195fde449f25,04-12-2023_23h14.32.133,PRaM,2021.2.3,Win32,60.0240096,61b8f3437b89212fae0dfade
8,4.781,space,3.118,0,152,152,364,1,,,5fd7782dee03dc08d3f3f491,64377300a02b195fde449f25,04-12-2023_23h14.32.133,PRaM,2021.2.3,Win32,60.0240096,61b8f3437b89212fae0dfade
1,15.348,space,13.801,0,153,153,342,1,,,5fd7782dee03dc08d3f3f491,64377300a02b195fde449f25,04-12-2023_23h14.32.133,PRaM,2021.2.3,Win32,60.0240096,61b8f3437b89212fae0dfade
3,4.914,space,3.319,0,154,154,179,1,,,5fd7782dee03dc08d3f3f491,64377300a02b195fde449f25,04-12-2023_23h14.32.133,PRaM,2021.2.3,Win32,60.0240096,61b8f3437b89212fae0dfade
1,3.68,space,2.083,0,155,155,1,1,,,5fd7782dee03dc08d3f3f491,64377300a02b195fde449f25,04-12-2023_23h14.32.133,PRaM,2021.2.3,Win32,60.0240096,61b8f3437b89212fae0dfade
4,3.947,space,2.534,0,156,156,220,1,,,5fd7782dee03dc08d3f3f491,64377300a02b195fde449f25,04-12-2023_23h14.32.133,PRaM,2021.2.3,Win32,60.0240096,61b8f3437b89212fae0dfade
3,10.931,space,9.2,0,157,157,5,1,,,5fd7782dee03dc08d3f3f491,64377300a02b195fde449f25,04-12-2023_23h14.32.133,PRaM,2021.2.3,Win32,60.0240096,61b8f3437b89212fae0dfade
8,2.08,space,0.369,0,158,158,323,1,,,5fd7782dee03dc08d3f3f491,64377300a02b195fde449f25,04-12-2023_23h14.32.133,PRaM,2021.2.3,Win32,60.0240096,61b8f3437b89212fae0dfade
4,2.314,space,0.468,0,159,159,77,1,,,5fd7782dee03dc08d3f3f491,64377300a02b195fde449f25,04-12-2023_23h14.32.133,PRaM,2021.2.3,Win32,60.0240096,61b8f3437b89212fae0dfade
6,4.615,space,2.918,0,160,160,296,1,,,5fd7782dee03dc08d3f3f491,64377300a02b195fde449f25,04-12-2023_23h14.32.133,PRaM,2021.2.3,Win32,60.0240096,61b8f3437b89212fae0dfade
7,3.148,space,4.001,0,161,161,105,1,,,5fd7782dee03dc08d3f3f491,64377300a02b195fde449f25,04-12-2023_23h14.32.133,PRaM,2021.2.3,Win32,60.0240096,61b8f3437b89212fae0dfade
6,3.848,space,2.167,0,162,162,40,1,,,5fd7782dee03dc08d3f3f491,64377300a02b195fde449f25,04-12-2023_23h14.32.133,PRaM,2021.2.3,Win32,60.0240096,61b8f3437b89212fae0dfade
3,14.214,space,12.851,0,163,163,298,1,,,5fd7782dee03dc08d3f3f491,64377300a02b195fde449f25,04-12-2023_23h14.32.133,PRaM,2021.2.3,Win32,60.0240096,61b8f3437b89212fae0dfade
3,6.664,space,5.22,0,164,164,62,1,,,5fd7782dee03dc08d3f3f491,64377300a02b195fde449f25,04-12-2023_23h14.32.133,PRaM,2021.2.3,Win32,60.0240096,61b8f3437b89212fae0dfade
3,2.797,space,1.201,0,165,165,66,1,,,5fd7782dee03dc08d3f3f491,64377300a02b195fde449f25,04-12-2023_23h14.32.133,PRaM,2021.2.3,Win32,60.0240096,61b8f3437b89212fae0dfade
8,3.432,space,1.786,0,166,166,85,1,,,5fd7782dee03dc08d3f3f491,64377300a02b195fde449f25,04-12-2023_23h14.32.133,PRaM,2021.2.3,Win32,60.0240096,61b8f3437b89212fae0dfade
8,1.78,space,0.151,0,167,167,208,1,,,5fd7782dee03dc08d3f3f491,64377300a02b195fde449f25,04-12-2023_23h14.32.133,PRaM,2021.2.3,Win32,60.0240096,61b8f3437b89212fae0dfade
4,5.483,space,3.967,0,168,168,375,1,,,5fd7782dee03dc08d3f3f491,64377300a02b195fde449f25,04-12-2023_23h14.32.133,PRaM,2021.2.3,Win32,60.0240096,61b8f3437b89212fae0dfade
1,13.099,space,11.583,0,169,169,265,1,,,5fd7782dee03dc08d3f3f491,64377300a02b195fde449f25,04-12-2023_23h14.32.133,PRaM,2021.2.3,Win32,60.0240096,61b8f3437b89212fae0dfade
3,10.697,space,9.034,0,170,170,252,1,,,5fd7782dee03dc08d3f3f491,64377300a02b195fde449f25,04-12-2023_23h14.32.133,PRaM,2021.2.3,Win32,60.0240096,61b8f3437b89212fae0dfade
2,3.181,space,1.585,0,171,171,57,1,,,5fd7782dee03dc08d3f3f491,64377300a02b195fde449f25,04-12-2023_23h14.32.133,PRaM,2021.2.3,Win32,60.0240096,61b8f3437b89212fae0dfade
3,5.464,space,3.786,0,172,172,96,1,,,5fd7782dee03dc08d3f3f491,64377300a02b195fde449f25,04-12-2023_23h14.32.133,PRaM,2021.2.3,Win32,60.0240096,61b8f3437b89212fae0dfade
2,4.448,space,2.951,0,173,173,97,1,,,5fd7782dee03dc08d3f3f491,64377300a02b195fde449f25,04-12-2023_23h14.32.133,PRaM,2021.2.3,Win32,60.0240096,61b8f3437b89212fae0dfade
2,7.463,space,6.301,0,174,174,120,1,,,5fd7782dee03dc08d3f3f491,64377300a02b195fde449f25,04-12-2023_23h14.32.133,PRaM,2021.2.3,Win32,60.0240096,61b8f3437b89212fae0dfade
1,2.666,space,1.022,0,175,175,315,1,,,5fd7782dee03dc08d3f3f491,64377300a02b195fde449f25,04-12-2023_23h14.32.133,PRaM,2021.2.3,Win32,60.0240096,61b8f3437b89212fae0dfade
1,1.947,space,0.319,0,176,176,300,1,,,5fd7782dee03dc08d3f3f491,64377300a02b195fde449f25,04-12-2023_23h14.32.133,PRaM,2021.2.3,Win32,60.0240096,61b8f3437b89212fae0dfade
6,10.447,space,9.685,0,177,177,81,1,,,5fd7782dee03dc08d3f3f491,64377300a02b195fde449f25,04-12-2023_23h14.32.133,PRaM,2021.2.3,Win32,60.0240096,61b8f3437b89212fae0dfade
7,7.715,space,6.217,0,178,178,242,1,,,5fd7782dee03dc08d3f3f491,64377300a02b195fde449f25,04-12-2023_23h14.32.133,PRaM,2021.2.3,Win32,60.0240096,61b8f3437b89212fae0dfade
6,4.93,space,3.885,0,179,179,216,1,,,5fd7782dee03dc08d3f3f491,64377300a02b195fde449f25,04-12-2023_23h14.32.133,PRaM,2021.2.3,Win32,60.0240096,61b8f3437b89212fae0dfade
9,19.68,space,18.167,0,180,180,4,1,,,5fd7782dee03dc08d3f3f491,64377300a02b195fde449f25,04-12-2023_23h14.32.133,PRaM,2021.2.3,Win32,60.0240096,61b8f3437b89212fae0dfade
5,4.446,space,2.784,0,181,181,369,1,,,5fd7782dee03dc08d3f3f491,64377300a02b195fde449f25,04-12-2023_23h14.32.133,PRaM,2021.2.3,Win32,60.0240096,61b8f3437b89212fae0dfade
6,3.431,space,1.869,0,182,182,199,1,,,5fd7782dee03dc08d3f3f491,64377300a02b195fde449f25,04-12-2023_23h14.32.133,PRaM,2021.2.3,Win32,60.0240096,61b8f3437b89212fae0dfade
3,3.48,space,1.785,0,183,183,72,1,,,5fd7782dee03dc08d3f3f491,64377300a02b195fde449f25,04-12-2023_23h14.32.133,PRaM,2021.2.3,Win32,60.0240096,61b8f3437b89212fae0dfade
8,15.763,space,14.051,0,184,184,264,1,,,5fd7782dee03dc08d3f3f491,64377300a02b195fde449f25,04-12-2023_23h14.32.133,PRaM,2021.2.3,Win32,60.0240096,61b8f3437b89212fae0dfade
8,3.045,space,1.318,0,185,185,115,1,,,5fd7782dee03dc08d3f3f491,64377300a02b195fde449f25,04-12-2023_23h14.32.133,PRaM,2021.2.3,Win32,60.0240096,61b8f3437b89212fae0dfade
6,15.247,space,13.553,0,186,186,80,1,,,5fd7782dee03dc08d3f3f491,64377300a02b195fde449f25,04-12-2023_23h14.32.133,PRaM,2021.2.3,Win32,60.0240096,61b8f3437b89212fae0dfade
2,4.148,space,2.468,0,187,187,191,1,,,5fd7782dee03dc08d3f3f491,64377300a02b195fde449f25,04-12-2023_23h14.32.133,PRaM,2021.2.3,Win32,60.0240096,61b8f3437b89212fae0dfade
4,5.497,space,3.902,0,188,188,183,1,,,5fd7782dee03dc08d3f3f491,64377300a02b195fde449f25,04-12-2023_23h14.32.133,PRaM,2021.2.3,Win32,60.0240096,61b8f3437b89212fae0dfade
6,3.699,space,2.019,0,189,189,53,1,,,5fd7782dee03dc08d3f3f491,64377300a02b195fde449f25,04-12-2023_23h14.32.133,PRaM,2021.2.3,Win32,60.0240096,61b8f3437b89212fae0dfade
2,21.664,space,20.067,0,190,190,202,1,,,5fd7782dee03dc08d3f3f491,64377300a02b195fde449f25,04-12-2023_23h14.32.133,PRaM,2021.2.3,Win32,60.0240096,61b8f3437b89212fae0dfade
5,3.562,space,1.817,0,191,191,149,1,,,5fd7782dee03dc08d3f3f491,64377300a02b195fde449f25,04-12-2023_23h14.32.133,PRaM,2021.2.3,Win32,60.0240096,61b8f3437b89212fae0dfade
1,3.28,space,1.569,0,192,192,79,1,,,5fd7782dee03dc08d3f3f491,64377300a02b195fde449f25,04-12-2023_23h14.32.133,PRaM,2021.2.3,Win32,60.0240096,61b8f3437b89212fae0dfade
2,3.179,space,1.518,0,193,193,359,1,,,5fd7782dee03dc08d3f3f491,64377300a02b195fde449f25,04-12-2023_23h14.32.133,PRaM,2021.2.3,Win32,60.0240096,61b8f3437b89212fae0dfade
3,4.697,space,3.185,0,194,194,257,1,,,5fd7782dee03dc08d3f3f491,64377300a02b195fde449f25,04-12-2023_23h14.32.133,PRaM,2021.2.3,Win32,60.0240096,61b8f3437b89212fae0dfade
5,8.915,space,7.15,0,195,195,211,1,,,5fd7782dee03dc08d3f3f491,64377300a02b195fde449f25,04-12-2023_23h14.32.133,PRaM,2021.2.3,Win32,60.0240096,61b8f3437b89212fae0dfade
1,3.782,space,3.867,0,196,196,204,1,,,5fd7782dee03dc08d3f3f491,64377300a02b195fde449f25,04-12-2023_23h14.32.133,PRaM,2021.2.3,Win32,60.0240096,61b8f3437b89212fae0dfade
1,3.146,space,1.701,0,197,197,354,1,,,5fd7782dee03dc08d3f3f491,64377300a02b195fde449f25,04-12-2023_23h14.32.133,PRaM,2021.2.3,Win32,60.0240096,61b8f3437b89212fae0dfade
9,3.015,space,1.568,0,198,198,110,1,,,5fd7782dee03dc08d3f3f491,64377300a02b195fde449f25,04-12-2023_23h14.32.133,PRaM,2021.2.3,Win32,60.0240096,61b8f3437b89212fae0dfade
3,6.08,space,4.551,0,199,199,76,1,,,5fd7782dee03dc08d3f3f491,64377300a02b195fde449f25,04-12-2023_23h14.32.133,PRaM,2021.2.3,Win32,60.0240096,61b8f3437b89212fae0dfade
2,4.331,space,2.668,0,200,200,10,1,,,5fd7782dee03dc08d3f3f491,64377300a02b195fde449f25,04-12-2023_23h14.32.133,PRaM,2021.2.3,Win32,60.0240096,61b8f3437b89212fae0dfade
1,17.297,space,15.552,0,201,201,103,1,,,5fd7782dee03dc08d3f3f491,64377300a02b195fde449f25,04-12-2023_23h14.32.133,PRaM,2021.2.3,Win32,60.0240096,61b8f3437b89212fae0dfade
6,6.297,space,4.785,0,202,202,371,1,,,5fd7782dee03dc08d3f3f491,64377300a02b195fde449f25,04-12-2023_23h14.32.133,PRaM,2021.2.3,Win32,60.0240096,61b8f3437b89212fae0dfade
7,6.215,space,4.968,0,203,203,102,1,,,5fd7782dee03dc08d3f3f491,64377300a02b195fde449f25,04-12-2023_23h14.32.133,PRaM,2021.2.3,Win32,60.0240096,61b8f3437b89212fae0dfade
1,3.397,space,1.701,0,204,204,89,1,,,5fd7782dee03dc08d3f3f491,64377300a02b195fde449f25,04-12-2023_23h14.32.133,PRaM,2021.2.3,Win32,60.0240096,61b8f3437b89212fae0dfade
4,5.814,space,4.251,0,205,205,241,1,,,5fd7782dee03dc08d3f3f491,64377300a02b195fde449f25,04-12-2023_23h14.32.133,PRaM,2021.2.3,Win32,60.0240096,61b8f3437b89212fae0dfade
6,7.73,space,6.435,0,206,206,0,1,,,5fd7782dee03dc08d3f3f491,64377300a02b195fde449f25,04-12-2023_23h14.32.133,PRaM,2021.2.3,Win32,60.0240096,61b8f3437b89212fae0dfade
2,8.015,space,6.467,0,207,207,95,1,,,5fd7782dee03dc08d3f3f491,64377300a02b195fde449f25,04-12-2023_23h14.32.133,PRaM,2021.2.3,Win32,60.0240096,61b8f3437b89212fae0dfade
2,11.996,space,10.349,0,208,208,135,1,,,5fd7782dee03dc08d3f3f491,64377300a02b195fde449f25,04-12-2023_23h14.32.133,PRaM,2021.2.3,Win32,60.0240096,61b8f3437b89212fae0dfade
1,3.737,space,1.984,0,209,209,282,1,,,5fd7782dee03dc08d3f3f491,64377300a02b195fde449f25,04-12-2023_23h14.32.133,PRaM,2021.2.3,Win32,60.0240096,61b8f3437b89212fae0dfade
3,4.516,space,2.902,0,210,210,145,1,,,5fd7782dee03dc08d3f3f491,64377300a02b195fde449f25,04-12-2023_23h14.32.133,PRaM,2021.2.3,Win32,60.0240096,61b8f3437b89212fae0dfade
5,3.564,space,1.885,0,211,211,335,1,,,5fd7782dee03dc08d3f3f491,64377300a02b195fde449f25,04-12-2023_23h14.32.133,PRaM,2021.2.3,Win32,60.0240096,61b8f3437b89212fae0dfade
8,4.248,space,2.616,0,212,212,194,1,,,5fd7782dee03dc08d3f3f491,64377300a02b195fde449f25,04-12-2023_23h14.32.133,PRaM,2021.2.3,Win32,60.0240096,61b8f3437b89212fae0dfade
6,4.999,space,3.251,0,213,213,308,1,,,5fd7782dee03dc08d3f3f491,64377300a02b195fde449f25,04-12-2023_23h14.32.133,PRaM,2021.2.3,Win32,60.0240096,61b8f3437b89212fae0dfade
4,14.515,space,12.936,0,214,214,169,1,,,5fd7782dee03dc08d3f3f491,64377300a02b195fde449f25,04-12-2023_23h14.32.133,PRaM,2021.2.3,Win32,60.0240096,61b8f3437b89212fae0dfade
1,5.965,space,4.484,0,215,215,284,1,,,5fd7782dee03dc08d3f3f491,64377300a02b195fde449f25,04-12-2023_23h14.32.133,PRaM,2021.2.3,Win32,60.0240096,61b8f3437b89212fae0dfade
1,2.13,space,0.468,0,216,216,212,1,,,5fd7782dee03dc08d3f3f491,64377300a02b195fde449f25,04-12-2023_23h14.32.133,PRaM,2021.2.3,Win32,60.0240096,61b8f3437b89212fae0dfade
4,4.797,space,3.034,0,217,217,259,1,,,5fd7782dee03dc08d3f3f491,64377300a02b195fde449f25,04-12-2023_23h14.32.133,PRaM,2021.2.3,Win32,60.0240096,61b8f3437b89212fae0dfade
7,3.047,space,1.651,0,218,218,119,1,,,5fd7782dee03dc08d3f3f491,64377300a02b195fde449f25,04-12-2023_23h14.32.133,PRaM,2021.2.3,Win32,60.0240096,61b8f3437b89212fae0dfade
1,3.413,space,1.702,0,219,219,157,1,,,5fd7782dee03dc08d3f3f491,64377300a02b195fde449f25,04-12-2023_23h14.32.133,PRaM,2021.2.3,Win32,60.0240096,61b8f3437b89212fae0dfade
9,2.629,space,0.952,0,220,220,276,1,,,5fd7782dee03dc08d3f3f491,64377300a02b195fde449f25,04-12-2023_23h14.32.133,PRaM,2021.2.3,Win32,60.0240096,61b8f3437b89212fae0dfade
1,6.429,space,4.884,0,221,221,360,1,,,5fd7782dee03dc08d3f3f491,64377300a02b195fde449f25,04-12-2023_23h14.32.133,PRaM,2021.2.3,Win32,60.0240096,61b8f3437b89212fae0dfade
1,2.547,space,1.135,0,222,222,36,1,,,5fd7782dee03dc08d3f3f491,64377300a02b195fde449f25,04-12-2023_23h14.32.133,PRaM,2021.2.3,Win32,60.0240096,61b8f3437b89212fae0dfade
2,4.513,space,2.902,0,223,223,227,1,,,5fd7782dee03dc08d3f3f491,64377300a02b195fde449f25,04-12-2023_23h14.32.133,PRaM,2021.2.3,Win32,60.0240096,61b8f3437b89212fae0dfade
2,5.981,space,4.352,0,224,224,362,1,,,5fd7782dee03dc08d3f3f491,64377300a02b195fde449f25,04-12-2023_23h14.32.133,PRaM,2021.2.3,Win32,60.0240096,61b8f3437b89212fae0dfade
3,9.597,space,8.084,0,225,225,168,1,,,5fd7782dee03dc08d3f3f491,64377300a02b195fde449f25,04-12-2023_23h14.32.133,PRaM,2021.2.3,Win32,60.0240096,61b8f3437b89212fae0dfade
2,19.183,space,17.684,0,226,226,18,1,,,5fd7782dee03dc08d3f3f491,64377300a02b195fde449f25,04-12-2023_23h14.32.133,PRaM,2021.2.3,Win32,60.0240096,61b8f3437b89212fae0dfade
7,2.581,space,0.818,0,227,227,280,1,,,5fd7782dee03dc08d3f3f491,64377300a02b195fde449f25,04-12-2023_23h14.32.133,PRaM,2021.2.3,Win32,60.0240096,61b8f3437b89212fae0dfade
3,4.913,space,3.134,0,228,228,25,1,,,5fd7782dee03dc08d3f3f491,64377300a02b195fde449f25,04-12-2023_23h14.32.133,PRaM,2021.2.3,Win32,60.0240096,61b8f3437b89212fae0dfade
3,4.23,space,2.451,0,229,229,163,1,,,5fd7782dee03dc08d3f3f491,64377300a02b195fde449f25,04-12-2023_23h14.32.133,PRaM,2021.2.3,Win32,60.0240096,61b8f3437b89212fae0dfade
,,space,3.486,0,230,230,41,1,,,5fd7782dee03dc08d3f3f491,64377300a02b195fde449f25,04-12-2023_23h14.32.133,PRaM,2021.2.3,Win32,60.0240096,61b8f3437b89212fae0dfade
7,15.896,space,14.318,0,231,231,184,1,,,5fd7782dee03dc08d3f3f491,64377300a02b195fde449f25,04-12-2023_23h14.32.133,PRaM,2021.2.3,Win32,60.0240096,61b8f3437b89212fae0dfade
1,5.015,space,3.819,0,232,232,198,1,,,5fd7782dee03dc08d3f3f491,64377300a02b195fde449f25,04-12-2023_23h14.32.133,PRaM,2021.2.3,Win32,60.0240096,61b8f3437b89212fae0dfade
1,2.963,space,1.936,0,233,233,128,1,,,5fd7782dee03dc08d3f3f491,64377300a02b195fde449f25,04-12-2023_23h14.32.133,PRaM,2021.2.3,Win32,60.0240096,61b8f3437b89212fae0dfade
2,4.563,space,3.469,0,234,234,327,1,,,5fd7782dee03dc08d3f3f491,64377300a02b195fde449f25,04-12-2023_23h14.32.133,PRaM,2021.2.3,Win32,60.0240096,61b8f3437b89212fae0dfade
1,3.563,space,1.934,0,235,235,55,1,,,5fd7782dee03dc08d3f3f491,64377300a02b195fde449f25,04-12-2023_23h14.32.133,PRaM,2021.2.3,Win32,60.0240096,61b8f3437b89212fae0dfade
4,2.697,space,1.735,0,236,236,332,1,,,5fd7782dee03dc08d3f3f491,64377300a02b195fde449f25,04-12-2023_23h14.32.133,PRaM,2021.2.3,Win32,60.0240096,61b8f3437b89212fae0dfade
5,8.031,space,6.551,0,237,237,272,1,,,5fd7782dee03dc08d3f3f491,64377300a02b195fde449f25,04-12-2023_23h14.32.133,PRaM,2021.2.3,Win32,60.0240096,61b8f3437b89212fae0dfade
3,25.831,space,24.203,0,238,238,186,1,,,5fd7782dee03dc08d3f3f491,64377300a02b195fde449f25,04-12-2023_23h14.32.133,PRaM,2021.2.3,Win32,60.0240096,61b8f3437b89212fae0dfade
6,3.398,space,1.751,0,239,239,376,1,,,5fd7782dee03dc08d3f3f491,64377300a02b195fde449f25,04-12-2023_23h14.32.133,PRaM,2021.2.3,Win32,60.0240096,61b8f3437b89212fae0dfade
8,5.331,space,5.068,0,240,240,366,1,,,5fd7782dee03dc08d3f3f491,64377300a02b195fde449f25,04-12-2023_23h14.32.133,PRaM,2021.2.3,Win32,60.0240096,61b8f3437b89212fae0dfade
4,5.98,space,4.335,0,241,241,219,1,,,5fd7782dee03dc08d3f3f491,64377300a02b195fde449f25,04-12-2023_23h14.32.133,PRaM,2021.2.3,Win32,60.0240096,61b8f3437b89212fae0dfade
2,3.614,space,1.917,0,242,242,336,1,,,5fd7782dee03dc08d3f3f491,64377300a02b195fde449f25,04-12-2023_23h14.32.133,PRaM,2021.2.3,Win32,60.0240096,61b8f3437b89212fae0dfade
4,4.115,space,2.418,0,243,243,32,1,,,5fd7782dee03dc08d3f3f491,64377300a02b195fde449f25,04-12-2023_23h14.32.133,PRaM,2021.2.3,Win32,60.0240096,61b8f3437b89212fae0dfade
1,3.131,space,1.4,0,244,244,190,1,,,5fd7782dee03dc08d3f3f491,64377300a02b195fde449f25,04-12-2023_23h14.32.133,PRaM,2021.2.3,Win32,60.0240096,61b8f3437b89212fae0dfade
6,10.597,space,9.118,0,245,245,246,1,,,5fd7782dee03dc08d3f3f491,64377300a02b195fde449f25,04-12-2023_23h14.32.133,PRaM,2021.2.3,Win32,60.0240096,61b8f3437b89212fae0dfade
7,7.431,space,5.902,0,246,246,352,1,,,5fd7782dee03dc08d3f3f491,64377300a02b195fde449f25,04-12-2023_23h14.32.133,PRaM,2021.2.3,Win32,60.0240096,61b8f3437b89212fae0dfade
2,8.415,space,6.753,0,247,247,156,1,,,5fd7782dee03dc08d3f3f491,64377300a02b195fde449f25,04-12-2023_23h14.32.133,PRaM,2021.2.3,Win32,60.0240096,61b8f3437b89212fae0dfade
1,2.832,space,1.202,0,248,248,50,1,,,5fd7782dee03dc08d3f3f491,64377300a02b195fde449f25,04-12-2023_23h14.32.133,PRaM,2021.2.3,Win32,60.0240096,61b8f3437b89212fae0dfade
8,2.781,space,1.352,0,249,249,222,1,,,5fd7782dee03dc08d3f3f491,64377300a02b195fde449f25,04-12-2023_23h14.32.133,PRaM,2021.2.3,Win32,60.0240096,61b8f3437b89212fae0dfade
8,4.564,space,3.017,0,250,250,84,1,,,5fd7782dee03dc08d3f3f491,64377300a02b195fde449f25,04-12-2023_23h14.32.133,PRaM,2021.2.3,Win32,60.0240096,61b8f3437b89212fae0dfade
6,6.49,space,5.134,0,251,251,64,1,,,5fd7782dee03dc08d3f3f491,64377300a02b195fde449f25,04-12-2023_23h14.32.133,PRaM,2021.2.3,Win32,60.0240096,61b8f3437b89212fae0dfade
2,4.297,space,2.902,0,252,252,109,1,,,5fd7782dee03dc08d3f3f491,64377300a02b195fde449f25,04-12-2023_23h14.32.133,PRaM,2021.2.3,Win32,60.0240096,61b8f3437b89212fae0dfade
1,18.181,space,16.635,0,253,253,229,1,,,5fd7782dee03dc08d3f3f491,64377300a02b195fde449f25,04-12-2023_23h14.32.133,PRaM,2021.2.3,Win32,60.0240096,61b8f3437b89212fae0dfade
1,2.212,space,0.566,0,254,254,129,1,,,5fd7782dee03dc08d3f3f491,64377300a02b195fde449f25,04-12-2023_23h14.32.133,PRaM,2021.2.3,Win32,60.0240096,61b8f3437b89212fae0dfade
1,2.33,space,1.233,0,255,255,33,1,,,5fd7782dee03dc08d3f3f491,64377300a02b195fde449f25,04-12-2023_23h14.32.133,PRaM,2021.2.3,Win32,60.0240096,61b8f3437b89212fae0dfade
7,5.63,space,3.918,0,256,256,60,1,,,5fd7782dee03dc08d3f3f491,64377300a02b195fde449f25,04-12-2023_23h14.32.133,PRaM,2021.2.3,Win32,60.0240096,61b8f3437b89212fae0dfade
1,4.947,space,3.351,0,257,257,287,1,,,5fd7782dee03dc08d3f3f491,64377300a02b195fde449f25,04-12-2023_23h14.32.133,PRaM,2021.2.3,Win32,60.0240096,61b8f3437b89212fae0dfade
7,25.281,space,23.934,0,258,258,152,1,,,5fd7782dee03dc08d3f3f491,64377300a02b195fde449f25,04-12-2023_23h14.32.133,PRaM,2021.2.3,Win32,60.0240096,61b8f3437b89212fae0dfade
9,2.98,space,1.851,0,259,259,42,1,,,5fd7782dee03dc08d3f3f491,64377300a02b195fde449f25,04-12-2023_23h14.32.133,PRaM,2021.2.3,Win32,60.0240096,61b8f3437b89212fae0dfade
2,3.314,space,1.669,0,260,260,138,1,,,5fd7782dee03dc08d3f3f491,64377300a02b195fde449f25,04-12-2023_23h14.32.133,PRaM,2021.2.3,Win32,60.0240096,61b8f3437b89212fae0dfade
2,2.932,space,1.551,0,261,261,71,1,,,5fd7782dee03dc08d3f3f491,64377300a02b195fde449f25,04-12-2023_23h14.32.133,PRaM,2021.2.3,Win32,60.0240096,61b8f3437b89212fae0dfade
1,4.397,space,2.819,0,262,262,34,1,,,5fd7782dee03dc08d3f3f491,64377300a02b195fde449f25,04-12-2023_23h14.32.133,PRaM,2021.2.3,Win32,60.0240096,61b8f3437b89212fae0dfade
2,15.515,space,17.051,0,263,263,343,1,,,5fd7782dee03dc08d3f3f491,64377300a02b195fde449f25,04-12-2023_23h14.32.133,PRaM,2021.2.3,Win32,60.0240096,61b8f3437b89212fae0dfade
3,19.696,space,18.05,0,264,264,193,1,,,5fd7782dee03dc08d3f3f491,64377300a02b195fde449f25,04-12-2023_23h14.32.133,PRaM,2021.2.3,Win32,60.0240096,61b8f3437b89212fae0dfade
8,3.632,space,1.986,0,265,265,117,1,,,5fd7782dee03dc08d3f3f491,64377300a02b195fde449f25,04-12-2023_23h14.32.133,PRaM,2021.2.3,Win32,60.0240096,61b8f3437b89212fae0dfade
9,1.806,space,0.218,0,266,266,137,1,,,5fd7782dee03dc08d3f3f491,64377300a02b195fde449f25,04-12-2023_23h14.32.133,PRaM,2021.2.3,Win32,60.0240096,61b8f3437b89212fae0dfade
4,7.031,space,6.101,0,267,267,358,1,,,5fd7782dee03dc08d3f3f491,64377300a02b195fde449f25,04-12-2023_23h14.32.133,PRaM,2021.2.3,Win32,60.0240096,61b8f3437b89212fae0dfade
1,14.814,space,14.104,0,268,268,108,1,,,5fd7782dee03dc08d3f3f491,64377300a02b195fde449f25,04-12-2023_23h14.32.133,PRaM,2021.2.3,Win32,60.0240096,61b8f3437b89212fae0dfade
7,5.247,space,3.585,0,269,269,83,1,,,5fd7782dee03dc08d3f3f491,64377300a02b195fde449f25,04-12-2023_23h14.32.133,PRaM,2021.2.3,Win32,60.0240096,61b8f3437b89212fae0dfade
2,3.448,space,1.771,0,270,270,181,1,,,5fd7782dee03dc08d3f3f491,64377300a02b195fde449f25,04-12-2023_23h14.32.133,PRaM,2021.2.3,Win32,60.0240096,61b8f3437b89212fae0dfade
7,3.163,space,1.585,0,271,271,326,1,,,5fd7782dee03dc08d3f3f491,64377300a02b195fde449f25,04-12-2023_23h14.32.133,PRaM,2021.2.3,Win32,60.0240096,61b8f3437b89212fae0dfade
1,4.298,space,2.702,0,272,272,160,1,,,5fd7782dee03dc08d3f3f491,64377300a02b195fde449f25,04-12-2023_23h14.32.133,PRaM,2021.2.3,Win32,60.0240096,61b8f3437b89212fae0dfade
4,7.913,space,6.301,0,273,273,235,1,,,5fd7782dee03dc08d3f3f491,64377300a02b195fde449f25,04-12-2023_23h14.32.133,PRaM,2021.2.3,Win32,60.0240096,61b8f3437b89212fae0dfade
7,2.931,space,1.686,0,274,274,305,1,,,5fd7782dee03dc08d3f3f491,64377300a02b195fde449f25,04-12-2023_23h14.32.133,PRaM,2021.2.3,Win32,60.0240096,61b8f3437b89212fae0dfade
3,5.564,space,4.052,0,275,275,178,1,,,5fd7782dee03dc08d3f3f491,64377300a02b195fde449f25,04-12-2023_23h14.32.133,PRaM,2021.2.3,Win32,60.0240096,61b8f3437b89212fae0dfade
8,3.282,space,1.636,0,276,276,114,1,,,5fd7782dee03dc08d3f3f491,64377300a02b195fde449f25,04-12-2023_23h14.32.133,PRaM,2021.2.3,Win32,60.0240096,61b8f3437b89212fae0dfade
1,12.313,space,10.733,0,277,277,15,1,,,5fd7782dee03dc08d3f3f491,64377300a02b195fde449f25,04-12-2023_23h14.32.133,PRaM,2021.2.3,Win32,60.0240096,61b8f3437b89212fae0dfade
6,4.098,space,2.434,0,278,278,164,1,,,5fd7782dee03dc08d3f3f491,64377300a02b195fde449f25,04-12-2023_23h14.32.133,PRaM,2021.2.3,Win32,60.0240096,61b8f3437b89212fae0dfade
2,21.131,space,19.701,0,279,279,218,1,,,5fd7782dee03dc08d3f3f491,64377300a02b195fde449f25,04-12-2023_23h14.32.133,PRaM,2021.2.3,Win32,60.0240096,61b8f3437b89212fae0dfade
5,3.396,space,1.771,0,280,280,277,1,,,5fd7782dee03dc08d3f3f491,64377300a02b195fde449f25,04-12-2023_23h14.32.133,PRaM,2021.2.3,Win32,60.0240096,61b8f3437b89212fae0dfade
2,3.746,space,2.536,0,281,281,328,1,,,5fd7782dee03dc08d3f3f491,64377300a02b195fde449f25,04-12-2023_23h14.32.133,PRaM,2021.2.3,Win32,60.0240096,61b8f3437b89212fae0dfade
1,3.38,space,1.885,0,282,282,232,1,,,5fd7782dee03dc08d3f3f491,64377300a02b195fde449f25,04-12-2023_23h14.32.133,PRaM,2021.2.3,Win32,60.0240096,61b8f3437b89212fae0dfade
2,7.513,space,5.9,0,283,283,293,1,,,5fd7782dee03dc08d3f3f491,64377300a02b195fde449f25,04-12-2023_23h14.32.133,PRaM,2021.2.3,Win32,60.0240096,61b8f3437b89212fae0dfade
1,3.247,space,1.685,0,284,284,196,1,,,5fd7782dee03dc08d3f3f491,64377300a02b195fde449f25,04-12-2023_23h14.32.133,PRaM,2021.2.3,Win32,60.0240096,61b8f3437b89212fae0dfade
1,4.347,space,2.869,0,285,285,339,1,,,5fd7782dee03dc08d3f3f491,64377300a02b195fde449f25,04-12-2023_23h14.32.133,PRaM,2021.2.3,Win32,60.0240096,61b8f3437b89212fae0dfade
4,13.681,space,12.002,0,286,286,240,1,,,5fd7782dee03dc08d3f3f491,64377300a02b195fde449f25,04-12-2023_23h14.32.133,PRaM,2021.2.3,Win32,60.0240096,61b8f3437b89212fae0dfade
5,4.781,space,3.118,0,287,287,175,1,,,5fd7782dee03dc08d3f3f491,64377300a02b195fde449f25,04-12-2023_23h14.32.133,PRaM,2021.2.3,Win32,60.0240096,61b8f3437b89212fae0dfade
1,11.931,space,10.451,0,288,288,11,1,,,5fd7782dee03dc08d3f3f491,64377300a02b195fde449f25,04-12-2023_23h14.32.133,PRaM,2021.2.3,Win32,60.0240096,61b8f3437b89212fae0dfade
1,1.948,space,0.351,0,289,289,158,1,,,5fd7782dee03dc08d3f3f491,64377300a02b195fde449f25,04-12-2023_23h14.32.133,PRaM,2021.2.3,Win32,60.0240096,61b8f3437b89212fae0dfade
1,3.198,space,1.569,0,290,290,210,1,,,5fd7782dee03dc08d3f3f491,64377300a02b195fde449f25,04-12-2023_23h14.32.133,PRaM,2021.2.3,Win32,60.0240096,61b8f3437b89212fae0dfade
1,4.729,space,3.452,0,291,291,148,1,,,5fd7782dee03dc08d3f3f491,64377300a02b195fde449f25,04-12-2023_23h14.32.133,PRaM,2021.2.3,Win32,60.0240096,61b8f3437b89212fae0dfade
4,4.215,space,3.235,0,292,292,306,1,,,5fd7782dee03dc08d3f3f491,64377300a02b195fde449f25,04-12-2023_23h14.32.133,PRaM,2021.2.3,Win32,60.0240096,61b8f3437b89212fae0dfade
1,5.33,space,3.718,0,293,293,87,1,,,5fd7782dee03dc08d3f3f491,64377300a02b195fde449f25,04-12-2023_23h14.32.133,PRaM,2021.2.3,Win32,60.0240096,61b8f3437b89212fae0dfade
3,7.129,space,5.751,0,294,294,223,1,,,5fd7782dee03dc08d3f3f491,64377300a02b195fde449f25,04-12-2023_23h14.32.133,PRaM,2021.2.3,Win32,60.0240096,61b8f3437b89212fae0dfade
2,19.564,space,18.017,0,295,295,295,1,,,5fd7782dee03dc08d3f3f491,64377300a02b195fde449f25,04-12-2023_23h14.32.133,PRaM,2021.2.3,Win32,60.0240096,61b8f3437b89212fae0dfade
5,4.197,space,3.235,0,296,296,236,1,,,5fd7782dee03dc08d3f3f491,64377300a02b195fde449f25,04-12-2023_23h14.32.133,PRaM,2021.2.3,Win32,60.0240096,61b8f3437b89212fae0dfade
2,5.048,space,3.367,0,297,297,131,1,,,5fd7782dee03dc08d3f3f491,64377300a02b195fde449f25,04-12-2023_23h14.32.133,PRaM,2021.2.3,Win32,60.0240096,61b8f3437b89212fae0dfade
1,2.915,space,1.202,0,298,298,353,1,,,5fd7782dee03dc08d3f3f491,64377300a02b195fde449f25,04-12-2023_23h14.32.133,PRaM,2021.2.3,Win32,60.0240096,61b8f3437b89212fae0dfade
8,5.248,space,3.612,0,299,299,274,1,,,5fd7782dee03dc08d3f3f491,64377300a02b195fde449f25,04-12-2023_23h14.32.133,PRaM,2021.2.3,Win32,60.0240096,61b8f3437b89212fae0dfade
2,6.673,space,5.185,0,300,300,49,1,,,5fd7782dee03dc08d3f3f491,64377300a02b195fde449f25,04-12-2023_23h14.32.133,PRaM,2021.2.3,Win32,60.0240096,61b8f3437b89212fae0dfade
5,31.898,space,30.2,0,301,301,201,1,,,5fd7782dee03dc08d3f3f491,64377300a02b195fde449f25,04-12-2023_23h14.32.133,PRaM,2021.2.3,Win32,60.0240096,61b8f3437b89212fae0dfade
7,4.482,space,2.985,0,302,302,213,1,,,5fd7782dee03dc08d3f3f491,64377300a02b195fde449f25,04-12-2023_23h14.32.133,PRaM,2021.2.3,Win32,60.0240096,61b8f3437b89212fae0dfade
2,3.181,space,1.384,0,303,303,143,1,,,5fd7782dee03dc08d3f3f491,64377300a02b195fde449f25,04-12-2023_23h14.32.133,PRaM,2021.2.3,Win32,60.0240096,61b8f3437b89212fae0dfade
1,2.864,space,1.117,0,304,304,234,1,,,5fd7782dee03dc08d3f3f491,64377300a02b195fde449f25,04-12-2023_23h14.32.133,PRaM,2021.2.3,Win32,60.0240096,61b8f3437b89212fae0dfade
3,4.072,space,2.335,0,305,305,56,1,,,5fd7782dee03dc08d3f3f491,64377300a02b195fde449f25,04-12-2023_23h14.32.133,PRaM,2021.2.3,Win32,60.0240096,61b8f3437b89212fae0dfade
3,2.381,space,0.818,0,306,306,88,1,,,5fd7782dee03dc08d3f3f491,64377300a02b195fde449f25,04-12-2023_23h14.32.133,PRaM,2021.2.3,Win32,60.0240096,61b8f3437b89212fae0dfade
7,5.099,space,3.4,0,307,307,370,1,,,5fd7782dee03dc08d3f3f491,64377300a02b195fde449f25,04-12-2023_23h14.32.133,PRaM,2021.2.3,Win32,60.0240096,61b8f3437b89212fae0dfade
8,3.898,space,2.486,0,308,308,16,1,,,5fd7782dee03dc08d3f3f491,64377300a02b195fde449f25,04-12-2023_23h14.32.133,PRaM,2021.2.3,Win32,60.0240096,61b8f3437b89212fae0dfade
4,5.447,space,3.734,0,309,309,374,1,,,5fd7782dee03dc08d3f3f491,64377300a02b195fde449f25,04-12-2023_23h14.32.133,PRaM,2021.2.3,Win32,60.0240096,61b8f3437b89212fae0dfade
1,5.33,space,3.652,0,310,310,106,1,,,5fd7782dee03dc08d3f3f491,64377300a02b195fde449f25,04-12-2023_23h14.32.133,PRaM,2021.2.3,Win32,60.0240096,61b8f3437b89212fae0dfade
1,6.597,space,5.1,0,311,311,2,1,,,5fd7782dee03dc08d3f3f491,64377300a02b195fde449f25,04-12-2023_23h14.32.133,PRaM,2021.2.3,Win32,60.0240096,61b8f3437b89212fae0dfade
7,7.346,space,5.767,0,312,312,132,1,,,5fd7782dee03dc08d3f3f491,64377300a02b195fde449f25,04-12-2023_23h14.32.133,PRaM,2021.2.3,Win32,60.0240096,61b8f3437b89212fae0dfade
6,55.033,space,53.567,0,313,313,249,1,,,5fd7782dee03dc08d3f3f491,64377300a02b195fde449f25,04-12-2023_23h14.32.133,PRaM,2021.2.3,Win32,60.0240096,61b8f3437b89212fae0dfade
5,4.148,space,2.402,0,314,314,180,1,,,5fd7782dee03dc08d3f3f491,64377300a02b195fde449f25,04-12-2023_23h14.32.133,PRaM,2021.2.3,Win32,60.0240096,61b8f3437b89212fae0dfade
3,5.164,space,3.551,0,315,315,162,1,,,5fd7782dee03dc08d3f3f491,64377300a02b195fde449f25,04-12-2023_23h14.32.133,PRaM,2021.2.3,Win32,60.0240096,61b8f3437b89212fae0dfade
7,3.914,space,2.485,0,316,316,51,1,,,5fd7782dee03dc08d3f3f491,64377300a02b195fde449f25,04-12-2023_23h14.32.133,PRaM,2021.2.3,Win32,60.0240096,61b8f3437b89212fae0dfade
2,57.73,space,57.649,0,317,317,69,1,,,5fd7782dee03dc08d3f3f491,64377300a02b195fde449f25,04-12-2023_23h14.32.133,PRaM,2021.2.3,Win32,60.0240096,61b8f3437b89212fae0dfade
6,11.68,space,10.167,0,318,318,238,1,,,5fd7782dee03dc08d3f3f491,64377300a02b195fde449f25,04-12-2023_23h14.32.133,PRaM,2021.2.3,Win32,60.0240096,61b8f3437b89212fae0dfade
3,13.631,space,11.902,0,319,319,373,1,,,5fd7782dee03dc08d3f3f491,64377300a02b195fde449f25,04-12-2023_23h14.32.133,PRaM,2021.2.3,Win32,60.0240096,61b8f3437b89212fae0dfade
1,2.397,space,0.651,0,320,320,275,1,,,5fd7782dee03dc08d3f3f491,64377300a02b195fde449f25,04-12-2023_23h14.32.133,PRaM,2021.2.3,Win32,60.0240096,61b8f3437b89212fae0dfade
1,1.948,space,0.052,0,321,321,313,1,,,5fd7782dee03dc08d3f3f491,64377300a02b195fde449f25,04-12-2023_23h14.32.133,PRaM,2021.2.3,Win32,60.0240096,61b8f3437b89212fae0dfade
1,2.798,space,0.953,0,322,322,153,1,,,5fd7782dee03dc08d3f3f491,64377300a02b195fde449f25,04-12-2023_23h14.32.133,PRaM,2021.2.3,Win32,60.0240096,61b8f3437b89212fae0dfade
2,6.115,space,4.768,0,323,323,303,1,,,5fd7782dee03dc08d3f3f491,64377300a02b195fde449f25,04-12-2023_23h14.32.133,PRaM,2021.2.3,Win32,60.0240096,61b8f3437b89212fae0dfade
9,3.797,space,2.134,0,324,324,319,1,,,5fd7782dee03dc08d3f3f491,64377300a02b195fde449f25,04-12-2023_23h14.32.133,PRaM,2021.2.3,Win32,60.0240096,61b8f3437b89212fae0dfade
5,7.049,space,5.567,0,325,325,205,1,,,5fd7782dee03dc08d3f3f491,64377300a02b195fde449f25,04-12-2023_23h14.32.133,PRaM,2021.2.3,Win32,60.0240096,61b8f3437b89212fae0dfade
1,4.48,space,2.769,0,326,326,245,1,,,5fd7782dee03dc08d3f3f491,64377300a02b195fde449f25,04-12-2023_23h14.32.133,PRaM,2021.2.3,Win32,60.0240096,61b8f3437b89212fae0dfade
8,14.48,space,12.834,0,327,327,304,1,,,5fd7782dee03dc08d3f3f491,64377300a02b195fde449f25,04-12-2023_23h14.32.133,PRaM,2021.2.3,Win32,60.0240096,61b8f3437b89212fae0dfade
1,2.598,space,0.9,0,328,328,312,1,,,5fd7782dee03dc08d3f3f491,64377300a02b195fde449f25,04-12-2023_23h14.32.133,PRaM,2021.2.3,Win32,60.0240096,61b8f3437b89212fae0dfade
6,4.321,space,2.485,0,329,329,355,1,,,5fd7782dee03dc08d3f3f491,64377300a02b195fde449f25,04-12-2023_23h14.32.133,PRaM,2021.2.3,Win32,60.0240096,61b8f3437b89212fae0dfade
7,5.367,space,3.819,0,330,330,221,1,,,5fd7782dee03dc08d3f3f491,64377300a02b195fde449f25,04-12-2023_23h14.32.133,PRaM,2021.2.3,Win32,60.0240096,61b8f3437b89212fae0dfade
7,2.697,space,0.835,0,331,331,139,1,,,5fd7782dee03dc08d3f3f491,64377300a02b195fde449f25,04-12-2023_23h14.32.133,PRaM,2021.2.3,Win32,60.0240096,61b8f3437b89212fae0dfade
4,11.031,space,10.303,0,332,332,230,1,,,5fd7782dee03dc08d3f3f491,64377300a02b195fde449f25,04-12-2023_23h14.32.133,PRaM,2021.2.3,Win32,60.0240096,61b8f3437b89212fae0dfade
2,4.762,space,3.003,0,333,333,321,1,,,5fd7782dee03dc08d3f3f491,64377300a02b195fde449f25,04-12-2023_23h14.32.133,PRaM,2021.2.3,Win32,60.0240096,61b8f3437b89212fae0dfade
5,3.195,space,1.485,0,334,334,334,1,,,5fd7782dee03dc08d3f3f491,64377300a02b195fde449f25,04-12-2023_23h14.32.133,PRaM,2021.2.3,Win32,60.0240096,61b8f3437b89212fae0dfade
6,3.981,space,2.252,0,335,335,151,1,,,5fd7782dee03dc08d3f3f491,64377300a02b195fde449f25,04-12-2023_23h14.32.133,PRaM,2021.2.3,Win32,60.0240096,61b8f3437b89212fae0dfade
5,10.214,space,8.769,0,336,336,30,1,,,5fd7782dee03dc08d3f3f491,64377300a02b195fde449f25,04-12-2023_23h14.32.133,PRaM,2021.2.3,Win32,60.0240096,61b8f3437b89212fae0dfade
1,7.131,space,5.567,0,337,337,67,1,,,5fd7782dee03dc08d3f3f491,64377300a02b195fde449f25,04-12-2023_23h14.32.133,PRaM,2021.2.3,Win32,60.0240096,61b8f3437b89212fae0dfade
3,6.031,space,4.485,0,338,338,338,1,,,5fd7782dee03dc08d3f3f491,64377300a02b195fde449f25,04-12-2023_23h14.32.133,PRaM,2021.2.3,Win32,60.0240096,61b8f3437b89212fae0dfade
3,5.496,space,3.8,0,339,339,310,1,,,5fd7782dee03dc08d3f3f491,64377300a02b195fde449f25,04-12-2023_23h14.32.133,PRaM,2021.2.3,Win32,60.0240096,61b8f3437b89212fae0dfade
1,6.548,space,4.801,0,340,340,125,1,,,5fd7782dee03dc08d3f3f491,64377300a02b195fde449f25,04-12-2023_23h14.32.133,PRaM,2021.2.3,Win32,60.0240096,61b8f3437b89212fae0dfade
2,6.866,space,5.218,0,341,341,200,1,,,5fd7782dee03dc08d3f3f491,64377300a02b195fde449f25,04-12-2023_23h14.32.133,PRaM,2021.2.3,Win32,60.0240096,61b8f3437b89212fae0dfade
6,3.23,space,3.47,0,342,342,141,1,,,5fd7782dee03dc08d3f3f491,64377300a02b195fde449f25,04-12-2023_23h14.32.133,PRaM,2021.2.3,Win32,60.0240096,61b8f3437b89212fae0dfade
6,4.078,space,2.452,0,343,343,347,1,,,5fd7782dee03dc08d3f3f491,64377300a02b195fde449f25,04-12-2023_23h14.32.133,PRaM,2021.2.3,Win32,60.0240096,61b8f3437b89212fae0dfade
4,3.498,space,1.768,0,344,344,365,1,,,5fd7782dee03dc08d3f3f491,64377300a02b195fde449f25,04-12-2023_23h14.32.133,PRaM,2021.2.3,Win32,60.0240096,61b8f3437b89212fae0dfade
9,10.264,space,9.017,0,345,345,225,1,,,5fd7782dee03dc08d3f3f491,64377300a02b195fde449f25,04-12-2023_23h14.32.133,PRaM,2021.2.3,Win32,60.0240096,61b8f3437b89212fae0dfade
1,2.515,space,0.784,0,346,346,54,1,,,5fd7782dee03dc08d3f3f491,64377300a02b195fde449f25,04-12-2023_23h14.32.133,PRaM,2021.2.3,Win32,60.0240096,61b8f3437b89212fae0dfade
2,4.166,space,2.902,0,347,347,237,1,,,5fd7782dee03dc08d3f3f491,64377300a02b195fde449f25,04-12-2023_23h14.32.133,PRaM,2021.2.3,Win32,60.0240096,61b8f3437b89212fae0dfade
6,2.865,space,1.086,0,348,348,61,1,,,5fd7782dee03dc08d3f3f491,64377300a02b195fde449f25,04-12-2023_23h14.32.133,PRaM,2021.2.3,Win32,60.0240096,61b8f3437b89212fae0dfade
4,8.33,space,6.634,0,349,349,255,1,,,5fd7782dee03dc08d3f3f491,64377300a02b195fde449f25,04-12-2023_23h14.32.133,PRaM,2021.2.3,Win32,60.0240096,61b8f3437b89212fae0dfade
1,6.531,space,4.884,0,350,350,329,1,,,5fd7782dee03dc08d3f3f491,64377300a02b195fde449f25,04-12-2023_23h14.32.133,PRaM,2021.2.3,Win32,60.0240096,61b8f3437b89212fae0dfade
1,33.279,space,31.699,0,351,351,65,1,,,5fd7782dee03dc08d3f3f491,64377300a02b195fde449f25,04-12-2023_23h14.32.133,PRaM,2021.2.3,Win32,60.0240096,61b8f3437b89212fae0dfade
7,7.498,space,7.184,0,352,352,351,1,,,5fd7782dee03dc08d3f3f491,64377300a02b195fde449f25,04-12-2023_23h14.32.133,PRaM,2021.2.3,Win32,60.0240096,61b8f3437b89212fae0dfade
1,2.587,space,0.784,0,353,353,231,1,,,5fd7782dee03dc08d3f3f491,64377300a02b195fde449f25,04-12-2023_23h14.32.133,PRaM,2021.2.3,Win32,60.0240096,61b8f3437b89212fae0dfade
7,3.447,space,1.653,0,354,354,318,1,,,5fd7782dee03dc08d3f3f491,64377300a02b195fde449f25,04-12-2023_23h14.32.133,PRaM,2021.2.3,Win32,60.0240096,61b8f3437b89212fae0dfade
9,3.13,space,1.434,0,355,355,320,1,,,5fd7782dee03dc08d3f3f491,64377300a02b195fde449f25,04-12-2023_23h14.32.133,PRaM,2021.2.3,Win32,60.0240096,61b8f3437b89212fae0dfade
7,3.347,space,1.702,0,356,356,192,1,,,5fd7782dee03dc08d3f3f491,64377300a02b195fde449f25,04-12-2023_23h14.32.133,PRaM,2021.2.3,Win32,60.0240096,61b8f3437b89212fae0dfade
4,3.848,space,2.067,0,357,357,93,1,,,5fd7782dee03dc08d3f3f491,64377300a02b195fde449f25,04-12-2023_23h14.32.133,PRaM,2021.2.3,Win32,60.0240096,61b8f3437b89212fae0dfade
2,3.114,space,1.286,0,358,358,206,1,,,5fd7782dee03dc08d3f3f491,64377300a02b195fde449f25,04-12-2023_23h14.32.133,PRaM,2021.2.3,Win32,60.0240096,61b8f3437b89212fae0dfade
1,7.098,space,5.534,0,359,359,283,1,,,5fd7782dee03dc08d3f3f491,64377300a02b195fde449f25,04-12-2023_23h14.32.133,PRaM,2021.2.3,Win32,60.0240096,61b8f3437b89212fae0dfade
7,6.231,space,5.117,0,360,360,291,1,,,5fd7782dee03dc08d3f3f491,64377300a02b195fde449f25,04-12-2023_23h14.32.133,PRaM,2021.2.3,Win32,60.0240096,61b8f3437b89212fae0dfade
3,6.931,space,5.184,0,361,361,123,1,,,5fd7782dee03dc08d3f3f491,64377300a02b195fde449f25,04-12-2023_23h14.32.133,PRaM,2021.2.3,Win32,60.0240096,61b8f3437b89212fae0dfade
1,2.899,space,1.286,0,362,362,195,1,,,5fd7782dee03dc08d3f3f491,64377300a02b195fde449f25,04-12-2023_23h14.32.133,PRaM,2021.2.3,Win32,60.0240096,61b8f3437b89212fae0dfade
4,3.413,space,1.671,0,363,363,261,1,,,5fd7782dee03dc08d3f3f491,64377300a02b195fde449f25,04-12-2023_23h14.32.133,PRaM,2021.2.3,Win32,60.0240096,61b8f3437b89212fae0dfade
1,18.699,space,17.103,0,364,364,74,1,,,5fd7782dee03dc08d3f3f491,64377300a02b195fde449f25,04-12-2023_23h14.32.133,PRaM,2021.2.3,Win32,60.0240096,61b8f3437b89212fae0dfade
1,5.747,space,4.151,0,365,365,161,1,,,5fd7782dee03dc08d3f3f491,64377300a02b195fde449f25,04-12-2023_23h14.32.133,PRaM,2021.2.3,Win32,60.0240096,61b8f3437b89212fae0dfade
6,4.431,space,2.871,0,366,366,59,1,,,5fd7782dee03dc08d3f3f491,64377300a02b195fde449f25,04-12-2023_23h14.32.133,PRaM,2021.2.3,Win32,60.0240096,61b8f3437b89212fae0dfade
9,5.362,space,3.752,0,367,367,20,1,,,5fd7782dee03dc08d3f3f491,64377300a02b195fde449f25,04-12-2023_23h14.32.133,PRaM,2021.2.3,Win32,60.0240096,61b8f3437b89212fae0dfade
2,12.481,space,10.768,0,368,368,267,1,,,5fd7782dee03dc08d3f3f491,64377300a02b195fde449f25,04-12-2023_23h14.32.133,PRaM,2021.2.3,Win32,60.0240096,61b8f3437b89212fae0dfade
9,3.629,space,1.934,0,369,369,207,1,,,5fd7782dee03dc08d3f3f491,64377300a02b195fde449f25,04-12-2023_23h14.32.133,PRaM,2021.2.3,Win32,60.0240096,61b8f3437b89212fae0dfade
1,4.614,space,3.284,0,370,370,307,1,,,5fd7782dee03dc08d3f3f491,64377300a02b195fde449f25,04-12-2023_23h14.32.133,PRaM,2021.2.3,Win32,60.0240096,61b8f3437b89212fae0dfade
4,5.03,space,3.234,0,371,371,254,1,,,5fd7782dee03dc08d3f3f491,64377300a02b195fde449f25,04-12-2023_23h14.32.133,PRaM,2021.2.3,Win32,60.0240096,61b8f3437b89212fae0dfade
9,2.481,space,0.85,0,372,372,372,1,,,5fd7782dee03dc08d3f3f491,64377300a02b195fde449f25,04-12-2023_23h14.32.133,PRaM,2021.2.3,Win32,60.0240096,61b8f3437b89212fae0dfade
2,5.596,space,3.834,0,373,373,73,1,,,5fd7782dee03dc08d3f3f491,64377300a02b195fde449f25,04-12-2023_23h14.32.133,PRaM,2021.2.3,Win32,60.0240096,61b8f3437b89212fae0dfade
6,5.229,space,3.418,0,374,374,182,1,,,5fd7782dee03dc08d3f3f491,64377300a02b195fde449f25,04-12-2023_23h14.32.133,PRaM,2021.2.3,Win32,60.0240096,61b8f3437b89212fae0dfade
9,3.08,space,1.452,0,375,375,301,1,,,5fd7782dee03dc08d3f3f491,64377300a02b195fde449f25,04-12-2023_23h14.32.133,PRaM,2021.2.3,Win32,60.0240096,61b8f3437b89212fae0dfade
3,9.481,space,7.769,0,376,376,142,1,,,5fd7782dee03dc08d3f3f491,64377300a02b195fde449f25,04-12-2023_23h14.32.133,PRaM,2021.2.3,Win32,60.0240096,61b8f3437b89212fae0dfade
2,4.231,space,2.487,0,377,377,116,1,,,5fd7782dee03dc08d3f3f491,64377300a02b195fde449f25,04-12-2023_23h14.32.133,PRaM,2021.2.3,Win32,60.0240096,61b8f3437b89212fae0dfade
