Rating.response,Rating.rt,EndTrial.keys,EndTrial.rt,trials.thisRepN,trials.thisTrialN,trials.thisN,trials.thisIndex,trials.ran,Pos1,Pos2,participant,session,date,expName,psychopyVersion,OS,frameRate,study_id
4,8.6907,space,8.6337,0,0,0,314,1,,,602d2adcef81ce6b843da09b,61b90316822dab53a922e42e,2021-12-14_22h49.10.825,PRaM,2021.2.3,Win32,60.18295619,61b8f3437b89212fae0dfade
6,3.6677,space,2.5193,0,1,1,170,1,,,602d2adcef81ce6b843da09b,61b90316822dab53a922e42e,2021-12-14_22h49.10.825,PRaM,2021.2.3,Win32,60.18295619,61b8f3437b89212fae0dfade
2,2.5975,space,1.7232,0,2,2,219,1,,,602d2adcef81ce6b843da09b,61b90316822dab53a922e42e,2021-12-14_22h49.10.825,PRaM,2021.2.3,Win32,60.18295619,61b8f3437b89212fae0dfade
8,2.6406,space,1.456,0,3,3,19,1,,,602d2adcef81ce6b843da09b,61b90316822dab53a922e42e,2021-12-14_22h49.10.825,PRaM,2021.2.3,Win32,60.18295619,61b8f3437b89212fae0dfade
2,3.4295,space,2.284,0,4,4,5,1,,,602d2adcef81ce6b843da09b,61b90316822dab53a922e42e,2021-12-14_22h49.10.825,PRaM,2021.2.3,Win32,60.18295619,61b8f3437b89212fae0dfade
7,3.6339,space,2.3679,0,5,5,174,1,,,602d2adcef81ce6b843da09b,61b90316822dab53a922e42e,2021-12-14_22h49.10.825,PRaM,2021.2.3,Win32,60.18295619,61b8f3437b89212fae0dfade
7,5.2917,space,3.909,0,6,6,153,1,,,602d2adcef81ce6b843da09b,61b90316822dab53a922e42e,2021-12-14_22h49.10.825,PRaM,2021.2.3,Win32,60.18295619,61b8f3437b89212fae0dfade
1,2.628,space,1.5369,0,7,7,253,1,,,602d2adcef81ce6b843da09b,61b90316822dab53a922e42e,2021-12-14_22h49.10.825,PRaM,2021.2.3,Win32,60.18295619,61b8f3437b89212fae0dfade
5,2.9037,space,1.8171,0,8,8,31,1,,,602d2adcef81ce6b843da09b,61b90316822dab53a922e42e,2021-12-14_22h49.10.825,PRaM,2021.2.3,Win32,60.18295619,61b8f3437b89212fae0dfade
7,2.9801,space,1.8207,0,9,9,328,1,,,602d2adcef81ce6b843da09b,61b90316822dab53a922e42e,2021-12-14_22h49.10.825,PRaM,2021.2.3,Win32,60.18295619,61b8f3437b89212fae0dfade
5,4.3381,space,2.8338,0,10,10,99,1,,,602d2adcef81ce6b843da09b,61b90316822dab53a922e42e,2021-12-14_22h49.10.825,PRaM,2021.2.3,Win32,60.18295619,61b8f3437b89212fae0dfade
7,2.1995,space,1.0029,0,11,11,16,1,,,602d2adcef81ce6b843da09b,61b90316822dab53a922e42e,2021-12-14_22h49.10.825,PRaM,2021.2.3,Win32,60.18295619,61b8f3437b89212fae0dfade
3,4.5497,space,2.9889,0,12,12,129,1,,,602d2adcef81ce6b843da09b,61b90316822dab53a922e42e,2021-12-14_22h49.10.825,PRaM,2021.2.3,Win32,60.18295619,61b8f3437b89212fae0dfade
8,2.9319,space,1.8267,0,13,13,264,1,,,602d2adcef81ce6b843da09b,61b90316822dab53a922e42e,2021-12-14_22h49.10.825,PRaM,2021.2.3,Win32,60.18295619,61b8f3437b89212fae0dfade
1,4.0996,space,2.9507,0,14,14,266,1,,,602d2adcef81ce6b843da09b,61b90316822dab53a922e42e,2021-12-14_22h49.10.825,PRaM,2021.2.3,Win32,60.18295619,61b8f3437b89212fae0dfade
3,7.0547,space,6.4664,0,15,15,26,1,,,602d2adcef81ce6b843da09b,61b90316822dab53a922e42e,2021-12-14_22h49.10.825,PRaM,2021.2.3,Win32,60.18295619,61b8f3437b89212fae0dfade
2,3.8332,space,2.2738,0,16,16,55,1,,,602d2adcef81ce6b843da09b,61b90316822dab53a922e42e,2021-12-14_22h49.10.825,PRaM,2021.2.3,Win32,60.18295619,61b8f3437b89212fae0dfade
5,2.7487,space,1.4102,0,17,17,187,1,,,602d2adcef81ce6b843da09b,61b90316822dab53a922e42e,2021-12-14_22h49.10.825,PRaM,2021.2.3,Win32,60.18295619,61b8f3437b89212fae0dfade
7,3.9033,space,2.3615,0,18,18,151,1,,,602d2adcef81ce6b843da09b,61b90316822dab53a922e42e,2021-12-14_22h49.10.825,PRaM,2021.2.3,Win32,60.18295619,61b8f3437b89212fae0dfade
3,3.7167,space,2.1702,0,19,19,6,1,,,602d2adcef81ce6b843da09b,61b90316822dab53a922e42e,2021-12-14_22h49.10.825,PRaM,2021.2.3,Win32,60.18295619,61b8f3437b89212fae0dfade
6,2.8935,space,1.4353,0,20,20,90,1,,,602d2adcef81ce6b843da09b,61b90316822dab53a922e42e,2021-12-14_22h49.10.825,PRaM,2021.2.3,Win32,60.18295619,61b8f3437b89212fae0dfade
2,2.7389,space,1.2063,0,21,21,317,1,,,602d2adcef81ce6b843da09b,61b90316822dab53a922e42e,2021-12-14_22h49.10.825,PRaM,2021.2.3,Win32,60.18295619,61b8f3437b89212fae0dfade
6,4.7565,space,3.506,0,22,22,258,1,,,602d2adcef81ce6b843da09b,61b90316822dab53a922e42e,2021-12-14_22h49.10.825,PRaM,2021.2.3,Win32,60.18295619,61b8f3437b89212fae0dfade
6,2.8567,space,1.3574,0,23,23,331,1,,,602d2adcef81ce6b843da09b,61b90316822dab53a922e42e,2021-12-14_22h49.10.825,PRaM,2021.2.3,Win32,60.18295619,61b8f3437b89212fae0dfade
1,4.416,space,3.201,0,24,24,353,1,,,602d2adcef81ce6b843da09b,61b90316822dab53a922e42e,2021-12-14_22h49.10.825,PRaM,2021.2.3,Win32,60.18295619,61b8f3437b89212fae0dfade
1,5.6176,space,4.1155,0,25,25,109,1,,,602d2adcef81ce6b843da09b,61b90316822dab53a922e42e,2021-12-14_22h49.10.825,PRaM,2021.2.3,Win32,60.18295619,61b8f3437b89212fae0dfade
2,5.2983,space,4.0391,0,26,26,212,1,,,602d2adcef81ce6b843da09b,61b90316822dab53a922e42e,2021-12-14_22h49.10.825,PRaM,2021.2.3,Win32,60.18295619,61b8f3437b89212fae0dfade
1,3.9192,space,2.5813,0,27,27,284,1,,,602d2adcef81ce6b843da09b,61b90316822dab53a922e42e,2021-12-14_22h49.10.825,PRaM,2021.2.3,Win32,60.18295619,61b8f3437b89212fae0dfade
5,3.4529,space,1.8823,0,28,28,30,1,,,602d2adcef81ce6b843da09b,61b90316822dab53a922e42e,2021-12-14_22h49.10.825,PRaM,2021.2.3,Win32,60.18295619,61b8f3437b89212fae0dfade
7,2.608,space,1.1608,0,29,29,280,1,,,602d2adcef81ce6b843da09b,61b90316822dab53a922e42e,2021-12-14_22h49.10.825,PRaM,2021.2.3,Win32,60.18295619,61b8f3437b89212fae0dfade
6,5.636,space,4.7386,0,30,30,364,1,,,602d2adcef81ce6b843da09b,61b90316822dab53a922e42e,2021-12-14_22h49.10.825,PRaM,2021.2.3,Win32,60.18295619,61b8f3437b89212fae0dfade
5,4.6825,space,4.8064,0,31,31,375,1,,,602d2adcef81ce6b843da09b,61b90316822dab53a922e42e,2021-12-14_22h49.10.825,PRaM,2021.2.3,Win32,60.18295619,61b8f3437b89212fae0dfade
4,3.1888,space,1.8201,0,32,32,224,1,,,602d2adcef81ce6b843da09b,61b90316822dab53a922e42e,2021-12-14_22h49.10.825,PRaM,2021.2.3,Win32,60.18295619,61b8f3437b89212fae0dfade
8,4.9216,space,3.6833,0,33,33,273,1,,,602d2adcef81ce6b843da09b,61b90316822dab53a922e42e,2021-12-14_22h49.10.825,PRaM,2021.2.3,Win32,60.18295619,61b8f3437b89212fae0dfade
1,1.9557,space,0.5192,0,34,34,287,1,,,602d2adcef81ce6b843da09b,61b90316822dab53a922e42e,2021-12-14_22h49.10.825,PRaM,2021.2.3,Win32,60.18295619,61b8f3437b89212fae0dfade
2,3.0084,space,1.6668,0,35,35,269,1,,,602d2adcef81ce6b843da09b,61b90316822dab53a922e42e,2021-12-14_22h49.10.825,PRaM,2021.2.3,Win32,60.18295619,61b8f3437b89212fae0dfade
5,11.4211,space,9.8235,0,36,36,310,1,,,602d2adcef81ce6b843da09b,61b90316822dab53a922e42e,2021-12-14_22h49.10.825,PRaM,2021.2.3,Win32,60.18295619,61b8f3437b89212fae0dfade
8,6.1134,space,4.2484,0,37,37,225,1,,,602d2adcef81ce6b843da09b,61b90316822dab53a922e42e,2021-12-14_22h49.10.825,PRaM,2021.2.3,Win32,60.18295619,61b8f3437b89212fae0dfade
1,5.7887,space,4.5712,0,38,38,162,1,,,602d2adcef81ce6b843da09b,61b90316822dab53a922e42e,2021-12-14_22h49.10.825,PRaM,2021.2.3,Win32,60.18295619,61b8f3437b89212fae0dfade
3,2.3328,space,1.0196,0,39,39,157,1,,,602d2adcef81ce6b843da09b,61b90316822dab53a922e42e,2021-12-14_22h49.10.825,PRaM,2021.2.3,Win32,60.18295619,61b8f3437b89212fae0dfade
4,2.2891,space,0.8643,0,40,40,367,1,,,602d2adcef81ce6b843da09b,61b90316822dab53a922e42e,2021-12-14_22h49.10.825,PRaM,2021.2.3,Win32,60.18295619,61b8f3437b89212fae0dfade
2,3.4037,space,2.1006,0,41,41,113,1,,,602d2adcef81ce6b843da09b,61b90316822dab53a922e42e,2021-12-14_22h49.10.825,PRaM,2021.2.3,Win32,60.18295619,61b8f3437b89212fae0dfade
3,6.798,space,5.4553,0,42,42,32,1,,,602d2adcef81ce6b843da09b,61b90316822dab53a922e42e,2021-12-14_22h49.10.825,PRaM,2021.2.3,Win32,60.18295619,61b8f3437b89212fae0dfade
1,3.0069,space,1.518,0,43,43,214,1,,,602d2adcef81ce6b843da09b,61b90316822dab53a922e42e,2021-12-14_22h49.10.825,PRaM,2021.2.3,Win32,60.18295619,61b8f3437b89212fae0dfade
5,7.8092,space,6.3322,0,44,44,13,1,,,602d2adcef81ce6b843da09b,61b90316822dab53a922e42e,2021-12-14_22h49.10.825,PRaM,2021.2.3,Win32,60.18295619,61b8f3437b89212fae0dfade
3,3.2705,space,1.6777,0,45,45,144,1,,,602d2adcef81ce6b843da09b,61b90316822dab53a922e42e,2021-12-14_22h49.10.825,PRaM,2021.2.3,Win32,60.18295619,61b8f3437b89212fae0dfade
1,1.9548,space,0.7118,0,46,46,247,1,,,602d2adcef81ce6b843da09b,61b90316822dab53a922e42e,2021-12-14_22h49.10.825,PRaM,2021.2.3,Win32,60.18295619,61b8f3437b89212fae0dfade
3,3.1787,space,1.8344,0,47,47,306,1,,,602d2adcef81ce6b843da09b,61b90316822dab53a922e42e,2021-12-14_22h49.10.825,PRaM,2021.2.3,Win32,60.18295619,61b8f3437b89212fae0dfade
3,7.6916,space,6.1509,0,48,48,161,1,,,602d2adcef81ce6b843da09b,61b90316822dab53a922e42e,2021-12-14_22h49.10.825,PRaM,2021.2.3,Win32,60.18295619,61b8f3437b89212fae0dfade
2,2.6203,space,0.9685,0,49,49,290,1,,,602d2adcef81ce6b843da09b,61b90316822dab53a922e42e,2021-12-14_22h49.10.825,PRaM,2021.2.3,Win32,60.18295619,61b8f3437b89212fae0dfade
2,2.1119,space,1.0873,0,50,50,96,1,,,602d2adcef81ce6b843da09b,61b90316822dab53a922e42e,2021-12-14_22h49.10.825,PRaM,2021.2.3,Win32,60.18295619,61b8f3437b89212fae0dfade
1,2.8717,space,1.3167,0,51,51,28,1,,,602d2adcef81ce6b843da09b,61b90316822dab53a922e42e,2021-12-14_22h49.10.825,PRaM,2021.2.3,Win32,60.18295619,61b8f3437b89212fae0dfade
3,2.5425,space,0.9671,0,52,52,135,1,,,602d2adcef81ce6b843da09b,61b90316822dab53a922e42e,2021-12-14_22h49.10.825,PRaM,2021.2.3,Win32,60.18295619,61b8f3437b89212fae0dfade
1,5.8811,space,3.8732,0,53,53,108,1,,,602d2adcef81ce6b843da09b,61b90316822dab53a922e42e,2021-12-14_22h49.10.825,PRaM,2021.2.3,Win32,60.18295619,61b8f3437b89212fae0dfade
1,1.499,space,7.7354,0,54,54,83,1,,,602d2adcef81ce6b843da09b,61b90316822dab53a922e42e,2021-12-14_22h49.10.825,PRaM,2021.2.3,Win32,60.18295619,61b8f3437b89212fae0dfade
1,4.5353,space,3.0252,0,55,55,315,1,,,602d2adcef81ce6b843da09b,61b90316822dab53a922e42e,2021-12-14_22h49.10.825,PRaM,2021.2.3,Win32,60.18295619,61b8f3437b89212fae0dfade
7,7.9562,space,6.4733,0,56,56,143,1,,,602d2adcef81ce6b843da09b,61b90316822dab53a922e42e,2021-12-14_22h49.10.825,PRaM,2021.2.3,Win32,60.18295619,61b8f3437b89212fae0dfade
1,3.5863,space,2.1413,0,57,57,318,1,,,602d2adcef81ce6b843da09b,61b90316822dab53a922e42e,2021-12-14_22h49.10.825,PRaM,2021.2.3,Win32,60.18295619,61b8f3437b89212fae0dfade
2,3.4362,space,1.9688,0,58,58,169,1,,,602d2adcef81ce6b843da09b,61b90316822dab53a922e42e,2021-12-14_22h49.10.825,PRaM,2021.2.3,Win32,60.18295619,61b8f3437b89212fae0dfade
9,2.8919,space,1.7485,0,59,59,192,1,,,602d2adcef81ce6b843da09b,61b90316822dab53a922e42e,2021-12-14_22h49.10.825,PRaM,2021.2.3,Win32,60.18295619,61b8f3437b89212fae0dfade
6,3.0051,space,1.7296,0,60,60,25,1,,,602d2adcef81ce6b843da09b,61b90316822dab53a922e42e,2021-12-14_22h49.10.825,PRaM,2021.2.3,Win32,60.18295619,61b8f3437b89212fae0dfade
2,3.333,space,2.0593,0,61,61,88,1,,,602d2adcef81ce6b843da09b,61b90316822dab53a922e42e,2021-12-14_22h49.10.825,PRaM,2021.2.3,Win32,60.18295619,61b8f3437b89212fae0dfade
8,2.345,space,0.9168,0,62,62,59,1,,,602d2adcef81ce6b843da09b,61b90316822dab53a922e42e,2021-12-14_22h49.10.825,PRaM,2021.2.3,Win32,60.18295619,61b8f3437b89212fae0dfade
8,3.6383,space,2.2029,0,63,63,226,1,,,602d2adcef81ce6b843da09b,61b90316822dab53a922e42e,2021-12-14_22h49.10.825,PRaM,2021.2.3,Win32,60.18295619,61b8f3437b89212fae0dfade
5,3.6384,space,2.2205,0,64,64,255,1,,,602d2adcef81ce6b843da09b,61b90316822dab53a922e42e,2021-12-14_22h49.10.825,PRaM,2021.2.3,Win32,60.18295619,61b8f3437b89212fae0dfade
1,3.2398,space,1.7507,0,65,65,292,1,,,602d2adcef81ce6b843da09b,61b90316822dab53a922e42e,2021-12-14_22h49.10.825,PRaM,2021.2.3,Win32,60.18295619,61b8f3437b89212fae0dfade
2,2.805,space,1.8675,0,66,66,111,1,,,602d2adcef81ce6b843da09b,61b90316822dab53a922e42e,2021-12-14_22h49.10.825,PRaM,2021.2.3,Win32,60.18295619,61b8f3437b89212fae0dfade
2,1.6889,space,0.5692,0,67,67,15,1,,,602d2adcef81ce6b843da09b,61b90316822dab53a922e42e,2021-12-14_22h49.10.825,PRaM,2021.2.3,Win32,60.18295619,61b8f3437b89212fae0dfade
7,3.255,space,1.8767,0,68,68,44,1,,,602d2adcef81ce6b843da09b,61b90316822dab53a922e42e,2021-12-14_22h49.10.825,PRaM,2021.2.3,Win32,60.18295619,61b8f3437b89212fae0dfade
7,3.5721,space,2.0665,0,69,69,7,1,,,602d2adcef81ce6b843da09b,61b90316822dab53a922e42e,2021-12-14_22h49.10.825,PRaM,2021.2.3,Win32,60.18295619,61b8f3437b89212fae0dfade
2,1.9497,space,0.4665,0,70,70,133,1,,,602d2adcef81ce6b843da09b,61b90316822dab53a922e42e,2021-12-14_22h49.10.825,PRaM,2021.2.3,Win32,60.18295619,61b8f3437b89212fae0dfade
1,11.909,space,10.244,0,71,71,312,1,,,602d2adcef81ce6b843da09b,61b90316822dab53a922e42e,2021-12-14_22h49.10.825,PRaM,2021.2.3,Win32,60.18295619,61b8f3437b89212fae0dfade
2,3.9477,space,2.2693,0,72,72,242,1,,,602d2adcef81ce6b843da09b,61b90316822dab53a922e42e,2021-12-14_22h49.10.825,PRaM,2021.2.3,Win32,60.18295619,61b8f3437b89212fae0dfade
9,3.8155,space,2.1203,0,73,73,207,1,,,602d2adcef81ce6b843da09b,61b90316822dab53a922e42e,2021-12-14_22h49.10.825,PRaM,2021.2.3,Win32,60.18295619,61b8f3437b89212fae0dfade
2,7.321,space,5.7443,0,74,74,298,1,,,602d2adcef81ce6b843da09b,61b90316822dab53a922e42e,2021-12-14_22h49.10.825,PRaM,2021.2.3,Win32,60.18295619,61b8f3437b89212fae0dfade
2,2.9549,space,1.4651,0,75,75,89,1,,,602d2adcef81ce6b843da09b,61b90316822dab53a922e42e,2021-12-14_22h49.10.825,PRaM,2021.2.3,Win32,60.18295619,61b8f3437b89212fae0dfade
3,2.6193,space,0.8853,0,76,76,288,1,,,602d2adcef81ce6b843da09b,61b90316822dab53a922e42e,2021-12-14_22h49.10.825,PRaM,2021.2.3,Win32,60.18295619,61b8f3437b89212fae0dfade
2,3.3374,space,1.6174,0,77,77,351,1,,,602d2adcef81ce6b843da09b,61b90316822dab53a922e42e,2021-12-14_22h49.10.825,PRaM,2021.2.3,Win32,60.18295619,61b8f3437b89212fae0dfade
2,3.1047,space,1.3858,0,78,78,130,1,,,602d2adcef81ce6b843da09b,61b90316822dab53a922e42e,2021-12-14_22h49.10.825,PRaM,2021.2.3,Win32,60.18295619,61b8f3437b89212fae0dfade
7,2.077,space,0.424,0,79,79,127,1,,,602d2adcef81ce6b843da09b,61b90316822dab53a922e42e,2021-12-14_22h49.10.825,PRaM,2021.2.3,Win32,60.18295619,61b8f3437b89212fae0dfade
1,3.275,space,1.5829,0,80,80,91,1,,,602d2adcef81ce6b843da09b,61b90316822dab53a922e42e,2021-12-14_22h49.10.825,PRaM,2021.2.3,Win32,60.18295619,61b8f3437b89212fae0dfade
5,2.0224,space,0.2872,0,81,81,272,1,,,602d2adcef81ce6b843da09b,61b90316822dab53a922e42e,2021-12-14_22h49.10.825,PRaM,2021.2.3,Win32,60.18295619,61b8f3437b89212fae0dfade
1,2.5851,space,1.0228,0,82,82,330,1,,,602d2adcef81ce6b843da09b,61b90316822dab53a922e42e,2021-12-14_22h49.10.825,PRaM,2021.2.3,Win32,60.18295619,61b8f3437b89212fae0dfade
2,3.2383,space,1.5331,0,83,83,309,1,,,602d2adcef81ce6b843da09b,61b90316822dab53a922e42e,2021-12-14_22h49.10.825,PRaM,2021.2.3,Win32,60.18295619,61b8f3437b89212fae0dfade
2,2.1051,space,4.6431,0,84,84,35,1,,,602d2adcef81ce6b843da09b,61b90316822dab53a922e42e,2021-12-14_22h49.10.825,PRaM,2021.2.3,Win32,60.18295619,61b8f3437b89212fae0dfade
8,1.8928,space,0.1072,0,85,85,120,1,,,602d2adcef81ce6b843da09b,61b90316822dab53a922e42e,2021-12-14_22h49.10.825,PRaM,2021.2.3,Win32,60.18295619,61b8f3437b89212fae0dfade
5,3.9213,space,2.1947,0,86,86,358,1,,,602d2adcef81ce6b843da09b,61b90316822dab53a922e42e,2021-12-14_22h49.10.825,PRaM,2021.2.3,Win32,60.18295619,61b8f3437b89212fae0dfade
3,2.8045,space,0.9994,0,87,87,357,1,,,602d2adcef81ce6b843da09b,61b90316822dab53a922e42e,2021-12-14_22h49.10.825,PRaM,2021.2.3,Win32,60.18295619,61b8f3437b89212fae0dfade
2,4.9309,space,3.2184,0,88,88,98,1,,,602d2adcef81ce6b843da09b,61b90316822dab53a922e42e,2021-12-14_22h49.10.825,PRaM,2021.2.3,Win32,60.18295619,61b8f3437b89212fae0dfade
2,1.6715,space,1.8689,0,89,89,49,1,,,602d2adcef81ce6b843da09b,61b90316822dab53a922e42e,2021-12-14_22h49.10.825,PRaM,2021.2.3,Win32,60.18295619,61b8f3437b89212fae0dfade
6,6.4736,space,4.6864,0,90,90,172,1,,,602d2adcef81ce6b843da09b,61b90316822dab53a922e42e,2021-12-14_22h49.10.825,PRaM,2021.2.3,Win32,60.18295619,61b8f3437b89212fae0dfade
2,2.4055,space,0.6535,0,91,91,182,1,,,602d2adcef81ce6b843da09b,61b90316822dab53a922e42e,2021-12-14_22h49.10.825,PRaM,2021.2.3,Win32,60.18295619,61b8f3437b89212fae0dfade
4,2.5754,space,0.8548,0,92,92,72,1,,,602d2adcef81ce6b843da09b,61b90316822dab53a922e42e,2021-12-14_22h49.10.825,PRaM,2021.2.3,Win32,60.18295619,61b8f3437b89212fae0dfade
1,2.3401,space,0.6166,0,93,93,203,1,,,602d2adcef81ce6b843da09b,61b90316822dab53a922e42e,2021-12-14_22h49.10.825,PRaM,2021.2.3,Win32,60.18295619,61b8f3437b89212fae0dfade
8,2.472,space,0.7956,0,94,94,238,1,,,602d2adcef81ce6b843da09b,61b90316822dab53a922e42e,2021-12-14_22h49.10.825,PRaM,2021.2.3,Win32,60.18295619,61b8f3437b89212fae0dfade
4,7.2494,space,5.3878,0,95,95,254,1,,,602d2adcef81ce6b843da09b,61b90316822dab53a922e42e,2021-12-14_22h49.10.825,PRaM,2021.2.3,Win32,60.18295619,61b8f3437b89212fae0dfade
4,5.2928,space,3.573,0,96,96,22,1,,,602d2adcef81ce6b843da09b,61b90316822dab53a922e42e,2021-12-14_22h49.10.825,PRaM,2021.2.3,Win32,60.18295619,61b8f3437b89212fae0dfade
3,2.5055,space,0.799,0,97,97,230,1,,,602d2adcef81ce6b843da09b,61b90316822dab53a922e42e,2021-12-14_22h49.10.825,PRaM,2021.2.3,Win32,60.18295619,61b8f3437b89212fae0dfade
6,2.4401,space,0.6869,0,98,98,105,1,,,602d2adcef81ce6b843da09b,61b90316822dab53a922e42e,2021-12-14_22h49.10.825,PRaM,2021.2.3,Win32,60.18295619,61b8f3437b89212fae0dfade
7,2.3885,space,0.4922,0,99,99,304,1,,,602d2adcef81ce6b843da09b,61b90316822dab53a922e42e,2021-12-14_22h49.10.825,PRaM,2021.2.3,Win32,60.18295619,61b8f3437b89212fae0dfade
3,2.0553,space,0.396,0,100,100,70,1,,,602d2adcef81ce6b843da09b,61b90316822dab53a922e42e,2021-12-14_22h49.10.825,PRaM,2021.2.3,Win32,60.18295619,61b8f3437b89212fae0dfade
4,2.3753,space,0.8025,0,101,101,311,1,,,602d2adcef81ce6b843da09b,61b90316822dab53a922e42e,2021-12-14_22h49.10.825,PRaM,2021.2.3,Win32,60.18295619,61b8f3437b89212fae0dfade
1,7.2715,space,5.5346,0,102,102,295,1,,,602d2adcef81ce6b843da09b,61b90316822dab53a922e42e,2021-12-14_22h49.10.825,PRaM,2021.2.3,Win32,60.18295619,61b8f3437b89212fae0dfade
7,2.7726,space,1.5564,0,103,103,208,1,,,602d2adcef81ce6b843da09b,61b90316822dab53a922e42e,2021-12-14_22h49.10.825,PRaM,2021.2.3,Win32,60.18295619,61b8f3437b89212fae0dfade
5,2.1043,space,0.2376,0,104,104,167,1,,,602d2adcef81ce6b843da09b,61b90316822dab53a922e42e,2021-12-14_22h49.10.825,PRaM,2021.2.3,Win32,60.18295619,61b8f3437b89212fae0dfade
3,4.3051,space,5.7555,0,105,105,217,1,,,602d2adcef81ce6b843da09b,61b90316822dab53a922e42e,2021-12-14_22h49.10.825,PRaM,2021.2.3,Win32,60.18295619,61b8f3437b89212fae0dfade
8,2.4288,space,0.7863,0,106,106,197,1,,,602d2adcef81ce6b843da09b,61b90316822dab53a922e42e,2021-12-14_22h49.10.825,PRaM,2021.2.3,Win32,60.18295619,61b8f3437b89212fae0dfade
2,3.4099,space,1.6913,0,107,107,122,1,,,602d2adcef81ce6b843da09b,61b90316822dab53a922e42e,2021-12-14_22h49.10.825,PRaM,2021.2.3,Win32,60.18295619,61b8f3437b89212fae0dfade
8,2.0886,space,0.4236,0,108,108,159,1,,,602d2adcef81ce6b843da09b,61b90316822dab53a922e42e,2021-12-14_22h49.10.825,PRaM,2021.2.3,Win32,60.18295619,61b8f3437b89212fae0dfade
6,3.1305,space,1.388,0,109,109,40,1,,,602d2adcef81ce6b843da09b,61b90316822dab53a922e42e,2021-12-14_22h49.10.825,PRaM,2021.2.3,Win32,60.18295619,61b8f3437b89212fae0dfade
1,3.2588,space,1.6378,0,110,110,2,1,,,602d2adcef81ce6b843da09b,61b90316822dab53a922e42e,2021-12-14_22h49.10.825,PRaM,2021.2.3,Win32,60.18295619,61b8f3437b89212fae0dfade
1,8.402,space,10.0052,0,111,111,268,1,,,602d2adcef81ce6b843da09b,61b90316822dab53a922e42e,2021-12-14_22h49.10.825,PRaM,2021.2.3,Win32,60.18295619,61b8f3437b89212fae0dfade
8,3.0355,space,1.2223,0,112,112,84,1,,,602d2adcef81ce6b843da09b,61b90316822dab53a922e42e,2021-12-14_22h49.10.825,PRaM,2021.2.3,Win32,60.18295619,61b8f3437b89212fae0dfade
9,2.059,space,0.4102,0,113,113,276,1,,,602d2adcef81ce6b843da09b,61b90316822dab53a922e42e,2021-12-14_22h49.10.825,PRaM,2021.2.3,Win32,60.18295619,61b8f3437b89212fae0dfade
6,3.8008,space,1.9213,0,114,114,270,1,,,602d2adcef81ce6b843da09b,61b90316822dab53a922e42e,2021-12-14_22h49.10.825,PRaM,2021.2.3,Win32,60.18295619,61b8f3437b89212fae0dfade
4,10.1046,space,8.2284,0,115,115,183,1,,,602d2adcef81ce6b843da09b,61b90316822dab53a922e42e,2021-12-14_22h49.10.825,PRaM,2021.2.3,Win32,60.18295619,61b8f3437b89212fae0dfade
6,2.322,space,0.4854,0,116,116,126,1,,,602d2adcef81ce6b843da09b,61b90316822dab53a922e42e,2021-12-14_22h49.10.825,PRaM,2021.2.3,Win32,60.18295619,61b8f3437b89212fae0dfade
5,2.3377,space,0.6606,0,117,117,155,1,,,602d2adcef81ce6b843da09b,61b90316822dab53a922e42e,2021-12-14_22h49.10.825,PRaM,2021.2.3,Win32,60.18295619,61b8f3437b89212fae0dfade
2,8.1904,space,6.4861,0,118,118,237,1,,,602d2adcef81ce6b843da09b,61b90316822dab53a922e42e,2021-12-14_22h49.10.825,PRaM,2021.2.3,Win32,60.18295619,61b8f3437b89212fae0dfade
3,6.7018,space,4.9197,0,119,119,95,1,,,602d2adcef81ce6b843da09b,61b90316822dab53a922e42e,2021-12-14_22h49.10.825,PRaM,2021.2.3,Win32,60.18295619,61b8f3437b89212fae0dfade
6,3.8043,space,1.9768,0,120,120,267,1,,,602d2adcef81ce6b843da09b,61b90316822dab53a922e42e,2021-12-14_22h49.10.825,PRaM,2021.2.3,Win32,60.18295619,61b8f3437b89212fae0dfade
1,2.8573,space,1.0771,0,121,121,359,1,,,602d2adcef81ce6b843da09b,61b90316822dab53a922e42e,2021-12-14_22h49.10.825,PRaM,2021.2.3,Win32,60.18295619,61b8f3437b89212fae0dfade
3,3.2573,space,1.4021,0,122,122,205,1,,,602d2adcef81ce6b843da09b,61b90316822dab53a922e42e,2021-12-14_22h49.10.825,PRaM,2021.2.3,Win32,60.18295619,61b8f3437b89212fae0dfade
1,3.2412,space,1.4187,0,123,123,41,1,,,602d2adcef81ce6b843da09b,61b90316822dab53a922e42e,2021-12-14_22h49.10.825,PRaM,2021.2.3,Win32,60.18295619,61b8f3437b89212fae0dfade
8,4.2105,space,2.4214,0,124,124,307,1,,,602d2adcef81ce6b843da09b,61b90316822dab53a922e42e,2021-12-14_22h49.10.825,PRaM,2021.2.3,Win32,60.18295619,61b8f3437b89212fae0dfade
5,2.2489,space,0.4415,0,125,125,377,1,,,602d2adcef81ce6b843da09b,61b90316822dab53a922e42e,2021-12-14_22h49.10.825,PRaM,2021.2.3,Win32,60.18295619,61b8f3437b89212fae0dfade
7,2.0877,space,0.2715,0,126,126,43,1,,,602d2adcef81ce6b843da09b,61b90316822dab53a922e42e,2021-12-14_22h49.10.825,PRaM,2021.2.3,Win32,60.18295619,61b8f3437b89212fae0dfade
4,4.7985,space,2.9036,0,127,127,282,1,,,602d2adcef81ce6b843da09b,61b90316822dab53a922e42e,2021-12-14_22h49.10.825,PRaM,2021.2.3,Win32,60.18295619,61b8f3437b89212fae0dfade
1,3.6001,space,1.851,0,128,128,107,1,,,602d2adcef81ce6b843da09b,61b90316822dab53a922e42e,2021-12-14_22h49.10.825,PRaM,2021.2.3,Win32,60.18295619,61b8f3437b89212fae0dfade
4,8.286,space,6.3759,0,129,129,260,1,,,602d2adcef81ce6b843da09b,61b90316822dab53a922e42e,2021-12-14_22h49.10.825,PRaM,2021.2.3,Win32,60.18295619,61b8f3437b89212fae0dfade
7,2.2873,space,0.4392,0,130,130,333,1,,,602d2adcef81ce6b843da09b,61b90316822dab53a922e42e,2021-12-14_22h49.10.825,PRaM,2021.2.3,Win32,60.18295619,61b8f3437b89212fae0dfade
8,1.6959,space,1.4165,0,131,131,334,1,,,602d2adcef81ce6b843da09b,61b90316822dab53a922e42e,2021-12-14_22h49.10.825,PRaM,2021.2.3,Win32,60.18295619,61b8f3437b89212fae0dfade
2,5.5325,space,3.6907,0,132,132,252,1,,,602d2adcef81ce6b843da09b,61b90316822dab53a922e42e,2021-12-14_22h49.10.825,PRaM,2021.2.3,Win32,60.18295619,61b8f3437b89212fae0dfade
2,3.233,space,1.533,0,133,133,24,1,,,602d2adcef81ce6b843da09b,61b90316822dab53a922e42e,2021-12-14_22h49.10.825,PRaM,2021.2.3,Win32,60.18295619,61b8f3437b89212fae0dfade
1,2.5395,space,0.7442,0,134,134,283,1,,,602d2adcef81ce6b843da09b,61b90316822dab53a922e42e,2021-12-14_22h49.10.825,PRaM,2021.2.3,Win32,60.18295619,61b8f3437b89212fae0dfade
7,2.9035,space,1.1518,0,135,135,85,1,,,602d2adcef81ce6b843da09b,61b90316822dab53a922e42e,2021-12-14_22h49.10.825,PRaM,2021.2.3,Win32,60.18295619,61b8f3437b89212fae0dfade
8,1.6128,space,0.9104,0,136,136,17,1,,,602d2adcef81ce6b843da09b,61b90316822dab53a922e42e,2021-12-14_22h49.10.825,PRaM,2021.2.3,Win32,60.18295619,61b8f3437b89212fae0dfade
2,2.1373,space,0.3676,0,137,137,245,1,,,602d2adcef81ce6b843da09b,61b90316822dab53a922e42e,2021-12-14_22h49.10.825,PRaM,2021.2.3,Win32,60.18295619,61b8f3437b89212fae0dfade
6,2.2402,space,0.6085,0,138,138,335,1,,,602d2adcef81ce6b843da09b,61b90316822dab53a922e42e,2021-12-14_22h49.10.825,PRaM,2021.2.3,Win32,60.18295619,61b8f3437b89212fae0dfade
2,2.4715,space,0.7744,0,139,139,176,1,,,602d2adcef81ce6b843da09b,61b90316822dab53a922e42e,2021-12-14_22h49.10.825,PRaM,2021.2.3,Win32,60.18295619,61b8f3437b89212fae0dfade
8,2.4064,space,0.5675,0,140,140,285,1,,,602d2adcef81ce6b843da09b,61b90316822dab53a922e42e,2021-12-14_22h49.10.825,PRaM,2021.2.3,Win32,60.18295619,61b8f3437b89212fae0dfade
5,1.6232,space,1.1913,0,141,141,286,1,,,602d2adcef81ce6b843da09b,61b90316822dab53a922e42e,2021-12-14_22h49.10.825,PRaM,2021.2.3,Win32,60.18295619,61b8f3437b89212fae0dfade
2,1.9209,space,0.2169,0,142,142,97,1,,,602d2adcef81ce6b843da09b,61b90316822dab53a922e42e,2021-12-14_22h49.10.825,PRaM,2021.2.3,Win32,60.18295619,61b8f3437b89212fae0dfade
6,3.0555,space,1.4265,0,143,143,71,1,,,602d2adcef81ce6b843da09b,61b90316822dab53a922e42e,2021-12-14_22h49.10.825,PRaM,2021.2.3,Win32,60.18295619,61b8f3437b89212fae0dfade
2,3.955,space,2.1874,0,144,144,223,1,,,602d2adcef81ce6b843da09b,61b90316822dab53a922e42e,2021-12-14_22h49.10.825,PRaM,2021.2.3,Win32,60.18295619,61b8f3437b89212fae0dfade
8,3.6745,space,1.9008,0,145,145,112,1,,,602d2adcef81ce6b843da09b,61b90316822dab53a922e42e,2021-12-14_22h49.10.825,PRaM,2021.2.3,Win32,60.18295619,61b8f3437b89212fae0dfade
8,2.1734,space,0.3015,0,146,146,320,1,,,602d2adcef81ce6b843da09b,61b90316822dab53a922e42e,2021-12-14_22h49.10.825,PRaM,2021.2.3,Win32,60.18295619,61b8f3437b89212fae0dfade
2,2.5709,space,0.9184,0,147,147,234,1,,,602d2adcef81ce6b843da09b,61b90316822dab53a922e42e,2021-12-14_22h49.10.825,PRaM,2021.2.3,Win32,60.18295619,61b8f3437b89212fae0dfade
6,3.7464,space,2.0172,0,148,148,48,1,,,602d2adcef81ce6b843da09b,61b90316822dab53a922e42e,2021-12-14_22h49.10.825,PRaM,2021.2.3,Win32,60.18295619,61b8f3437b89212fae0dfade
5,3.5534,space,1.6913,0,149,149,305,1,,,602d2adcef81ce6b843da09b,61b90316822dab53a922e42e,2021-12-14_22h49.10.825,PRaM,2021.2.3,Win32,60.18295619,61b8f3437b89212fae0dfade
7,5.3679,space,3.8453,0,150,150,173,1,,,602d2adcef81ce6b843da09b,61b90316822dab53a922e42e,2021-12-14_22h49.10.825,PRaM,2021.2.3,Win32,60.18295619,61b8f3437b89212fae0dfade
3,3.3802,space,1.6182,0,151,151,256,1,,,602d2adcef81ce6b843da09b,61b90316822dab53a922e42e,2021-12-14_22h49.10.825,PRaM,2021.2.3,Win32,60.18295619,61b8f3437b89212fae0dfade
3,2.0816,space,0.5269,0,152,152,248,1,,,602d2adcef81ce6b843da09b,61b90316822dab53a922e42e,2021-12-14_22h49.10.825,PRaM,2021.2.3,Win32,60.18295619,61b8f3437b89212fae0dfade
4,6.5024,space,4.6516,0,153,153,138,1,,,602d2adcef81ce6b843da09b,61b90316822dab53a922e42e,2021-12-14_22h49.10.825,PRaM,2021.2.3,Win32,60.18295619,61b8f3437b89212fae0dfade
3,2.7924,space,0.9677,0,154,154,216,1,,,602d2adcef81ce6b843da09b,61b90316822dab53a922e42e,2021-12-14_22h49.10.825,PRaM,2021.2.3,Win32,60.18295619,61b8f3437b89212fae0dfade
8,3.0198,space,1.1926,0,155,155,62,1,,,602d2adcef81ce6b843da09b,61b90316822dab53a922e42e,2021-12-14_22h49.10.825,PRaM,2021.2.3,Win32,60.18295619,61b8f3437b89212fae0dfade
5,2.0709,space,0.3422,0,156,156,52,1,,,602d2adcef81ce6b843da09b,61b90316822dab53a922e42e,2021-12-14_22h49.10.825,PRaM,2021.2.3,Win32,60.18295619,61b8f3437b89212fae0dfade
2,5.6929,space,3.9544,0,157,157,81,1,,,602d2adcef81ce6b843da09b,61b90316822dab53a922e42e,2021-12-14_22h49.10.825,PRaM,2021.2.3,Win32,60.18295619,61b8f3437b89212fae0dfade
7,2.8571,space,1.061,0,158,158,244,1,,,602d2adcef81ce6b843da09b,61b90316822dab53a922e42e,2021-12-14_22h49.10.825,PRaM,2021.2.3,Win32,60.18295619,61b8f3437b89212fae0dfade
5,1.954,space,0.0759,0,159,159,371,1,,,602d2adcef81ce6b843da09b,61b90316822dab53a922e42e,2021-12-14_22h49.10.825,PRaM,2021.2.3,Win32,60.18295619,61b8f3437b89212fae0dfade
2,5.0899,space,5.5164,0,160,160,82,1,,,602d2adcef81ce6b843da09b,61b90316822dab53a922e42e,2021-12-14_22h49.10.825,PRaM,2021.2.3,Win32,60.18295619,61b8f3437b89212fae0dfade
5,2.6816,space,1.0289,0,161,161,376,1,,,602d2adcef81ce6b843da09b,61b90316822dab53a922e42e,2021-12-14_22h49.10.825,PRaM,2021.2.3,Win32,60.18295619,61b8f3437b89212fae0dfade
4,3.1147,space,1.3498,0,162,162,80,1,,,602d2adcef81ce6b843da09b,61b90316822dab53a922e42e,2021-12-14_22h49.10.825,PRaM,2021.2.3,Win32,60.18295619,61b8f3437b89212fae0dfade
8,6.255,space,4.5527,0,163,163,3,1,,,602d2adcef81ce6b843da09b,61b90316822dab53a922e42e,2021-12-14_22h49.10.825,PRaM,2021.2.3,Win32,60.18295619,61b8f3437b89212fae0dfade
9,5.3196,space,3.8187,0,164,164,319,1,,,602d2adcef81ce6b843da09b,61b90316822dab53a922e42e,2021-12-14_22h49.10.825,PRaM,2021.2.3,Win32,60.18295619,61b8f3437b89212fae0dfade
1,3.984,space,2.2236,0,165,165,39,1,,,602d2adcef81ce6b843da09b,61b90316822dab53a922e42e,2021-12-14_22h49.10.825,PRaM,2021.2.3,Win32,60.18295619,61b8f3437b89212fae0dfade
4,2.8368,space,1.1783,0,166,166,340,1,,,602d2adcef81ce6b843da09b,61b90316822dab53a922e42e,2021-12-14_22h49.10.825,PRaM,2021.2.3,Win32,60.18295619,61b8f3437b89212fae0dfade
7,2.1613,space,0.4509,0,167,167,158,1,,,602d2adcef81ce6b843da09b,61b90316822dab53a922e42e,2021-12-14_22h49.10.825,PRaM,2021.2.3,Win32,60.18295619,61b8f3437b89212fae0dfade
9,3.4775,space,3.1343,0,168,168,166,1,,,602d2adcef81ce6b843da09b,61b90316822dab53a922e42e,2021-12-14_22h49.10.825,PRaM,2021.2.3,Win32,60.18295619,61b8f3437b89212fae0dfade
7,3.8354,space,2.0602,0,169,169,191,1,,,602d2adcef81ce6b843da09b,61b90316822dab53a922e42e,2021-12-14_22h49.10.825,PRaM,2021.2.3,Win32,60.18295619,61b8f3437b89212fae0dfade
5,1.7574,space,0.0679,0,170,170,356,1,,,602d2adcef81ce6b843da09b,61b90316822dab53a922e42e,2021-12-14_22h49.10.825,PRaM,2021.2.3,Win32,60.18295619,61b8f3437b89212fae0dfade
5,1.873,space,0.1843,0,171,171,299,1,,,602d2adcef81ce6b843da09b,61b90316822dab53a922e42e,2021-12-14_22h49.10.825,PRaM,2021.2.3,Win32,60.18295619,61b8f3437b89212fae0dfade
8,2.6877,space,1.0165,0,172,172,134,1,,,602d2adcef81ce6b843da09b,61b90316822dab53a922e42e,2021-12-14_22h49.10.825,PRaM,2021.2.3,Win32,60.18295619,61b8f3437b89212fae0dfade
4,2.9701,space,1.1606,0,173,173,361,1,,,602d2adcef81ce6b843da09b,61b90316822dab53a922e42e,2021-12-14_22h49.10.825,PRaM,2021.2.3,Win32,60.18295619,61b8f3437b89212fae0dfade
8,2.7049,space,1.1557,0,174,174,137,1,,,602d2adcef81ce6b843da09b,61b90316822dab53a922e42e,2021-12-14_22h49.10.825,PRaM,2021.2.3,Win32,60.18295619,61b8f3437b89212fae0dfade
1,2.635,space,1.1674,0,175,175,251,1,,,602d2adcef81ce6b843da09b,61b90316822dab53a922e42e,2021-12-14_22h49.10.825,PRaM,2021.2.3,Win32,60.18295619,61b8f3437b89212fae0dfade
7,2.8097,space,0.9726,0,176,176,243,1,,,602d2adcef81ce6b843da09b,61b90316822dab53a922e42e,2021-12-14_22h49.10.825,PRaM,2021.2.3,Win32,60.18295619,61b8f3437b89212fae0dfade
2,3.9785,space,2.2948,0,177,177,54,1,,,602d2adcef81ce6b843da09b,61b90316822dab53a922e42e,2021-12-14_22h49.10.825,PRaM,2021.2.3,Win32,60.18295619,61b8f3437b89212fae0dfade
8,2.0398,space,0.2173,0,178,178,152,1,,,602d2adcef81ce6b843da09b,61b90316822dab53a922e42e,2021-12-14_22h49.10.825,PRaM,2021.2.3,Win32,60.18295619,61b8f3437b89212fae0dfade
4,3.8066,space,2.1435,0,179,179,140,1,,,602d2adcef81ce6b843da09b,61b90316822dab53a922e42e,2021-12-14_22h49.10.825,PRaM,2021.2.3,Win32,60.18295619,61b8f3437b89212fae0dfade
2,2.2611,space,0.824,0,180,180,64,1,,,602d2adcef81ce6b843da09b,61b90316822dab53a922e42e,2021-12-14_22h49.10.825,PRaM,2021.2.3,Win32,60.18295619,61b8f3437b89212fae0dfade
9,3.2312,space,1.8917,0,181,181,302,1,,,602d2adcef81ce6b843da09b,61b90316822dab53a922e42e,2021-12-14_22h49.10.825,PRaM,2021.2.3,Win32,60.18295619,61b8f3437b89212fae0dfade
2,5.4133,space,3.5578,0,182,182,27,1,,,602d2adcef81ce6b843da09b,61b90316822dab53a922e42e,2021-12-14_22h49.10.825,PRaM,2021.2.3,Win32,60.18295619,61b8f3437b89212fae0dfade
1,3.079,space,1.3424,0,183,183,227,1,,,602d2adcef81ce6b843da09b,61b90316822dab53a922e42e,2021-12-14_22h49.10.825,PRaM,2021.2.3,Win32,60.18295619,61b8f3437b89212fae0dfade
2,3.7879,space,2.0589,0,184,184,74,1,,,602d2adcef81ce6b843da09b,61b90316822dab53a922e42e,2021-12-14_22h49.10.825,PRaM,2021.2.3,Win32,60.18295619,61b8f3437b89212fae0dfade
6,2.2209,space,0.3346,0,185,185,194,1,,,602d2adcef81ce6b843da09b,61b90316822dab53a922e42e,2021-12-14_22h49.10.825,PRaM,2021.2.3,Win32,60.18295619,61b8f3437b89212fae0dfade
1,2.5753,space,0.9063,0,186,186,345,1,,,602d2adcef81ce6b843da09b,61b90316822dab53a922e42e,2021-12-14_22h49.10.825,PRaM,2021.2.3,Win32,60.18295619,61b8f3437b89212fae0dfade
7,2.9585,space,1.1225,0,187,187,139,1,,,602d2adcef81ce6b843da09b,61b90316822dab53a922e42e,2021-12-14_22h49.10.825,PRaM,2021.2.3,Win32,60.18295619,61b8f3437b89212fae0dfade
6,4.9977,space,3.3408,0,188,188,33,1,,,602d2adcef81ce6b843da09b,61b90316822dab53a922e42e,2021-12-14_22h49.10.825,PRaM,2021.2.3,Win32,60.18295619,61b8f3437b89212fae0dfade
4,3.7269,space,2.0511,0,189,189,374,1,,,602d2adcef81ce6b843da09b,61b90316822dab53a922e42e,2021-12-14_22h49.10.825,PRaM,2021.2.3,Win32,60.18295619,61b8f3437b89212fae0dfade
6,4.8883,space,3.4004,0,190,190,46,1,,,602d2adcef81ce6b843da09b,61b90316822dab53a922e42e,2021-12-14_22h49.10.825,PRaM,2021.2.3,Win32,60.18295619,61b8f3437b89212fae0dfade
6,4.9377,space,3.6344,0,191,191,337,1,,,602d2adcef81ce6b843da09b,61b90316822dab53a922e42e,2021-12-14_22h49.10.825,PRaM,2021.2.3,Win32,60.18295619,61b8f3437b89212fae0dfade
6,3.4149,space,1.5746,0,192,192,131,1,,,602d2adcef81ce6b843da09b,61b90316822dab53a922e42e,2021-12-14_22h49.10.825,PRaM,2021.2.3,Win32,60.18295619,61b8f3437b89212fae0dfade
2,7.4007,space,5.7005,0,193,193,296,1,,,602d2adcef81ce6b843da09b,61b90316822dab53a922e42e,2021-12-14_22h49.10.825,PRaM,2021.2.3,Win32,60.18295619,61b8f3437b89212fae0dfade
4,3.8542,space,2.0261,0,194,194,118,1,,,602d2adcef81ce6b843da09b,61b90316822dab53a922e42e,2021-12-14_22h49.10.825,PRaM,2021.2.3,Win32,60.18295619,61b8f3437b89212fae0dfade
1,2.1708,space,0.5271,0,195,195,354,1,,,602d2adcef81ce6b843da09b,61b90316822dab53a922e42e,2021-12-14_22h49.10.825,PRaM,2021.2.3,Win32,60.18295619,61b8f3437b89212fae0dfade
3,2.6045,space,0.7942,0,196,196,65,1,,,602d2adcef81ce6b843da09b,61b90316822dab53a922e42e,2021-12-14_22h49.10.825,PRaM,2021.2.3,Win32,60.18295619,61b8f3437b89212fae0dfade
1,6.0714,space,4.3837,0,197,197,210,1,,,602d2adcef81ce6b843da09b,61b90316822dab53a922e42e,2021-12-14_22h49.10.825,PRaM,2021.2.3,Win32,60.18295619,61b8f3437b89212fae0dfade
2,3.0703,space,1.1837,0,198,198,218,1,,,602d2adcef81ce6b843da09b,61b90316822dab53a922e42e,2021-12-14_22h49.10.825,PRaM,2021.2.3,Win32,60.18295619,61b8f3437b89212fae0dfade
2,3.049,space,1.3696,0,199,199,220,1,,,602d2adcef81ce6b843da09b,61b90316822dab53a922e42e,2021-12-14_22h49.10.825,PRaM,2021.2.3,Win32,60.18295619,61b8f3437b89212fae0dfade
6,3.7014,space,2.1836,0,200,200,160,1,,,602d2adcef81ce6b843da09b,61b90316822dab53a922e42e,2021-12-14_22h49.10.825,PRaM,2021.2.3,Win32,60.18295619,61b8f3437b89212fae0dfade
4,3.4091,space,1.7173,0,201,201,77,1,,,602d2adcef81ce6b843da09b,61b90316822dab53a922e42e,2021-12-14_22h49.10.825,PRaM,2021.2.3,Win32,60.18295619,61b8f3437b89212fae0dfade
4,4.4082,space,2.6284,0,202,202,20,1,,,602d2adcef81ce6b843da09b,61b90316822dab53a922e42e,2021-12-14_22h49.10.825,PRaM,2021.2.3,Win32,60.18295619,61b8f3437b89212fae0dfade
9,2.0894,space,0.401,0,203,203,325,1,,,602d2adcef81ce6b843da09b,61b90316822dab53a922e42e,2021-12-14_22h49.10.825,PRaM,2021.2.3,Win32,60.18295619,61b8f3437b89212fae0dfade
7,2.0081,space,0.2211,0,204,204,301,1,,,602d2adcef81ce6b843da09b,61b90316822dab53a922e42e,2021-12-14_22h49.10.825,PRaM,2021.2.3,Win32,60.18295619,61b8f3437b89212fae0dfade
2,2.3882,space,1.0672,0,205,205,313,1,,,602d2adcef81ce6b843da09b,61b90316822dab53a922e42e,2021-12-14_22h49.10.825,PRaM,2021.2.3,Win32,60.18295619,61b8f3437b89212fae0dfade
5,2.5315,space,0.8505,0,206,206,332,1,,,602d2adcef81ce6b843da09b,61b90316822dab53a922e42e,2021-12-14_22h49.10.825,PRaM,2021.2.3,Win32,60.18295619,61b8f3437b89212fae0dfade
6,7.7603,space,6.0508,0,207,207,352,1,,,602d2adcef81ce6b843da09b,61b90316822dab53a922e42e,2021-12-14_22h49.10.825,PRaM,2021.2.3,Win32,60.18295619,61b8f3437b89212fae0dfade
2,4.0892,space,2.8002,0,208,208,347,1,,,602d2adcef81ce6b843da09b,61b90316822dab53a922e42e,2021-12-14_22h49.10.825,PRaM,2021.2.3,Win32,60.18295619,61b8f3437b89212fae0dfade
6,6.9347,space,5.2451,0,209,209,156,1,,,602d2adcef81ce6b843da09b,61b90316822dab53a922e42e,2021-12-14_22h49.10.825,PRaM,2021.2.3,Win32,60.18295619,61b8f3437b89212fae0dfade
8,4.6644,space,2.9347,0,210,210,51,1,,,602d2adcef81ce6b843da09b,61b90316822dab53a922e42e,2021-12-14_22h49.10.825,PRaM,2021.2.3,Win32,60.18295619,61b8f3437b89212fae0dfade
5,4.0088,space,2.289,0,211,211,341,1,,,602d2adcef81ce6b843da09b,61b90316822dab53a922e42e,2021-12-14_22h49.10.825,PRaM,2021.2.3,Win32,60.18295619,61b8f3437b89212fae0dfade
1,2.5,space,0.786,0,212,212,343,1,,,602d2adcef81ce6b843da09b,61b90316822dab53a922e42e,2021-12-14_22h49.10.825,PRaM,2021.2.3,Win32,60.18295619,61b8f3437b89212fae0dfade
4,4.5037,space,2.8393,0,213,213,60,1,,,602d2adcef81ce6b843da09b,61b90316822dab53a922e42e,2021-12-14_22h49.10.825,PRaM,2021.2.3,Win32,60.18295619,61b8f3437b89212fae0dfade
6,2.9304,space,1.2556,0,214,214,56,1,,,602d2adcef81ce6b843da09b,61b90316822dab53a922e42e,2021-12-14_22h49.10.825,PRaM,2021.2.3,Win32,60.18295619,61b8f3437b89212fae0dfade
7,2.8803,space,1.1572,0,215,215,179,1,,,602d2adcef81ce6b843da09b,61b90316822dab53a922e42e,2021-12-14_22h49.10.825,PRaM,2021.2.3,Win32,60.18295619,61b8f3437b89212fae0dfade
6,3.5733,space,1.792,0,216,216,336,1,,,602d2adcef81ce6b843da09b,61b90316822dab53a922e42e,2021-12-14_22h49.10.825,PRaM,2021.2.3,Win32,60.18295619,61b8f3437b89212fae0dfade
2,3.1168,space,4.6869,0,217,217,23,1,,,602d2adcef81ce6b843da09b,61b90316822dab53a922e42e,2021-12-14_22h49.10.825,PRaM,2021.2.3,Win32,60.18295619,61b8f3437b89212fae0dfade
1,3.4776,space,1.7854,0,218,218,10,1,,,602d2adcef81ce6b843da09b,61b90316822dab53a922e42e,2021-12-14_22h49.10.825,PRaM,2021.2.3,Win32,60.18295619,61b8f3437b89212fae0dfade
3,4.1519,space,2.4338,0,219,219,240,1,,,602d2adcef81ce6b843da09b,61b90316822dab53a922e42e,2021-12-14_22h49.10.825,PRaM,2021.2.3,Win32,60.18295619,61b8f3437b89212fae0dfade
2,3.3719,space,1.6351,0,220,220,92,1,,,602d2adcef81ce6b843da09b,61b90316822dab53a922e42e,2021-12-14_22h49.10.825,PRaM,2021.2.3,Win32,60.18295619,61b8f3437b89212fae0dfade
5,2.4046,space,0.7171,0,221,221,68,1,,,602d2adcef81ce6b843da09b,61b90316822dab53a922e42e,2021-12-14_22h49.10.825,PRaM,2021.2.3,Win32,60.18295619,61b8f3437b89212fae0dfade
2,8.0663,space,6.1842,0,222,222,94,1,,,602d2adcef81ce6b843da09b,61b90316822dab53a922e42e,2021-12-14_22h49.10.825,PRaM,2021.2.3,Win32,60.18295619,61b8f3437b89212fae0dfade
2,2.2417,space,2.8055,0,223,223,229,1,,,602d2adcef81ce6b843da09b,61b90316822dab53a922e42e,2021-12-14_22h49.10.825,PRaM,2021.2.3,Win32,60.18295619,61b8f3437b89212fae0dfade
2,2.5611,space,1.4621,0,224,224,369,1,,,602d2adcef81ce6b843da09b,61b90316822dab53a922e42e,2021-12-14_22h49.10.825,PRaM,2021.2.3,Win32,60.18295619,61b8f3437b89212fae0dfade
6,2.8386,space,0.9929,0,225,225,239,1,,,602d2adcef81ce6b843da09b,61b90316822dab53a922e42e,2021-12-14_22h49.10.825,PRaM,2021.2.3,Win32,60.18295619,61b8f3437b89212fae0dfade
8,2.0888,space,1.0181,0,226,226,4,1,,,602d2adcef81ce6b843da09b,61b90316822dab53a922e42e,2021-12-14_22h49.10.825,PRaM,2021.2.3,Win32,60.18295619,61b8f3437b89212fae0dfade
2,2.1801,space,0.3508,0,227,227,316,1,,,602d2adcef81ce6b843da09b,61b90316822dab53a922e42e,2021-12-14_22h49.10.825,PRaM,2021.2.3,Win32,60.18295619,61b8f3437b89212fae0dfade
7,4.0235,space,2.3411,0,228,228,277,1,,,602d2adcef81ce6b843da09b,61b90316822dab53a922e42e,2021-12-14_22h49.10.825,PRaM,2021.2.3,Win32,60.18295619,61b8f3437b89212fae0dfade
3,3.9259,space,2.2348,0,229,229,145,1,,,602d2adcef81ce6b843da09b,61b90316822dab53a922e42e,2021-12-14_22h49.10.825,PRaM,2021.2.3,Win32,60.18295619,61b8f3437b89212fae0dfade
1,2.9959,space,1.2843,0,230,230,8,1,,,602d2adcef81ce6b843da09b,61b90316822dab53a922e42e,2021-12-14_22h49.10.825,PRaM,2021.2.3,Win32,60.18295619,61b8f3437b89212fae0dfade
7,2.8342,space,1.1513,0,231,231,198,1,,,602d2adcef81ce6b843da09b,61b90316822dab53a922e42e,2021-12-14_22h49.10.825,PRaM,2021.2.3,Win32,60.18295619,61b8f3437b89212fae0dfade
2,2.771,space,0.971,0,232,232,1,1,,,602d2adcef81ce6b843da09b,61b90316822dab53a922e42e,2021-12-14_22h49.10.825,PRaM,2021.2.3,Win32,60.18295619,61b8f3437b89212fae0dfade
3,3.2794,space,2.6392,0,233,233,211,1,,,602d2adcef81ce6b843da09b,61b90316822dab53a922e42e,2021-12-14_22h49.10.825,PRaM,2021.2.3,Win32,60.18295619,61b8f3437b89212fae0dfade
5,5.4132,space,3.7249,0,234,234,175,1,,,602d2adcef81ce6b843da09b,61b90316822dab53a922e42e,2021-12-14_22h49.10.825,PRaM,2021.2.3,Win32,60.18295619,61b8f3437b89212fae0dfade
1,5.7205,space,4.0586,0,235,235,289,1,,,602d2adcef81ce6b843da09b,61b90316822dab53a922e42e,2021-12-14_22h49.10.825,PRaM,2021.2.3,Win32,60.18295619,61b8f3437b89212fae0dfade
6,2.1726,space,0.4041,0,236,236,177,1,,,602d2adcef81ce6b843da09b,61b90316822dab53a922e42e,2021-12-14_22h49.10.825,PRaM,2021.2.3,Win32,60.18295619,61b8f3437b89212fae0dfade
7,2.7877,space,1.038,0,237,237,45,1,,,602d2adcef81ce6b843da09b,61b90316822dab53a922e42e,2021-12-14_22h49.10.825,PRaM,2021.2.3,Win32,60.18295619,61b8f3437b89212fae0dfade
7,4.7005,space,3.1001,0,238,238,168,1,,,602d2adcef81ce6b843da09b,61b90316822dab53a922e42e,2021-12-14_22h49.10.825,PRaM,2021.2.3,Win32,60.18295619,61b8f3437b89212fae0dfade
8,1.8375,space,3.8577,0,239,239,38,1,,,602d2adcef81ce6b843da09b,61b90316822dab53a922e42e,2021-12-14_22h49.10.825,PRaM,2021.2.3,Win32,60.18295619,61b8f3437b89212fae0dfade
6,2.8403,space,1.0225,0,240,240,63,1,,,602d2adcef81ce6b843da09b,61b90316822dab53a922e42e,2021-12-14_22h49.10.825,PRaM,2021.2.3,Win32,60.18295619,61b8f3437b89212fae0dfade
1,2.6075,space,0.9426,0,241,241,184,1,,,602d2adcef81ce6b843da09b,61b90316822dab53a922e42e,2021-12-14_22h49.10.825,PRaM,2021.2.3,Win32,60.18295619,61b8f3437b89212fae0dfade
1,2.6731,space,1.0424,0,242,242,370,1,,,602d2adcef81ce6b843da09b,61b90316822dab53a922e42e,2021-12-14_22h49.10.825,PRaM,2021.2.3,Win32,60.18295619,61b8f3437b89212fae0dfade
7,2.3259,space,0.9846,0,243,243,213,1,,,602d2adcef81ce6b843da09b,61b90316822dab53a922e42e,2021-12-14_22h49.10.825,PRaM,2021.2.3,Win32,60.18295619,61b8f3437b89212fae0dfade
6,1.9547,space,0.2714,0,244,244,104,1,,,602d2adcef81ce6b843da09b,61b90316822dab53a922e42e,2021-12-14_22h49.10.825,PRaM,2021.2.3,Win32,60.18295619,61b8f3437b89212fae0dfade
3,5.1339,space,3.3546,0,245,245,119,1,,,602d2adcef81ce6b843da09b,61b90316822dab53a922e42e,2021-12-14_22h49.10.825,PRaM,2021.2.3,Win32,60.18295619,61b8f3437b89212fae0dfade
6,4.5898,space,3.4701,0,246,246,350,1,,,602d2adcef81ce6b843da09b,61b90316822dab53a922e42e,2021-12-14_22h49.10.825,PRaM,2021.2.3,Win32,60.18295619,61b8f3437b89212fae0dfade
8,6.6422,space,5.3843,0,247,247,372,1,,,602d2adcef81ce6b843da09b,61b90316822dab53a922e42e,2021-12-14_22h49.10.825,PRaM,2021.2.3,Win32,60.18295619,61b8f3437b89212fae0dfade
1,4.4589,space,3.0172,0,248,248,9,1,,,602d2adcef81ce6b843da09b,61b90316822dab53a922e42e,2021-12-14_22h49.10.825,PRaM,2021.2.3,Win32,60.18295619,61b8f3437b89212fae0dfade
2,3.0778,space,1.6265,0,249,249,338,1,,,602d2adcef81ce6b843da09b,61b90316822dab53a922e42e,2021-12-14_22h49.10.825,PRaM,2021.2.3,Win32,60.18295619,61b8f3437b89212fae0dfade
4,2.7083,space,1.0849,0,250,250,124,1,,,602d2adcef81ce6b843da09b,61b90316822dab53a922e42e,2021-12-14_22h49.10.825,PRaM,2021.2.3,Win32,60.18295619,61b8f3437b89212fae0dfade
3,7.9396,space,6.3506,0,251,251,222,1,,,602d2adcef81ce6b843da09b,61b90316822dab53a922e42e,2021-12-14_22h49.10.825,PRaM,2021.2.3,Win32,60.18295619,61b8f3437b89212fae0dfade
2,2.0212,space,0.1746,0,252,252,250,1,,,602d2adcef81ce6b843da09b,61b90316822dab53a922e42e,2021-12-14_22h49.10.825,PRaM,2021.2.3,Win32,60.18295619,61b8f3437b89212fae0dfade
1,5.8377,space,4.1392,0,253,253,190,1,,,602d2adcef81ce6b843da09b,61b90316822dab53a922e42e,2021-12-14_22h49.10.825,PRaM,2021.2.3,Win32,60.18295619,61b8f3437b89212fae0dfade
3,2.9951,space,1.2501,0,254,254,259,1,,,602d2adcef81ce6b843da09b,61b90316822dab53a922e42e,2021-12-14_22h49.10.825,PRaM,2021.2.3,Win32,60.18295619,61b8f3437b89212fae0dfade
2,2.3369,space,0.5672,0,255,255,36,1,,,602d2adcef81ce6b843da09b,61b90316822dab53a922e42e,2021-12-14_22h49.10.825,PRaM,2021.2.3,Win32,60.18295619,61b8f3437b89212fae0dfade
3,2.5703,space,0.8524,0,256,256,373,1,,,602d2adcef81ce6b843da09b,61b90316822dab53a922e42e,2021-12-14_22h49.10.825,PRaM,2021.2.3,Win32,60.18295619,61b8f3437b89212fae0dfade
7,2.1541,space,0.5508,0,257,257,355,1,,,602d2adcef81ce6b843da09b,61b90316822dab53a922e42e,2021-12-14_22h49.10.825,PRaM,2021.2.3,Win32,60.18295619,61b8f3437b89212fae0dfade
6,2.2612,space,4.7936,0,258,258,186,1,,,602d2adcef81ce6b843da09b,61b90316822dab53a922e42e,2021-12-14_22h49.10.825,PRaM,2021.2.3,Win32,60.18295619,61b8f3437b89212fae0dfade
4,3.6042,space,1.7832,0,259,259,18,1,,,602d2adcef81ce6b843da09b,61b90316822dab53a922e42e,2021-12-14_22h49.10.825,PRaM,2021.2.3,Win32,60.18295619,61b8f3437b89212fae0dfade
5,2.5098,space,0.7023,0,260,260,257,1,,,602d2adcef81ce6b843da09b,61b90316822dab53a922e42e,2021-12-14_22h49.10.825,PRaM,2021.2.3,Win32,60.18295619,61b8f3437b89212fae0dfade
1,6.2371,space,4.7859,0,261,261,171,1,,,602d2adcef81ce6b843da09b,61b90316822dab53a922e42e,2021-12-14_22h49.10.825,PRaM,2021.2.3,Win32,60.18295619,61b8f3437b89212fae0dfade
3,4.4326,space,2.6919,0,262,262,246,1,,,602d2adcef81ce6b843da09b,61b90316822dab53a922e42e,2021-12-14_22h49.10.825,PRaM,2021.2.3,Win32,60.18295619,61b8f3437b89212fae0dfade
3,4.3835,space,2.6943,0,263,263,261,1,,,602d2adcef81ce6b843da09b,61b90316822dab53a922e42e,2021-12-14_22h49.10.825,PRaM,2021.2.3,Win32,60.18295619,61b8f3437b89212fae0dfade
6,1.9212,space,0.0413,0,264,264,123,1,,,602d2adcef81ce6b843da09b,61b90316822dab53a922e42e,2021-12-14_22h49.10.825,PRaM,2021.2.3,Win32,60.18295619,61b8f3437b89212fae0dfade
3,2.9366,space,1.1056,0,265,265,235,1,,,602d2adcef81ce6b843da09b,61b90316822dab53a922e42e,2021-12-14_22h49.10.825,PRaM,2021.2.3,Win32,60.18295619,61b8f3437b89212fae0dfade
7,3.0566,space,1.2336,0,266,266,199,1,,,602d2adcef81ce6b843da09b,61b90316822dab53a922e42e,2021-12-14_22h49.10.825,PRaM,2021.2.3,Win32,60.18295619,61b8f3437b89212fae0dfade
3,2.0386,space,0.253,0,267,267,281,1,,,602d2adcef81ce6b843da09b,61b90316822dab53a922e42e,2021-12-14_22h49.10.825,PRaM,2021.2.3,Win32,60.18295619,61b8f3437b89212fae0dfade
2,2.4015,space,0.7198,0,268,268,188,1,,,602d2adcef81ce6b843da09b,61b90316822dab53a922e42e,2021-12-14_22h49.10.825,PRaM,2021.2.3,Win32,60.18295619,61b8f3437b89212fae0dfade
2,2.1382,space,0.3362,0,269,269,202,1,,,602d2adcef81ce6b843da09b,61b90316822dab53a922e42e,2021-12-14_22h49.10.825,PRaM,2021.2.3,Win32,60.18295619,61b8f3437b89212fae0dfade
1,2.9393,space,1.2387,0,270,270,275,1,,,602d2adcef81ce6b843da09b,61b90316822dab53a922e42e,2021-12-14_22h49.10.825,PRaM,2021.2.3,Win32,60.18295619,61b8f3437b89212fae0dfade
2,2.2884,space,2.3589,0,271,271,265,1,,,602d2adcef81ce6b843da09b,61b90316822dab53a922e42e,2021-12-14_22h49.10.825,PRaM,2021.2.3,Win32,60.18295619,61b8f3437b89212fae0dfade
2,3.9214,space,2.0874,0,272,272,249,1,,,602d2adcef81ce6b843da09b,61b90316822dab53a922e42e,2021-12-14_22h49.10.825,PRaM,2021.2.3,Win32,60.18295619,61b8f3437b89212fae0dfade
6,3.6399,space,1.8509,0,273,273,149,1,,,602d2adcef81ce6b843da09b,61b90316822dab53a922e42e,2021-12-14_22h49.10.825,PRaM,2021.2.3,Win32,60.18295619,61b8f3437b89212fae0dfade
1,1.7028,space,1.4601,0,274,274,106,1,,,602d2adcef81ce6b843da09b,61b90316822dab53a922e42e,2021-12-14_22h49.10.825,PRaM,2021.2.3,Win32,60.18295619,61b8f3437b89212fae0dfade
6,11.5161,space,9.8924,0,275,275,346,1,,,602d2adcef81ce6b843da09b,61b90316822dab53a922e42e,2021-12-14_22h49.10.825,PRaM,2021.2.3,Win32,60.18295619,61b8f3437b89212fae0dfade
5,1.8057,space,0.1846,0,276,276,206,1,,,602d2adcef81ce6b843da09b,61b90316822dab53a922e42e,2021-12-14_22h49.10.825,PRaM,2021.2.3,Win32,60.18295619,61b8f3437b89212fae0dfade
7,4.8008,space,4.4432,0,277,277,348,1,,,602d2adcef81ce6b843da09b,61b90316822dab53a922e42e,2021-12-14_22h49.10.825,PRaM,2021.2.3,Win32,60.18295619,61b8f3437b89212fae0dfade
7,2.1462,space,1.2835,0,278,278,368,1,,,602d2adcef81ce6b843da09b,61b90316822dab53a922e42e,2021-12-14_22h49.10.825,PRaM,2021.2.3,Win32,60.18295619,61b8f3437b89212fae0dfade
5,2.1896,space,0.4244,0,279,279,101,1,,,602d2adcef81ce6b843da09b,61b90316822dab53a922e42e,2021-12-14_22h49.10.825,PRaM,2021.2.3,Win32,60.18295619,61b8f3437b89212fae0dfade
7,4.4079,space,2.6153,0,280,280,221,1,,,602d2adcef81ce6b843da09b,61b90316822dab53a922e42e,2021-12-14_22h49.10.825,PRaM,2021.2.3,Win32,60.18295619,61b8f3437b89212fae0dfade
2,5.9348,space,4.1675,0,281,281,342,1,,,602d2adcef81ce6b843da09b,61b90316822dab53a922e42e,2021-12-14_22h49.10.825,PRaM,2021.2.3,Win32,60.18295619,61b8f3437b89212fae0dfade
2,1.7233,space,9.5875,0,282,282,93,1,,,602d2adcef81ce6b843da09b,61b90316822dab53a922e42e,2021-12-14_22h49.10.825,PRaM,2021.2.3,Win32,60.18295619,61b8f3437b89212fae0dfade
3,5.0429,space,3.3543,0,283,283,100,1,,,602d2adcef81ce6b843da09b,61b90316822dab53a922e42e,2021-12-14_22h49.10.825,PRaM,2021.2.3,Win32,60.18295619,61b8f3437b89212fae0dfade
1,2.2115,space,0.4165,0,284,284,293,1,,,602d2adcef81ce6b843da09b,61b90316822dab53a922e42e,2021-12-14_22h49.10.825,PRaM,2021.2.3,Win32,60.18295619,61b8f3437b89212fae0dfade
5,1.5388,space,0.7182,0,285,285,241,1,,,602d2adcef81ce6b843da09b,61b90316822dab53a922e42e,2021-12-14_22h49.10.825,PRaM,2021.2.3,Win32,60.18295619,61b8f3437b89212fae0dfade
1,2.2603,space,0.4565,0,286,286,189,1,,,602d2adcef81ce6b843da09b,61b90316822dab53a922e42e,2021-12-14_22h49.10.825,PRaM,2021.2.3,Win32,60.18295619,61b8f3437b89212fae0dfade
2,1.8246,space,0.11,0,287,287,329,1,,,602d2adcef81ce6b843da09b,61b90316822dab53a922e42e,2021-12-14_22h49.10.825,PRaM,2021.2.3,Win32,60.18295619,61b8f3437b89212fae0dfade
5,1.6367,space,0.493,0,288,288,322,1,,,602d2adcef81ce6b843da09b,61b90316822dab53a922e42e,2021-12-14_22h49.10.825,PRaM,2021.2.3,Win32,60.18295619,61b8f3437b89212fae0dfade
5,1.8553,space,0.204,0,289,289,146,1,,,602d2adcef81ce6b843da09b,61b90316822dab53a922e42e,2021-12-14_22h49.10.825,PRaM,2021.2.3,Win32,60.18295619,61b8f3437b89212fae0dfade
3,2.6899,space,0.9358,0,290,290,231,1,,,602d2adcef81ce6b843da09b,61b90316822dab53a922e42e,2021-12-14_22h49.10.825,PRaM,2021.2.3,Win32,60.18295619,61b8f3437b89212fae0dfade
8,2.3587,space,0.5557,0,291,291,102,1,,,602d2adcef81ce6b843da09b,61b90316822dab53a922e42e,2021-12-14_22h49.10.825,PRaM,2021.2.3,Win32,60.18295619,61b8f3437b89212fae0dfade
3,4.5499,space,2.7355,0,292,292,69,1,,,602d2adcef81ce6b843da09b,61b90316822dab53a922e42e,2021-12-14_22h49.10.825,PRaM,2021.2.3,Win32,60.18295619,61b8f3437b89212fae0dfade
4,3.1136,space,1.4424,0,293,293,233,1,,,602d2adcef81ce6b843da09b,61b90316822dab53a922e42e,2021-12-14_22h49.10.825,PRaM,2021.2.3,Win32,60.18295619,61b8f3437b89212fae0dfade
7,1.7066,space,0.5825,0,294,294,29,1,,,602d2adcef81ce6b843da09b,61b90316822dab53a922e42e,2021-12-14_22h49.10.825,PRaM,2021.2.3,Win32,60.18295619,61b8f3437b89212fae0dfade
7,1.6792,space,0.3008,0,295,295,180,1,,,602d2adcef81ce6b843da09b,61b90316822dab53a922e42e,2021-12-14_22h49.10.825,PRaM,2021.2.3,Win32,60.18295619,61b8f3437b89212fae0dfade
1,4.2735,space,2.5694,0,296,296,34,1,,,602d2adcef81ce6b843da09b,61b90316822dab53a922e42e,2021-12-14_22h49.10.825,PRaM,2021.2.3,Win32,60.18295619,61b8f3437b89212fae0dfade
2,3.366,space,3.4675,0,297,297,181,1,,,602d2adcef81ce6b843da09b,61b90316822dab53a922e42e,2021-12-14_22h49.10.825,PRaM,2021.2.3,Win32,60.18295619,61b8f3437b89212fae0dfade
7,2.3718,space,0.6087,0,298,298,324,1,,,602d2adcef81ce6b843da09b,61b90316822dab53a922e42e,2021-12-14_22h49.10.825,PRaM,2021.2.3,Win32,60.18295619,61b8f3437b89212fae0dfade
3,2.4714,space,0.7263,0,299,299,344,1,,,602d2adcef81ce6b843da09b,61b90316822dab53a922e42e,2021-12-14_22h49.10.825,PRaM,2021.2.3,Win32,60.18295619,61b8f3437b89212fae0dfade
5,2.7719,space,1.1062,0,300,300,125,1,,,602d2adcef81ce6b843da09b,61b90316822dab53a922e42e,2021-12-14_22h49.10.825,PRaM,2021.2.3,Win32,60.18295619,61b8f3437b89212fae0dfade
7,2.9412,space,1.1508,0,301,301,114,1,,,602d2adcef81ce6b843da09b,61b90316822dab53a922e42e,2021-12-14_22h49.10.825,PRaM,2021.2.3,Win32,60.18295619,61b8f3437b89212fae0dfade
3,10.2492,space,9.6195,0,302,302,193,1,,,602d2adcef81ce6b843da09b,61b90316822dab53a922e42e,2021-12-14_22h49.10.825,PRaM,2021.2.3,Win32,60.18295619,61b8f3437b89212fae0dfade
2,3.1685,space,1.36,0,303,303,360,1,,,602d2adcef81ce6b843da09b,61b90316822dab53a922e42e,2021-12-14_22h49.10.825,PRaM,2021.2.3,Win32,60.18295619,61b8f3437b89212fae0dfade
7,2.1305,space,0.3722,0,304,304,263,1,,,602d2adcef81ce6b843da09b,61b90316822dab53a922e42e,2021-12-14_22h49.10.825,PRaM,2021.2.3,Win32,60.18295619,61b8f3437b89212fae0dfade
3,5.21,space,3.4623,0,305,305,147,1,,,602d2adcef81ce6b843da09b,61b90316822dab53a922e42e,2021-12-14_22h49.10.825,PRaM,2021.2.3,Win32,60.18295619,61b8f3437b89212fae0dfade
8,9.9515,space,8.2175,0,306,306,117,1,,,602d2adcef81ce6b843da09b,61b90316822dab53a922e42e,2021-12-14_22h49.10.825,PRaM,2021.2.3,Win32,60.18295619,61b8f3437b89212fae0dfade
1,1.9096,space,0.1609,0,307,307,73,1,,,602d2adcef81ce6b843da09b,61b90316822dab53a922e42e,2021-12-14_22h49.10.825,PRaM,2021.2.3,Win32,60.18295619,61b8f3437b89212fae0dfade
6,2.4302,space,0.6072,0,308,308,294,1,,,602d2adcef81ce6b843da09b,61b90316822dab53a922e42e,2021-12-14_22h49.10.825,PRaM,2021.2.3,Win32,60.18295619,61b8f3437b89212fae0dfade
6,8.0364,space,6.2874,0,309,309,209,1,,,602d2adcef81ce6b843da09b,61b90316822dab53a922e42e,2021-12-14_22h49.10.825,PRaM,2021.2.3,Win32,60.18295619,61b8f3437b89212fae0dfade
2,9.9979,space,8.2721,0,310,310,262,1,,,602d2adcef81ce6b843da09b,61b90316822dab53a922e42e,2021-12-14_22h49.10.825,PRaM,2021.2.3,Win32,60.18295619,61b8f3437b89212fae0dfade
2,1.7221,space,3.511,0,311,311,116,1,,,602d2adcef81ce6b843da09b,61b90316822dab53a922e42e,2021-12-14_22h49.10.825,PRaM,2021.2.3,Win32,60.18295619,61b8f3437b89212fae0dfade
6,6.3215,space,4.4199,0,312,312,363,1,,,602d2adcef81ce6b843da09b,61b90316822dab53a922e42e,2021-12-14_22h49.10.825,PRaM,2021.2.3,Win32,60.18295619,61b8f3437b89212fae0dfade
3,1.9216,space,0.0677,0,313,313,365,1,,,602d2adcef81ce6b843da09b,61b90316822dab53a922e42e,2021-12-14_22h49.10.825,PRaM,2021.2.3,Win32,60.18295619,61b8f3437b89212fae0dfade
2,3.0433,space,1.2094,0,314,314,300,1,,,602d2adcef81ce6b843da09b,61b90316822dab53a922e42e,2021-12-14_22h49.10.825,PRaM,2021.2.3,Win32,60.18295619,61b8f3437b89212fae0dfade
2,1.8424,space,0.1431,0,315,315,67,1,,,602d2adcef81ce6b843da09b,61b90316822dab53a922e42e,2021-12-14_22h49.10.825,PRaM,2021.2.3,Win32,60.18295619,61b8f3437b89212fae0dfade
8,1.556,space,0.9898,0,316,316,110,1,,,602d2adcef81ce6b843da09b,61b90316822dab53a922e42e,2021-12-14_22h49.10.825,PRaM,2021.2.3,Win32,60.18295619,61b8f3437b89212fae0dfade
5,1.8431,space,0.3836,0,317,317,362,1,,,602d2adcef81ce6b843da09b,61b90316822dab53a922e42e,2021-12-14_22h49.10.825,PRaM,2021.2.3,Win32,60.18295619,61b8f3437b89212fae0dfade
6,1.7066,space,0.1189,0,318,318,297,1,,,602d2adcef81ce6b843da09b,61b90316822dab53a922e42e,2021-12-14_22h49.10.825,PRaM,2021.2.3,Win32,60.18295619,61b8f3437b89212fae0dfade
4,4.9331,space,3.3031,0,319,319,274,1,,,602d2adcef81ce6b843da09b,61b90316822dab53a922e42e,2021-12-14_22h49.10.825,PRaM,2021.2.3,Win32,60.18295619,61b8f3437b89212fae0dfade
7,2.7553,space,0.9858,0,320,320,37,1,,,602d2adcef81ce6b843da09b,61b90316822dab53a922e42e,2021-12-14_22h49.10.825,PRaM,2021.2.3,Win32,60.18295619,61b8f3437b89212fae0dfade
2,3.0709,space,1.2905,0,321,321,57,1,,,602d2adcef81ce6b843da09b,61b90316822dab53a922e42e,2021-12-14_22h49.10.825,PRaM,2021.2.3,Win32,60.18295619,61b8f3437b89212fae0dfade
1,3.3745,space,1.6605,0,322,322,232,1,,,602d2adcef81ce6b843da09b,61b90316822dab53a922e42e,2021-12-14_22h49.10.825,PRaM,2021.2.3,Win32,60.18295619,61b8f3437b89212fae0dfade
6,2.8051,space,0.984,0,323,323,154,1,,,602d2adcef81ce6b843da09b,61b90316822dab53a922e42e,2021-12-14_22h49.10.825,PRaM,2021.2.3,Win32,60.18295619,61b8f3437b89212fae0dfade
8,3.5229,space,1.7027,0,324,324,278,1,,,602d2adcef81ce6b843da09b,61b90316822dab53a922e42e,2021-12-14_22h49.10.825,PRaM,2021.2.3,Win32,60.18295619,61b8f3437b89212fae0dfade
2,5.0813,space,4.2393,0,325,325,50,1,,,602d2adcef81ce6b843da09b,61b90316822dab53a922e42e,2021-12-14_22h49.10.825,PRaM,2021.2.3,Win32,60.18295619,61b8f3437b89212fae0dfade
2,2.4351,space,0.6353,0,326,326,128,1,,,602d2adcef81ce6b843da09b,61b90316822dab53a922e42e,2021-12-14_22h49.10.825,PRaM,2021.2.3,Win32,60.18295619,61b8f3437b89212fae0dfade
3,2.2139,space,0.3943,0,327,327,150,1,,,602d2adcef81ce6b843da09b,61b90316822dab53a922e42e,2021-12-14_22h49.10.825,PRaM,2021.2.3,Win32,60.18295619,61b8f3437b89212fae0dfade
7,8.4493,space,6.6867,0,328,328,12,1,,,602d2adcef81ce6b843da09b,61b90316822dab53a922e42e,2021-12-14_22h49.10.825,PRaM,2021.2.3,Win32,60.18295619,61b8f3437b89212fae0dfade
1,3.7085,space,5.335,0,329,329,201,1,,,602d2adcef81ce6b843da09b,61b90316822dab53a922e42e,2021-12-14_22h49.10.825,PRaM,2021.2.3,Win32,60.18295619,61b8f3437b89212fae0dfade
2,2.0118,space,0.1834,0,330,330,321,1,,,602d2adcef81ce6b843da09b,61b90316822dab53a922e42e,2021-12-14_22h49.10.825,PRaM,2021.2.3,Win32,60.18295619,61b8f3437b89212fae0dfade
1,2.5882,space,0.8053,0,331,331,215,1,,,602d2adcef81ce6b843da09b,61b90316822dab53a922e42e,2021-12-14_22h49.10.825,PRaM,2021.2.3,Win32,60.18295619,61b8f3437b89212fae0dfade
3,16.4205,space,14.7343,0,332,332,141,1,,,602d2adcef81ce6b843da09b,61b90316822dab53a922e42e,2021-12-14_22h49.10.825,PRaM,2021.2.3,Win32,60.18295619,61b8f3437b89212fae0dfade
1,2.6158,space,0.8513,0,333,333,121,1,,,602d2adcef81ce6b843da09b,61b90316822dab53a922e42e,2021-12-14_22h49.10.825,PRaM,2021.2.3,Win32,60.18295619,61b8f3437b89212fae0dfade
2,2.3176,space,0.4153,0,334,334,11,1,,,602d2adcef81ce6b843da09b,61b90316822dab53a922e42e,2021-12-14_22h49.10.825,PRaM,2021.2.3,Win32,60.18295619,61b8f3437b89212fae0dfade
2,2.1176,space,1.711,0,335,335,79,1,,,602d2adcef81ce6b843da09b,61b90316822dab53a922e42e,2021-12-14_22h49.10.825,PRaM,2021.2.3,Win32,60.18295619,61b8f3437b89212fae0dfade
1,3.537,space,1.8781,0,336,336,78,1,,,602d2adcef81ce6b843da09b,61b90316822dab53a922e42e,2021-12-14_22h49.10.825,PRaM,2021.2.3,Win32,60.18295619,61b8f3437b89212fae0dfade
2,3.1949,space,1.3677,0,337,337,308,1,,,602d2adcef81ce6b843da09b,61b90316822dab53a922e42e,2021-12-14_22h49.10.825,PRaM,2021.2.3,Win32,60.18295619,61b8f3437b89212fae0dfade
2,3.0032,space,1.6338,0,338,338,86,1,,,602d2adcef81ce6b843da09b,61b90316822dab53a922e42e,2021-12-14_22h49.10.825,PRaM,2021.2.3,Win32,60.18295619,61b8f3437b89212fae0dfade
6,2.1597,space,0.3961,0,339,339,178,1,,,602d2adcef81ce6b843da09b,61b90316822dab53a922e42e,2021-12-14_22h49.10.825,PRaM,2021.2.3,Win32,60.18295619,61b8f3437b89212fae0dfade
7,2.0163,space,0.3169,0,340,340,0,1,,,602d2adcef81ce6b843da09b,61b90316822dab53a922e42e,2021-12-14_22h49.10.825,PRaM,2021.2.3,Win32,60.18295619,61b8f3437b89212fae0dfade
8,1.6328,space,0.7962,0,341,341,115,1,,,602d2adcef81ce6b843da09b,61b90316822dab53a922e42e,2021-12-14_22h49.10.825,PRaM,2021.2.3,Win32,60.18295619,61b8f3437b89212fae0dfade
2,2.6995,space,1.0336,0,342,342,87,1,,,602d2adcef81ce6b843da09b,61b90316822dab53a922e42e,2021-12-14_22h49.10.825,PRaM,2021.2.3,Win32,60.18295619,61b8f3437b89212fae0dfade
2,2.3994,space,0.7949,0,343,343,58,1,,,602d2adcef81ce6b843da09b,61b90316822dab53a922e42e,2021-12-14_22h49.10.825,PRaM,2021.2.3,Win32,60.18295619,61b8f3437b89212fae0dfade
7,2.1201,space,0.367,0,344,344,323,1,,,602d2adcef81ce6b843da09b,61b90316822dab53a922e42e,2021-12-14_22h49.10.825,PRaM,2021.2.3,Win32,60.18295619,61b8f3437b89212fae0dfade
5,1.8458,space,0.1795,0,345,345,349,1,,,602d2adcef81ce6b843da09b,61b90316822dab53a922e42e,2021-12-14_22h49.10.825,PRaM,2021.2.3,Win32,60.18295619,61b8f3437b89212fae0dfade
3,13.476,space,11.7993,0,346,346,164,1,,,602d2adcef81ce6b843da09b,61b90316822dab53a922e42e,2021-12-14_22h49.10.825,PRaM,2021.2.3,Win32,60.18295619,61b8f3437b89212fae0dfade
3,14.7855,space,12.9333,0,347,347,185,1,,,602d2adcef81ce6b843da09b,61b90316822dab53a922e42e,2021-12-14_22h49.10.825,PRaM,2021.2.3,Win32,60.18295619,61b8f3437b89212fae0dfade
6,1.6824,space,0.4358,0,348,348,327,1,,,602d2adcef81ce6b843da09b,61b90316822dab53a922e42e,2021-12-14_22h49.10.825,PRaM,2021.2.3,Win32,60.18295619,61b8f3437b89212fae0dfade
2,2.0032,space,0.3005,0,349,349,200,1,,,602d2adcef81ce6b843da09b,61b90316822dab53a922e42e,2021-12-14_22h49.10.825,PRaM,2021.2.3,Win32,60.18295619,61b8f3437b89212fae0dfade
8,3.595,space,1.7177,0,350,350,291,1,,,602d2adcef81ce6b843da09b,61b90316822dab53a922e42e,2021-12-14_22h49.10.825,PRaM,2021.2.3,Win32,60.18295619,61b8f3437b89212fae0dfade
4,2.4996,space,0.6721,0,351,351,76,1,,,602d2adcef81ce6b843da09b,61b90316822dab53a922e42e,2021-12-14_22h49.10.825,PRaM,2021.2.3,Win32,60.18295619,61b8f3437b89212fae0dfade
2,4.1213,space,2.4073,0,352,352,204,1,,,602d2adcef81ce6b843da09b,61b90316822dab53a922e42e,2021-12-14_22h49.10.825,PRaM,2021.2.3,Win32,60.18295619,61b8f3437b89212fae0dfade
7,2.8357,space,1.0023,0,353,353,61,1,,,602d2adcef81ce6b843da09b,61b90316822dab53a922e42e,2021-12-14_22h49.10.825,PRaM,2021.2.3,Win32,60.18295619,61b8f3437b89212fae0dfade
8,3.8027,space,2.1183,0,354,354,42,1,,,602d2adcef81ce6b843da09b,61b90316822dab53a922e42e,2021-12-14_22h49.10.825,PRaM,2021.2.3,Win32,60.18295619,61b8f3437b89212fae0dfade
2,3.2326,space,1.4342,0,355,355,75,1,,,602d2adcef81ce6b843da09b,61b90316822dab53a922e42e,2021-12-14_22h49.10.825,PRaM,2021.2.3,Win32,60.18295619,61b8f3437b89212fae0dfade
2,10.8628,space,13.6322,0,356,356,165,1,,,602d2adcef81ce6b843da09b,61b90316822dab53a922e42e,2021-12-14_22h49.10.825,PRaM,2021.2.3,Win32,60.18295619,61b8f3437b89212fae0dfade
6,2.7891,space,0.9506,0,357,357,132,1,,,602d2adcef81ce6b843da09b,61b90316822dab53a922e42e,2021-12-14_22h49.10.825,PRaM,2021.2.3,Win32,60.18295619,61b8f3437b89212fae0dfade
8,1.9228,space,0.1633,0,358,358,14,1,,,602d2adcef81ce6b843da09b,61b90316822dab53a922e42e,2021-12-14_22h49.10.825,PRaM,2021.2.3,Win32,60.18295619,61b8f3437b89212fae0dfade
2,1.8538,space,0.8498,0,359,359,195,1,,,602d2adcef81ce6b843da09b,61b90316822dab53a922e42e,2021-12-14_22h49.10.825,PRaM,2021.2.3,Win32,60.18295619,61b8f3437b89212fae0dfade
8,1.5997,space,0.6186,0,360,360,279,1,,,602d2adcef81ce6b843da09b,61b90316822dab53a922e42e,2021-12-14_22h49.10.825,PRaM,2021.2.3,Win32,60.18295619,61b8f3437b89212fae0dfade
1,2.68,space,1.0004,0,361,361,339,1,,,602d2adcef81ce6b843da09b,61b90316822dab53a922e42e,2021-12-14_22h49.10.825,PRaM,2021.2.3,Win32,60.18295619,61b8f3437b89212fae0dfade
6,3.1993,space,1.7501,0,362,362,303,1,,,602d2adcef81ce6b843da09b,61b90316822dab53a922e42e,2021-12-14_22h49.10.825,PRaM,2021.2.3,Win32,60.18295619,61b8f3437b89212fae0dfade
2,3.1991,space,2.4503,0,363,363,103,1,,,602d2adcef81ce6b843da09b,61b90316822dab53a922e42e,2021-12-14_22h49.10.825,PRaM,2021.2.3,Win32,60.18295619,61b8f3437b89212fae0dfade
8,2.3668,space,0.5003,0,364,364,136,1,,,602d2adcef81ce6b843da09b,61b90316822dab53a922e42e,2021-12-14_22h49.10.825,PRaM,2021.2.3,Win32,60.18295619,61b8f3437b89212fae0dfade
1,2.8824,space,1.2349,0,365,365,228,1,,,602d2adcef81ce6b843da09b,61b90316822dab53a922e42e,2021-12-14_22h49.10.825,PRaM,2021.2.3,Win32,60.18295619,61b8f3437b89212fae0dfade
4,3.4147,space,2.0665,0,366,366,47,1,,,602d2adcef81ce6b843da09b,61b90316822dab53a922e42e,2021-12-14_22h49.10.825,PRaM,2021.2.3,Win32,60.18295619,61b8f3437b89212fae0dfade
7,1.8088,space,2.6171,0,367,367,326,1,,,602d2adcef81ce6b843da09b,61b90316822dab53a922e42e,2021-12-14_22h49.10.825,PRaM,2021.2.3,Win32,60.18295619,61b8f3437b89212fae0dfade
3,20.3603,space,26.5984,0,368,368,148,1,,,602d2adcef81ce6b843da09b,61b90316822dab53a922e42e,2021-12-14_22h49.10.825,PRaM,2021.2.3,Win32,60.18295619,61b8f3437b89212fae0dfade
2,3.7019,space,1.903,0,369,369,142,1,,,602d2adcef81ce6b843da09b,61b90316822dab53a922e42e,2021-12-14_22h49.10.825,PRaM,2021.2.3,Win32,60.18295619,61b8f3437b89212fae0dfade
3,2.0067,space,0.1513,0,370,370,236,1,,,602d2adcef81ce6b843da09b,61b90316822dab53a922e42e,2021-12-14_22h49.10.825,PRaM,2021.2.3,Win32,60.18295619,61b8f3437b89212fae0dfade
6,2.5887,space,0.9031,0,371,371,196,1,,,602d2adcef81ce6b843da09b,61b90316822dab53a922e42e,2021-12-14_22h49.10.825,PRaM,2021.2.3,Win32,60.18295619,61b8f3437b89212fae0dfade
1,4.1099,space,2.3497,0,372,372,366,1,,,602d2adcef81ce6b843da09b,61b90316822dab53a922e42e,2021-12-14_22h49.10.825,PRaM,2021.2.3,Win32,60.18295619,61b8f3437b89212fae0dfade
3,2.8983,space,1.0043,0,373,373,21,1,,,602d2adcef81ce6b843da09b,61b90316822dab53a922e42e,2021-12-14_22h49.10.825,PRaM,2021.2.3,Win32,60.18295619,61b8f3437b89212fae0dfade
2,1.9392,space,0.204,0,374,374,66,1,,,602d2adcef81ce6b843da09b,61b90316822dab53a922e42e,2021-12-14_22h49.10.825,PRaM,2021.2.3,Win32,60.18295619,61b8f3437b89212fae0dfade
2,2.4565,space,0.725,0,375,375,163,1,,,602d2adcef81ce6b843da09b,61b90316822dab53a922e42e,2021-12-14_22h49.10.825,PRaM,2021.2.3,Win32,60.18295619,61b8f3437b89212fae0dfade
6,2.2078,space,0.3864,0,376,376,271,1,,,602d2adcef81ce6b843da09b,61b90316822dab53a922e42e,2021-12-14_22h49.10.825,PRaM,2021.2.3,Win32,60.18295619,61b8f3437b89212fae0dfade
9,2.6052,space,0.7761,0,377,377,53,1,,,602d2adcef81ce6b843da09b,61b90316822dab53a922e42e,2021-12-14_22h49.10.825,PRaM,2021.2.3,Win32,60.18295619,61b8f3437b89212fae0dfade
