Rating.response,Rating.rt,EndTrial.keys,EndTrial.rt,trials.thisRepN,trials.thisTrialN,trials.thisN,trials.thisIndex,trials.ran,Pos1,Pos2,participant,session,date,expName,psychopyVersion,OS,frameRate,study_id
,,space,86.5725,0,0,0,161,1,,,603f6ea3c439b514c173633d,61b909696234a64834283cff,2021-12-14_22h14.39.046,PRaM,2021.2.3,Win32,145.0536699,61b8f3437b89212fae0dfade
,,space,0.5037,0,1,1,325,1,,,603f6ea3c439b514c173633d,61b909696234a64834283cff,2021-12-14_22h14.39.046,PRaM,2021.2.3,Win32,145.0536699,61b8f3437b89212fae0dfade
,,space,0.3026,0,2,2,282,1,,,603f6ea3c439b514c173633d,61b909696234a64834283cff,2021-12-14_22h14.39.046,PRaM,2021.2.3,Win32,145.0536699,61b8f3437b89212fae0dfade
,,space,0.37,0,3,3,1,1,,,603f6ea3c439b514c173633d,61b909696234a64834283cff,2021-12-14_22h14.39.046,PRaM,2021.2.3,Win32,145.0536699,61b8f3437b89212fae0dfade
3,7.171,space,36.1675,0,4,4,267,1,,,603f6ea3c439b514c173633d,61b909696234a64834283cff,2021-12-14_22h14.39.046,PRaM,2021.2.3,Win32,145.0536699,61b8f3437b89212fae0dfade
1,4.4583,space,2.7166,0,5,5,177,1,,,603f6ea3c439b514c173633d,61b909696234a64834283cff,2021-12-14_22h14.39.046,PRaM,2021.2.3,Win32,145.0536699,61b8f3437b89212fae0dfade
1,4.9003,space,3.0834,0,6,6,242,1,,,603f6ea3c439b514c173633d,61b909696234a64834283cff,2021-12-14_22h14.39.046,PRaM,2021.2.3,Win32,145.0536699,61b8f3437b89212fae0dfade
5,2.9495,space,1.2501,0,7,7,144,1,,,603f6ea3c439b514c173633d,61b909696234a64834283cff,2021-12-14_22h14.39.046,PRaM,2021.2.3,Win32,145.0536699,61b8f3437b89212fae0dfade
4,9.7177,space,7.8364,0,8,8,93,1,,,603f6ea3c439b514c173633d,61b909696234a64834283cff,2021-12-14_22h14.39.046,PRaM,2021.2.3,Win32,145.0536699,61b8f3437b89212fae0dfade
3,4.903,space,3.2666,0,9,9,213,1,,,603f6ea3c439b514c173633d,61b909696234a64834283cff,2021-12-14_22h14.39.046,PRaM,2021.2.3,Win32,145.0536699,61b8f3437b89212fae0dfade
1,44.4878,space,42.6207,0,10,10,207,1,,,603f6ea3c439b514c173633d,61b909696234a64834283cff,2021-12-14_22h14.39.046,PRaM,2021.2.3,Win32,145.0536699,61b8f3437b89212fae0dfade
1,3.3337,space,1.3548,0,11,11,84,1,,,603f6ea3c439b514c173633d,61b909696234a64834283cff,2021-12-14_22h14.39.046,PRaM,2021.2.3,Win32,145.0536699,61b8f3437b89212fae0dfade
1,4.2788,space,2.6876,0,12,12,187,1,,,603f6ea3c439b514c173633d,61b909696234a64834283cff,2021-12-14_22h14.39.046,PRaM,2021.2.3,Win32,145.0536699,61b8f3437b89212fae0dfade
1,1.5796,space,0.7678,0,13,13,194,1,,,603f6ea3c439b514c173633d,61b909696234a64834283cff,2021-12-14_22h14.39.046,PRaM,2021.2.3,Win32,145.0536699,61b8f3437b89212fae0dfade
1,1.7511,space,0.1828,0,14,14,216,1,,,603f6ea3c439b514c173633d,61b909696234a64834283cff,2021-12-14_22h14.39.046,PRaM,2021.2.3,Win32,145.0536699,61b8f3437b89212fae0dfade
1,0.7619,space,0.1042,0,15,15,12,1,,,603f6ea3c439b514c173633d,61b909696234a64834283cff,2021-12-14_22h14.39.046,PRaM,2021.2.3,Win32,145.0536699,61b8f3437b89212fae0dfade
1,6.0235,space,4.2021,0,16,16,235,1,,,603f6ea3c439b514c173633d,61b909696234a64834283cff,2021-12-14_22h14.39.046,PRaM,2021.2.3,Win32,145.0536699,61b8f3437b89212fae0dfade
1,1.316,space,1.1591,0,17,17,298,1,,,603f6ea3c439b514c173633d,61b909696234a64834283cff,2021-12-14_22h14.39.046,PRaM,2021.2.3,Win32,145.0536699,61b8f3437b89212fae0dfade
1,5.5913,space,3.9513,0,18,18,157,1,,,603f6ea3c439b514c173633d,61b909696234a64834283cff,2021-12-14_22h14.39.046,PRaM,2021.2.3,Win32,145.0536699,61b8f3437b89212fae0dfade
1,34.6736,space,33.0033,0,19,19,95,1,,,603f6ea3c439b514c173633d,61b909696234a64834283cff,2021-12-14_22h14.39.046,PRaM,2021.2.3,Win32,145.0536699,61b8f3437b89212fae0dfade
1,0.8999,space,0.0826,0,20,20,316,1,,,603f6ea3c439b514c173633d,61b909696234a64834283cff,2021-12-14_22h14.39.046,PRaM,2021.2.3,Win32,145.0536699,61b8f3437b89212fae0dfade
1,0.9967,space,0.1848,0,21,21,88,1,,,603f6ea3c439b514c173633d,61b909696234a64834283cff,2021-12-14_22h14.39.046,PRaM,2021.2.3,Win32,145.0536699,61b8f3437b89212fae0dfade
5,4.8669,space,3.0836,0,22,22,319,1,,,603f6ea3c439b514c173633d,61b909696234a64834283cff,2021-12-14_22h14.39.046,PRaM,2021.2.3,Win32,145.0536699,61b8f3437b89212fae0dfade
1,3.1382,space,1.5359,0,23,23,179,1,,,603f6ea3c439b514c173633d,61b909696234a64834283cff,2021-12-14_22h14.39.046,PRaM,2021.2.3,Win32,145.0536699,61b8f3437b89212fae0dfade
1,2.0316,space,0.199,0,24,24,50,1,,,603f6ea3c439b514c173633d,61b909696234a64834283cff,2021-12-14_22h14.39.046,PRaM,2021.2.3,Win32,145.0536699,61b8f3437b89212fae0dfade
1,4.6895,space,3.0846,0,25,25,155,1,,,603f6ea3c439b514c173633d,61b909696234a64834283cff,2021-12-14_22h14.39.046,PRaM,2021.2.3,Win32,145.0536699,61b8f3437b89212fae0dfade
1,1.4033,space,0.5127,0,26,26,79,1,,,603f6ea3c439b514c173633d,61b909696234a64834283cff,2021-12-14_22h14.39.046,PRaM,2021.2.3,Win32,145.0536699,61b8f3437b89212fae0dfade
6,3.9862,space,2.4176,0,27,27,331,1,,,603f6ea3c439b514c173633d,61b909696234a64834283cff,2021-12-14_22h14.39.046,PRaM,2021.2.3,Win32,145.0536699,61b8f3437b89212fae0dfade
1,29.5507,space,27.703,0,28,28,360,1,,,603f6ea3c439b514c173633d,61b909696234a64834283cff,2021-12-14_22h14.39.046,PRaM,2021.2.3,Win32,145.0536699,61b8f3437b89212fae0dfade
1,0.5493,space,0.1699,0,29,29,42,1,,,603f6ea3c439b514c173633d,61b909696234a64834283cff,2021-12-14_22h14.39.046,PRaM,2021.2.3,Win32,145.0536699,61b8f3437b89212fae0dfade
1,1.6132,space,0.4166,0,30,30,266,1,,,603f6ea3c439b514c173633d,61b909696234a64834283cff,2021-12-14_22h14.39.046,PRaM,2021.2.3,Win32,145.0536699,61b8f3437b89212fae0dfade
1,0.6707,space,0.0653,0,31,31,349,1,,,603f6ea3c439b514c173633d,61b909696234a64834283cff,2021-12-14_22h14.39.046,PRaM,2021.2.3,Win32,145.0536699,61b8f3437b89212fae0dfade
1,1.0191,space,0.2508,0,32,32,315,1,,,603f6ea3c439b514c173633d,61b909696234a64834283cff,2021-12-14_22h14.39.046,PRaM,2021.2.3,Win32,145.0536699,61b8f3437b89212fae0dfade
1,0.8821,space,0.0441,0,33,33,173,1,,,603f6ea3c439b514c173633d,61b909696234a64834283cff,2021-12-14_22h14.39.046,PRaM,2021.2.3,Win32,145.0536699,61b8f3437b89212fae0dfade
1,0.6018,space,0.1841,0,34,34,71,1,,,603f6ea3c439b514c173633d,61b909696234a64834283cff,2021-12-14_22h14.39.046,PRaM,2021.2.3,Win32,145.0536699,61b8f3437b89212fae0dfade
1,0.6157,space,0.0347,0,35,35,181,1,,,603f6ea3c439b514c173633d,61b909696234a64834283cff,2021-12-14_22h14.39.046,PRaM,2021.2.3,Win32,145.0536699,61b8f3437b89212fae0dfade
1,6.1528,space,4.4176,0,36,36,321,1,,,603f6ea3c439b514c173633d,61b909696234a64834283cff,2021-12-14_22h14.39.046,PRaM,2021.2.3,Win32,145.0536699,61b8f3437b89212fae0dfade
1,6.6664,space,4.902,0,37,37,286,1,,,603f6ea3c439b514c173633d,61b909696234a64834283cff,2021-12-14_22h14.39.046,PRaM,2021.2.3,Win32,145.0536699,61b8f3437b89212fae0dfade
1,31.4905,space,29.8879,0,38,38,134,1,,,603f6ea3c439b514c173633d,61b909696234a64834283cff,2021-12-14_22h14.39.046,PRaM,2021.2.3,Win32,145.0536699,61b8f3437b89212fae0dfade
5,2.9501,space,1.3279,0,39,39,365,1,,,603f6ea3c439b514c173633d,61b909696234a64834283cff,2021-12-14_22h14.39.046,PRaM,2021.2.3,Win32,145.0536699,61b8f3437b89212fae0dfade
1,2.1338,space,0.4664,0,40,40,354,1,,,603f6ea3c439b514c173633d,61b909696234a64834283cff,2021-12-14_22h14.39.046,PRaM,2021.2.3,Win32,145.0536699,61b8f3437b89212fae0dfade
1,1.0173,space,0.1668,0,41,41,167,1,,,603f6ea3c439b514c173633d,61b909696234a64834283cff,2021-12-14_22h14.39.046,PRaM,2021.2.3,Win32,145.0536699,61b8f3437b89212fae0dfade
1,0.845,space,0.1985,0,42,42,226,1,,,603f6ea3c439b514c173633d,61b909696234a64834283cff,2021-12-14_22h14.39.046,PRaM,2021.2.3,Win32,145.0536699,61b8f3437b89212fae0dfade
1,0.8523,space,0.0334,0,43,43,85,1,,,603f6ea3c439b514c173633d,61b909696234a64834283cff,2021-12-14_22h14.39.046,PRaM,2021.2.3,Win32,145.0536699,61b8f3437b89212fae0dfade
1,6.524,space,4.8521,0,44,44,256,1,,,603f6ea3c439b514c173633d,61b909696234a64834283cff,2021-12-14_22h14.39.046,PRaM,2021.2.3,Win32,145.0536699,61b8f3437b89212fae0dfade
1,0.7667,space,0.0671,0,45,45,285,1,,,603f6ea3c439b514c173633d,61b909696234a64834283cff,2021-12-14_22h14.39.046,PRaM,2021.2.3,Win32,145.0536699,61b8f3437b89212fae0dfade
1,0.8285,space,0.2482,0,46,46,348,1,,,603f6ea3c439b514c173633d,61b909696234a64834283cff,2021-12-14_22h14.39.046,PRaM,2021.2.3,Win32,145.0536699,61b8f3437b89212fae0dfade
4,2.9795,space,1.3319,0,47,47,276,1,,,603f6ea3c439b514c173633d,61b909696234a64834283cff,2021-12-14_22h14.39.046,PRaM,2021.2.3,Win32,145.0536699,61b8f3437b89212fae0dfade
1,7.7749,space,6.0855,0,48,48,178,1,,,603f6ea3c439b514c173633d,61b909696234a64834283cff,2021-12-14_22h14.39.046,PRaM,2021.2.3,Win32,145.0536699,61b8f3437b89212fae0dfade
1,1.5484,space,0.5517,0,49,49,330,1,,,603f6ea3c439b514c173633d,61b909696234a64834283cff,2021-12-14_22h14.39.046,PRaM,2021.2.3,Win32,145.0536699,61b8f3437b89212fae0dfade
1,5.4173,space,3.7509,0,50,50,111,1,,,603f6ea3c439b514c173633d,61b909696234a64834283cff,2021-12-14_22h14.39.046,PRaM,2021.2.3,Win32,145.0536699,61b8f3437b89212fae0dfade
1,53.8422,space,52.171,0,51,51,142,1,,,603f6ea3c439b514c173633d,61b909696234a64834283cff,2021-12-14_22h14.39.046,PRaM,2021.2.3,Win32,145.0536699,61b8f3437b89212fae0dfade
1,8.8737,space,7.1519,0,52,52,16,1,,,603f6ea3c439b514c173633d,61b909696234a64834283cff,2021-12-14_22h14.39.046,PRaM,2021.2.3,Win32,145.0536699,61b8f3437b89212fae0dfade
1,14.7411,space,13.4211,0,53,53,271,1,,,603f6ea3c439b514c173633d,61b909696234a64834283cff,2021-12-14_22h14.39.046,PRaM,2021.2.3,Win32,145.0536699,61b8f3437b89212fae0dfade
1,1.5351,space,0.3336,0,54,54,374,1,,,603f6ea3c439b514c173633d,61b909696234a64834283cff,2021-12-14_22h14.39.046,PRaM,2021.2.3,Win32,145.0536699,61b8f3437b89212fae0dfade
1,0.7645,space,0.2025,0,55,55,26,1,,,603f6ea3c439b514c173633d,61b909696234a64834283cff,2021-12-14_22h14.39.046,PRaM,2021.2.3,Win32,145.0536699,61b8f3437b89212fae0dfade
1,0.9615,space,0.3338,0,56,56,58,1,,,603f6ea3c439b514c173633d,61b909696234a64834283cff,2021-12-14_22h14.39.046,PRaM,2021.2.3,Win32,145.0536699,61b8f3437b89212fae0dfade
1,2.3121,space,1.917,0,57,57,210,1,,,603f6ea3c439b514c173633d,61b909696234a64834283cff,2021-12-14_22h14.39.046,PRaM,2021.2.3,Win32,145.0536699,61b8f3437b89212fae0dfade
1,1.1862,space,0.217,0,58,58,217,1,,,603f6ea3c439b514c173633d,61b909696234a64834283cff,2021-12-14_22h14.39.046,PRaM,2021.2.3,Win32,145.0536699,61b8f3437b89212fae0dfade
4,2.8992,space,1.2277,0,59,59,43,1,,,603f6ea3c439b514c173633d,61b909696234a64834283cff,2021-12-14_22h14.39.046,PRaM,2021.2.3,Win32,145.0536699,61b8f3437b89212fae0dfade
1,2.2335,space,0.5493,0,60,60,345,1,,,603f6ea3c439b514c173633d,61b909696234a64834283cff,2021-12-14_22h14.39.046,PRaM,2021.2.3,Win32,145.0536699,61b8f3437b89212fae0dfade
1,4.4216,space,2.6678,0,61,61,352,1,,,603f6ea3c439b514c173633d,61b909696234a64834283cff,2021-12-14_22h14.39.046,PRaM,2021.2.3,Win32,145.0536699,61b8f3437b89212fae0dfade
1,0.7491,space,0.0983,0,62,62,188,1,,,603f6ea3c439b514c173633d,61b909696234a64834283cff,2021-12-14_22h14.39.046,PRaM,2021.2.3,Win32,145.0536699,61b8f3437b89212fae0dfade
1,12.3058,space,15.4066,0,63,63,281,1,,,603f6ea3c439b514c173633d,61b909696234a64834283cff,2021-12-14_22h14.39.046,PRaM,2021.2.3,Win32,145.0536699,61b8f3437b89212fae0dfade
1,1.4718,space,0.3336,0,64,64,248,1,,,603f6ea3c439b514c173633d,61b909696234a64834283cff,2021-12-14_22h14.39.046,PRaM,2021.2.3,Win32,145.0536699,61b8f3437b89212fae0dfade
1,0.849,space,1.1503,0,65,65,302,1,,,603f6ea3c439b514c173633d,61b909696234a64834283cff,2021-12-14_22h14.39.046,PRaM,2021.2.3,Win32,145.0536699,61b8f3437b89212fae0dfade
1,5.5058,space,3.9321,0,66,66,313,1,,,603f6ea3c439b514c173633d,61b909696234a64834283cff,2021-12-14_22h14.39.046,PRaM,2021.2.3,Win32,145.0536699,61b8f3437b89212fae0dfade
1,9.8711,space,8.2515,0,67,67,113,1,,,603f6ea3c439b514c173633d,61b909696234a64834283cff,2021-12-14_22h14.39.046,PRaM,2021.2.3,Win32,145.0536699,61b8f3437b89212fae0dfade
1,0.9018,space,0.0522,0,68,68,165,1,,,603f6ea3c439b514c173633d,61b909696234a64834283cff,2021-12-14_22h14.39.046,PRaM,2021.2.3,Win32,145.0536699,61b8f3437b89212fae0dfade
7,5.4859,space,4.1554,0,69,69,290,1,,,603f6ea3c439b514c173633d,61b909696234a64834283cff,2021-12-14_22h14.39.046,PRaM,2021.2.3,Win32,145.0536699,61b8f3437b89212fae0dfade
1,14.9373,space,13.2516,0,70,70,335,1,,,603f6ea3c439b514c173633d,61b909696234a64834283cff,2021-12-14_22h14.39.046,PRaM,2021.2.3,Win32,145.0536699,61b8f3437b89212fae0dfade
1,0.9332,space,0.214,0,71,71,250,1,,,603f6ea3c439b514c173633d,61b909696234a64834283cff,2021-12-14_22h14.39.046,PRaM,2021.2.3,Win32,145.0536699,61b8f3437b89212fae0dfade
1,0.832,space,0.332,0,72,72,274,1,,,603f6ea3c439b514c173633d,61b909696234a64834283cff,2021-12-14_22h14.39.046,PRaM,2021.2.3,Win32,145.0536699,61b8f3437b89212fae0dfade
1,1.9669,space,1.2776,0,73,73,361,1,,,603f6ea3c439b514c173633d,61b909696234a64834283cff,2021-12-14_22h14.39.046,PRaM,2021.2.3,Win32,145.0536699,61b8f3437b89212fae0dfade
1,0.9509,space,0.2846,0,74,74,176,1,,,603f6ea3c439b514c173633d,61b909696234a64834283cff,2021-12-14_22h14.39.046,PRaM,2021.2.3,Win32,145.0536699,61b8f3437b89212fae0dfade
2,3.419,space,1.6499,0,75,75,202,1,,,603f6ea3c439b514c173633d,61b909696234a64834283cff,2021-12-14_22h14.39.046,PRaM,2021.2.3,Win32,145.0536699,61b8f3437b89212fae0dfade
2,1.3153,space,0.1666,0,76,76,300,1,,,603f6ea3c439b514c173633d,61b909696234a64834283cff,2021-12-14_22h14.39.046,PRaM,2021.2.3,Win32,145.0536699,61b8f3437b89212fae0dfade
1,1.5135,space,0.2988,0,77,77,101,1,,,603f6ea3c439b514c173633d,61b909696234a64834283cff,2021-12-14_22h14.39.046,PRaM,2021.2.3,Win32,145.0536699,61b8f3437b89212fae0dfade
1,0.8806,space,0.1819,0,78,78,253,1,,,603f6ea3c439b514c173633d,61b909696234a64834283cff,2021-12-14_22h14.39.046,PRaM,2021.2.3,Win32,145.0536699,61b8f3437b89212fae0dfade
1,0.8311,space,0.3539,0,79,79,299,1,,,603f6ea3c439b514c173633d,61b909696234a64834283cff,2021-12-14_22h14.39.046,PRaM,2021.2.3,Win32,145.0536699,61b8f3437b89212fae0dfade
1,1.096,space,0.2702,0,80,80,169,1,,,603f6ea3c439b514c173633d,61b909696234a64834283cff,2021-12-14_22h14.39.046,PRaM,2021.2.3,Win32,145.0536699,61b8f3437b89212fae0dfade
1,1.1632,space,36.1824,0,81,81,3,1,,,603f6ea3c439b514c173633d,61b909696234a64834283cff,2021-12-14_22h14.39.046,PRaM,2021.2.3,Win32,145.0536699,61b8f3437b89212fae0dfade
1,1.4441,space,0.1966,0,82,82,238,1,,,603f6ea3c439b514c173633d,61b909696234a64834283cff,2021-12-14_22h14.39.046,PRaM,2021.2.3,Win32,145.0536699,61b8f3437b89212fae0dfade
1,0.853,space,0.1022,0,83,83,61,1,,,603f6ea3c439b514c173633d,61b909696234a64834283cff,2021-12-14_22h14.39.046,PRaM,2021.2.3,Win32,145.0536699,61b8f3437b89212fae0dfade
1,1.7328,space,0.1519,0,84,84,259,1,,,603f6ea3c439b514c173633d,61b909696234a64834283cff,2021-12-14_22h14.39.046,PRaM,2021.2.3,Win32,145.0536699,61b8f3437b89212fae0dfade
7,2.9989,space,1.5454,0,85,85,288,1,,,603f6ea3c439b514c173633d,61b909696234a64834283cff,2021-12-14_22h14.39.046,PRaM,2021.2.3,Win32,145.0536699,61b8f3437b89212fae0dfade
1,2.2997,space,0.8504,0,86,86,51,1,,,603f6ea3c439b514c173633d,61b909696234a64834283cff,2021-12-14_22h14.39.046,PRaM,2021.2.3,Win32,145.0536699,61b8f3437b89212fae0dfade
1,4.9725,space,3.5202,0,87,87,170,1,,,603f6ea3c439b514c173633d,61b909696234a64834283cff,2021-12-14_22h14.39.046,PRaM,2021.2.3,Win32,145.0536699,61b8f3437b89212fae0dfade
1,1.1656,space,0.2952,0,88,88,310,1,,,603f6ea3c439b514c173633d,61b909696234a64834283cff,2021-12-14_22h14.39.046,PRaM,2021.2.3,Win32,145.0536699,61b8f3437b89212fae0dfade
1,0.7807,space,0.2505,0,89,89,89,1,,,603f6ea3c439b514c173633d,61b909696234a64834283cff,2021-12-14_22h14.39.046,PRaM,2021.2.3,Win32,145.0536699,61b8f3437b89212fae0dfade
1,1.1813,space,0.4349,0,90,90,37,1,,,603f6ea3c439b514c173633d,61b909696234a64834283cff,2021-12-14_22h14.39.046,PRaM,2021.2.3,Win32,145.0536699,61b8f3437b89212fae0dfade
1,15.2092,space,13.6011,0,91,91,17,1,,,603f6ea3c439b514c173633d,61b909696234a64834283cff,2021-12-14_22h14.39.046,PRaM,2021.2.3,Win32,145.0536699,61b8f3437b89212fae0dfade
1,0.7487,space,0.1006,0,92,92,31,1,,,603f6ea3c439b514c173633d,61b909696234a64834283cff,2021-12-14_22h14.39.046,PRaM,2021.2.3,Win32,145.0536699,61b8f3437b89212fae0dfade
1,1.1497,space,0.8038,0,93,93,41,1,,,603f6ea3c439b514c173633d,61b909696234a64834283cff,2021-12-14_22h14.39.046,PRaM,2021.2.3,Win32,145.0536699,61b8f3437b89212fae0dfade
1,58.5166,space,57.0544,0,94,94,318,1,,,603f6ea3c439b514c173633d,61b909696234a64834283cff,2021-12-14_22h14.39.046,PRaM,2021.2.3,Win32,145.0536699,61b8f3437b89212fae0dfade
5,2.1516,space,0.7231,0,95,95,317,1,,,603f6ea3c439b514c173633d,61b909696234a64834283cff,2021-12-14_22h14.39.046,PRaM,2021.2.3,Win32,145.0536699,61b8f3437b89212fae0dfade
1,1.8696,space,0.2507,0,96,96,65,1,,,603f6ea3c439b514c173633d,61b909696234a64834283cff,2021-12-14_22h14.39.046,PRaM,2021.2.3,Win32,145.0536699,61b8f3437b89212fae0dfade
1,0.9498,space,0.2632,0,97,97,15,1,,,603f6ea3c439b514c173633d,61b909696234a64834283cff,2021-12-14_22h14.39.046,PRaM,2021.2.3,Win32,145.0536699,61b8f3437b89212fae0dfade
1,1.9508,space,0.2874,0,98,98,40,1,,,603f6ea3c439b514c173633d,61b909696234a64834283cff,2021-12-14_22h14.39.046,PRaM,2021.2.3,Win32,145.0536699,61b8f3437b89212fae0dfade
1,1.3432,space,0.1671,0,99,99,208,1,,,603f6ea3c439b514c173633d,61b909696234a64834283cff,2021-12-14_22h14.39.046,PRaM,2021.2.3,Win32,145.0536699,61b8f3437b89212fae0dfade
1,0.7625,space,0.2842,0,100,100,44,1,,,603f6ea3c439b514c173633d,61b909696234a64834283cff,2021-12-14_22h14.39.046,PRaM,2021.2.3,Win32,145.0536699,61b8f3437b89212fae0dfade
5,2.1999,space,0.5502,0,101,101,64,1,,,603f6ea3c439b514c173633d,61b909696234a64834283cff,2021-12-14_22h14.39.046,PRaM,2021.2.3,Win32,145.0536699,61b8f3437b89212fae0dfade
1,3.0884,space,1.4822,0,102,102,370,1,,,603f6ea3c439b514c173633d,61b909696234a64834283cff,2021-12-14_22h14.39.046,PRaM,2021.2.3,Win32,145.0536699,61b8f3437b89212fae0dfade
1,1.3976,space,0.2686,0,103,103,212,1,,,603f6ea3c439b514c173633d,61b909696234a64834283cff,2021-12-14_22h14.39.046,PRaM,2021.2.3,Win32,145.0536699,61b8f3437b89212fae0dfade
1,1.2814,space,0.2007,0,104,104,108,1,,,603f6ea3c439b514c173633d,61b909696234a64834283cff,2021-12-14_22h14.39.046,PRaM,2021.2.3,Win32,145.0536699,61b8f3437b89212fae0dfade
1,0.8057,space,0.2013,0,105,105,124,1,,,603f6ea3c439b514c173633d,61b909696234a64834283cff,2021-12-14_22h14.39.046,PRaM,2021.2.3,Win32,145.0536699,61b8f3437b89212fae0dfade
6,5.9157,space,4.4179,0,106,106,344,1,,,603f6ea3c439b514c173633d,61b909696234a64834283cff,2021-12-14_22h14.39.046,PRaM,2021.2.3,Win32,145.0536699,61b8f3437b89212fae0dfade
2,5.1001,space,3.435,0,107,107,280,1,,,603f6ea3c439b514c173633d,61b909696234a64834283cff,2021-12-14_22h14.39.046,PRaM,2021.2.3,Win32,145.0536699,61b8f3437b89212fae0dfade
1,1.9527,space,0.3639,0,108,108,35,1,,,603f6ea3c439b514c173633d,61b909696234a64834283cff,2021-12-14_22h14.39.046,PRaM,2021.2.3,Win32,145.0536699,61b8f3437b89212fae0dfade
1,0.7088,space,0.0515,0,109,109,121,1,,,603f6ea3c439b514c173633d,61b909696234a64834283cff,2021-12-14_22h14.39.046,PRaM,2021.2.3,Win32,145.0536699,61b8f3437b89212fae0dfade
7,30.2008,space,28.6559,0,110,110,75,1,,,603f6ea3c439b514c173633d,61b909696234a64834283cff,2021-12-14_22h14.39.046,PRaM,2021.2.3,Win32,145.0536699,61b8f3437b89212fae0dfade
1,2.3466,space,0.7797,0,111,111,221,1,,,603f6ea3c439b514c173633d,61b909696234a64834283cff,2021-12-14_22h14.39.046,PRaM,2021.2.3,Win32,145.0536699,61b8f3437b89212fae0dfade
1,3.0053,space,1.3839,0,112,112,8,1,,,603f6ea3c439b514c173633d,61b909696234a64834283cff,2021-12-14_22h14.39.046,PRaM,2021.2.3,Win32,145.0536699,61b8f3437b89212fae0dfade
1,59.8274,space,58.2061,0,113,113,272,1,,,603f6ea3c439b514c173633d,61b909696234a64834283cff,2021-12-14_22h14.39.046,PRaM,2021.2.3,Win32,145.0536699,61b8f3437b89212fae0dfade
1,0.8143,space,0.1661,0,114,114,225,1,,,603f6ea3c439b514c173633d,61b909696234a64834283cff,2021-12-14_22h14.39.046,PRaM,2021.2.3,Win32,145.0536699,61b8f3437b89212fae0dfade
6,3.0776,space,1.4469,0,115,115,135,1,,,603f6ea3c439b514c173633d,61b909696234a64834283cff,2021-12-14_22h14.39.046,PRaM,2021.2.3,Win32,145.0536699,61b8f3437b89212fae0dfade
1,3.5685,space,2.2024,0,116,116,109,1,,,603f6ea3c439b514c173633d,61b909696234a64834283cff,2021-12-14_22h14.39.046,PRaM,2021.2.3,Win32,145.0536699,61b8f3437b89212fae0dfade
1,1.1057,space,0.1003,0,117,117,14,1,,,603f6ea3c439b514c173633d,61b909696234a64834283cff,2021-12-14_22h14.39.046,PRaM,2021.2.3,Win32,145.0536699,61b8f3437b89212fae0dfade
1,6.8914,space,9.9356,0,118,118,148,1,,,603f6ea3c439b514c173633d,61b909696234a64834283cff,2021-12-14_22h14.39.046,PRaM,2021.2.3,Win32,145.0536699,61b8f3437b89212fae0dfade
1,1.643,space,0.3144,0,119,119,287,1,,,603f6ea3c439b514c173633d,61b909696234a64834283cff,2021-12-14_22h14.39.046,PRaM,2021.2.3,Win32,145.0536699,61b8f3437b89212fae0dfade
4,4.4236,space,2.7488,0,120,120,73,1,,,603f6ea3c439b514c173633d,61b909696234a64834283cff,2021-12-14_22h14.39.046,PRaM,2021.2.3,Win32,145.0536699,61b8f3437b89212fae0dfade
1,6.1364,space,4.4841,0,121,121,107,1,,,603f6ea3c439b514c173633d,61b909696234a64834283cff,2021-12-14_22h14.39.046,PRaM,2021.2.3,Win32,145.0536699,61b8f3437b89212fae0dfade
1,155.8651,space,165.328,0,122,122,123,1,,,603f6ea3c439b514c173633d,61b909696234a64834283cff,2021-12-14_22h14.39.046,PRaM,2021.2.3,Win32,145.0536699,61b8f3437b89212fae0dfade
1,1.6436,space,57.6377,0,123,123,293,1,,,603f6ea3c439b514c173633d,61b909696234a64834283cff,2021-12-14_22h14.39.046,PRaM,2021.2.3,Win32,145.0536699,61b8f3437b89212fae0dfade
1,7.6652,space,20.3988,0,124,124,154,1,,,603f6ea3c439b514c173633d,61b909696234a64834283cff,2021-12-14_22h14.39.046,PRaM,2021.2.3,Win32,145.0536699,61b8f3437b89212fae0dfade
1,1.7109,space,19.3031,0,125,125,362,1,,,603f6ea3c439b514c173633d,61b909696234a64834283cff,2021-12-14_22h14.39.046,PRaM,2021.2.3,Win32,145.0536699,61b8f3437b89212fae0dfade
1,3.024,space,2.2005,0,126,126,7,1,,,603f6ea3c439b514c173633d,61b909696234a64834283cff,2021-12-14_22h14.39.046,PRaM,2021.2.3,Win32,145.0536699,61b8f3437b89212fae0dfade
1,1.5664,space,0.2515,0,127,127,114,1,,,603f6ea3c439b514c173633d,61b909696234a64834283cff,2021-12-14_22h14.39.046,PRaM,2021.2.3,Win32,145.0536699,61b8f3437b89212fae0dfade
1,1.5322,space,0.3337,0,128,128,138,1,,,603f6ea3c439b514c173633d,61b909696234a64834283cff,2021-12-14_22h14.39.046,PRaM,2021.2.3,Win32,145.0536699,61b8f3437b89212fae0dfade
1,1.2329,space,2.2835,0,129,129,201,1,,,603f6ea3c439b514c173633d,61b909696234a64834283cff,2021-12-14_22h14.39.046,PRaM,2021.2.3,Win32,145.0536699,61b8f3437b89212fae0dfade
1,1.1006,space,0.3006,0,130,130,116,1,,,603f6ea3c439b514c173633d,61b909696234a64834283cff,2021-12-14_22h14.39.046,PRaM,2021.2.3,Win32,145.0536699,61b8f3437b89212fae0dfade
1,1.1164,space,0.1336,0,131,131,351,1,,,603f6ea3c439b514c173633d,61b909696234a64834283cff,2021-12-14_22h14.39.046,PRaM,2021.2.3,Win32,145.0536699,61b8f3437b89212fae0dfade
5,3.1838,space,1.5851,0,132,132,59,1,,,603f6ea3c439b514c173633d,61b909696234a64834283cff,2021-12-14_22h14.39.046,PRaM,2021.2.3,Win32,145.0536699,61b8f3437b89212fae0dfade
1,25.7075,space,30.3864,0,133,133,171,1,,,603f6ea3c439b514c173633d,61b909696234a64834283cff,2021-12-14_22h14.39.046,PRaM,2021.2.3,Win32,145.0536699,61b8f3437b89212fae0dfade
1,1.6266,space,3.5333,0,134,134,278,1,,,603f6ea3c439b514c173633d,61b909696234a64834283cff,2021-12-14_22h14.39.046,PRaM,2021.2.3,Win32,145.0536699,61b8f3437b89212fae0dfade
1,1.9613,space,2.0145,0,135,135,18,1,,,603f6ea3c439b514c173633d,61b909696234a64834283cff,2021-12-14_22h14.39.046,PRaM,2021.2.3,Win32,145.0536699,61b8f3437b89212fae0dfade
1,1.564,space,4.7665,0,136,136,251,1,,,603f6ea3c439b514c173633d,61b909696234a64834283cff,2021-12-14_22h14.39.046,PRaM,2021.2.3,Win32,145.0536699,61b8f3437b89212fae0dfade
1,1.4462,space,0.5003,0,137,137,33,1,,,603f6ea3c439b514c173633d,61b909696234a64834283cff,2021-12-14_22h14.39.046,PRaM,2021.2.3,Win32,145.0536699,61b8f3437b89212fae0dfade
1,1.0664,space,0.5344,0,138,138,11,1,,,603f6ea3c439b514c173633d,61b909696234a64834283cff,2021-12-14_22h14.39.046,PRaM,2021.2.3,Win32,145.0536699,61b8f3437b89212fae0dfade
1,1.282,space,20.9677,0,139,139,363,1,,,603f6ea3c439b514c173633d,61b909696234a64834283cff,2021-12-14_22h14.39.046,PRaM,2021.2.3,Win32,145.0536699,61b8f3437b89212fae0dfade
1,3.1254,space,4.6828,0,140,140,376,1,,,603f6ea3c439b514c173633d,61b909696234a64834283cff,2021-12-14_22h14.39.046,PRaM,2021.2.3,Win32,145.0536699,61b8f3437b89212fae0dfade
1,1.3614,space,0.0519,0,141,141,168,1,,,603f6ea3c439b514c173633d,61b909696234a64834283cff,2021-12-14_22h14.39.046,PRaM,2021.2.3,Win32,145.0536699,61b8f3437b89212fae0dfade
1,2.332,space,3.1833,0,142,142,228,1,,,603f6ea3c439b514c173633d,61b909696234a64834283cff,2021-12-14_22h14.39.046,PRaM,2021.2.3,Win32,145.0536699,61b8f3437b89212fae0dfade
1,1.164,space,0.3006,0,143,143,97,1,,,603f6ea3c439b514c173633d,61b909696234a64834283cff,2021-12-14_22h14.39.046,PRaM,2021.2.3,Win32,145.0536699,61b8f3437b89212fae0dfade
1,0.9052,space,0.3989,0,144,144,183,1,,,603f6ea3c439b514c173633d,61b909696234a64834283cff,2021-12-14_22h14.39.046,PRaM,2021.2.3,Win32,145.0536699,61b8f3437b89212fae0dfade
1,0.9678,space,0.0706,0,145,145,98,1,,,603f6ea3c439b514c173633d,61b909696234a64834283cff,2021-12-14_22h14.39.046,PRaM,2021.2.3,Win32,145.0536699,61b8f3437b89212fae0dfade
1,1.4798,space,0.1167,0,146,146,227,1,,,603f6ea3c439b514c173633d,61b909696234a64834283cff,2021-12-14_22h14.39.046,PRaM,2021.2.3,Win32,145.0536699,61b8f3437b89212fae0dfade
1,2.7832,space,1.3838,0,147,147,63,1,,,603f6ea3c439b514c173633d,61b909696234a64834283cff,2021-12-14_22h14.39.046,PRaM,2021.2.3,Win32,145.0536699,61b8f3437b89212fae0dfade
1,2.0833,space,1.2376,0,148,148,367,1,,,603f6ea3c439b514c173633d,61b909696234a64834283cff,2021-12-14_22h14.39.046,PRaM,2021.2.3,Win32,145.0536699,61b8f3437b89212fae0dfade
1,1.5454,space,0.2783,0,149,149,307,1,,,603f6ea3c439b514c173633d,61b909696234a64834283cff,2021-12-14_22h14.39.046,PRaM,2021.2.3,Win32,145.0536699,61b8f3437b89212fae0dfade
1,1.598,space,4.1486,0,150,150,332,1,,,603f6ea3c439b514c173633d,61b909696234a64834283cff,2021-12-14_22h14.39.046,PRaM,2021.2.3,Win32,145.0536699,61b8f3437b89212fae0dfade
1,2.8793,space,1.3184,0,151,151,353,1,,,603f6ea3c439b514c173633d,61b909696234a64834283cff,2021-12-14_22h14.39.046,PRaM,2021.2.3,Win32,145.0536699,61b8f3437b89212fae0dfade
1,1.2487,space,0.1669,0,152,152,260,1,,,603f6ea3c439b514c173633d,61b909696234a64834283cff,2021-12-14_22h14.39.046,PRaM,2021.2.3,Win32,145.0536699,61b8f3437b89212fae0dfade
1,13.4592,space,11.8004,0,153,153,364,1,,,603f6ea3c439b514c173633d,61b909696234a64834283cff,2021-12-14_22h14.39.046,PRaM,2021.2.3,Win32,145.0536699,61b8f3437b89212fae0dfade
1,1.2329,space,0.1507,0,154,154,233,1,,,603f6ea3c439b514c173633d,61b909696234a64834283cff,2021-12-14_22h14.39.046,PRaM,2021.2.3,Win32,145.0536699,61b8f3437b89212fae0dfade
1,0.7165,space,0.2825,0,155,155,69,1,,,603f6ea3c439b514c173633d,61b909696234a64834283cff,2021-12-14_22h14.39.046,PRaM,2021.2.3,Win32,145.0536699,61b8f3437b89212fae0dfade
1,3.3885,space,2.1379,0,156,156,295,1,,,603f6ea3c439b514c173633d,61b909696234a64834283cff,2021-12-14_22h14.39.046,PRaM,2021.2.3,Win32,145.0536699,61b8f3437b89212fae0dfade
1,18.0187,space,17.2029,0,157,157,184,1,,,603f6ea3c439b514c173633d,61b909696234a64834283cff,2021-12-14_22h14.39.046,PRaM,2021.2.3,Win32,145.0536699,61b8f3437b89212fae0dfade
1,1.4489,space,0.3188,0,158,158,350,1,,,603f6ea3c439b514c173633d,61b909696234a64834283cff,2021-12-14_22h14.39.046,PRaM,2021.2.3,Win32,145.0536699,61b8f3437b89212fae0dfade
1,137.3745,space,135.7089,0,159,159,122,1,,,603f6ea3c439b514c173633d,61b909696234a64834283cff,2021-12-14_22h14.39.046,PRaM,2021.2.3,Win32,145.0536699,61b8f3437b89212fae0dfade
1,1.3514,space,0.2376,0,160,160,371,1,,,603f6ea3c439b514c173633d,61b909696234a64834283cff,2021-12-14_22h14.39.046,PRaM,2021.2.3,Win32,145.0536699,61b8f3437b89212fae0dfade
1,0.5823,space,0.232,0,161,161,195,1,,,603f6ea3c439b514c173633d,61b909696234a64834283cff,2021-12-14_22h14.39.046,PRaM,2021.2.3,Win32,145.0536699,61b8f3437b89212fae0dfade
1,0.485,space,0.0448,0,162,162,198,1,,,603f6ea3c439b514c173633d,61b909696234a64834283cff,2021-12-14_22h14.39.046,PRaM,2021.2.3,Win32,145.0536699,61b8f3437b89212fae0dfade
1,1.5189,space,0.3662,0,163,163,284,1,,,603f6ea3c439b514c173633d,61b909696234a64834283cff,2021-12-14_22h14.39.046,PRaM,2021.2.3,Win32,145.0536699,61b8f3437b89212fae0dfade
1,20.105,space,18.8023,0,164,164,87,1,,,603f6ea3c439b514c173633d,61b909696234a64834283cff,2021-12-14_22h14.39.046,PRaM,2021.2.3,Win32,145.0536699,61b8f3437b89212fae0dfade
1,2.9861,space,1.4161,0,165,165,306,1,,,603f6ea3c439b514c173633d,61b909696234a64834283cff,2021-12-14_22h14.39.046,PRaM,2021.2.3,Win32,145.0536699,61b8f3437b89212fae0dfade
1,2.1319,space,0.551,0,166,166,47,1,,,603f6ea3c439b514c173633d,61b909696234a64834283cff,2021-12-14_22h14.39.046,PRaM,2021.2.3,Win32,145.0536699,61b8f3437b89212fae0dfade
1,1.213,space,0.0683,0,167,167,196,1,,,603f6ea3c439b514c173633d,61b909696234a64834283cff,2021-12-14_22h14.39.046,PRaM,2021.2.3,Win32,145.0536699,61b8f3437b89212fae0dfade
1,1.1516,space,0.0311,0,168,168,67,1,,,603f6ea3c439b514c173633d,61b909696234a64834283cff,2021-12-14_22h14.39.046,PRaM,2021.2.3,Win32,145.0536699,61b8f3437b89212fae0dfade
1,0.9677,space,0.2995,0,169,169,94,1,,,603f6ea3c439b514c173633d,61b909696234a64834283cff,2021-12-14_22h14.39.046,PRaM,2021.2.3,Win32,145.0536699,61b8f3437b89212fae0dfade
1,0.6858,space,0.0789,0,170,170,304,1,,,603f6ea3c439b514c173633d,61b909696234a64834283cff,2021-12-14_22h14.39.046,PRaM,2021.2.3,Win32,145.0536699,61b8f3437b89212fae0dfade
1,0.5194,space,0.4135,0,171,171,152,1,,,603f6ea3c439b514c173633d,61b909696234a64834283cff,2021-12-14_22h14.39.046,PRaM,2021.2.3,Win32,145.0536699,61b8f3437b89212fae0dfade
7,4.9166,space,3.7342,0,172,172,320,1,,,603f6ea3c439b514c173633d,61b909696234a64834283cff,2021-12-14_22h14.39.046,PRaM,2021.2.3,Win32,145.0536699,61b8f3437b89212fae0dfade
1,30.1021,space,30.352,0,173,173,200,1,,,603f6ea3c439b514c173633d,61b909696234a64834283cff,2021-12-14_22h14.39.046,PRaM,2021.2.3,Win32,145.0536699,61b8f3437b89212fae0dfade
1,1.1019,space,1.0653,0,174,174,211,1,,,603f6ea3c439b514c173633d,61b909696234a64834283cff,2021-12-14_22h14.39.046,PRaM,2021.2.3,Win32,145.0536699,61b8f3437b89212fae0dfade
1,1.4337,space,0.4179,0,175,175,292,1,,,603f6ea3c439b514c173633d,61b909696234a64834283cff,2021-12-14_22h14.39.046,PRaM,2021.2.3,Win32,145.0536699,61b8f3437b89212fae0dfade
1,2.7695,space,1.819,0,176,176,149,1,,,603f6ea3c439b514c173633d,61b909696234a64834283cff,2021-12-14_22h14.39.046,PRaM,2021.2.3,Win32,145.0536699,61b8f3437b89212fae0dfade
1,1.1657,space,1.3685,0,177,177,275,1,,,603f6ea3c439b514c173633d,61b909696234a64834283cff,2021-12-14_22h14.39.046,PRaM,2021.2.3,Win32,145.0536699,61b8f3437b89212fae0dfade
1,0.9646,space,3.4658,0,178,178,159,1,,,603f6ea3c439b514c173633d,61b909696234a64834283cff,2021-12-14_22h14.39.046,PRaM,2021.2.3,Win32,145.0536699,61b8f3437b89212fae0dfade
1,23.3634,space,21.869,0,179,179,105,1,,,603f6ea3c439b514c173633d,61b909696234a64834283cff,2021-12-14_22h14.39.046,PRaM,2021.2.3,Win32,145.0536699,61b8f3437b89212fae0dfade
1,1.7166,space,0.7983,0,180,180,240,1,,,603f6ea3c439b514c173633d,61b909696234a64834283cff,2021-12-14_22h14.39.046,PRaM,2021.2.3,Win32,145.0536699,61b8f3437b89212fae0dfade
1,2.0971,space,0.484,0,181,181,220,1,,,603f6ea3c439b514c173633d,61b909696234a64834283cff,2021-12-14_22h14.39.046,PRaM,2021.2.3,Win32,145.0536699,61b8f3437b89212fae0dfade
1,1.2523,space,1.9034,0,182,182,301,1,,,603f6ea3c439b514c173633d,61b909696234a64834283cff,2021-12-14_22h14.39.046,PRaM,2021.2.3,Win32,145.0536699,61b8f3437b89212fae0dfade
1,0.8006,space,0.3329,0,183,183,358,1,,,603f6ea3c439b514c173633d,61b909696234a64834283cff,2021-12-14_22h14.39.046,PRaM,2021.2.3,Win32,145.0536699,61b8f3437b89212fae0dfade
1,0.6523,space,0.0496,0,184,184,243,1,,,603f6ea3c439b514c173633d,61b909696234a64834283cff,2021-12-14_22h14.39.046,PRaM,2021.2.3,Win32,145.0536699,61b8f3437b89212fae0dfade
7,2.849,space,1.0358,0,185,185,158,1,,,603f6ea3c439b514c173633d,61b909696234a64834283cff,2021-12-14_22h14.39.046,PRaM,2021.2.3,Win32,145.0536699,61b8f3437b89212fae0dfade
7,2.0464,space,0.4673,0,186,186,297,1,,,603f6ea3c439b514c173633d,61b909696234a64834283cff,2021-12-14_22h14.39.046,PRaM,2021.2.3,Win32,145.0536699,61b8f3437b89212fae0dfade
1,1.9489,space,1.4635,0,187,187,160,1,,,603f6ea3c439b514c173633d,61b909696234a64834283cff,2021-12-14_22h14.39.046,PRaM,2021.2.3,Win32,145.0536699,61b8f3437b89212fae0dfade
1,46.6407,space,45.1201,0,188,188,146,1,,,603f6ea3c439b514c173633d,61b909696234a64834283cff,2021-12-14_22h14.39.046,PRaM,2021.2.3,Win32,145.0536699,61b8f3437b89212fae0dfade
1,1.4664,space,0.3191,0,189,189,13,1,,,603f6ea3c439b514c173633d,61b909696234a64834283cff,2021-12-14_22h14.39.046,PRaM,2021.2.3,Win32,145.0536699,61b8f3437b89212fae0dfade
1,0.631,space,0.0005,0,190,190,99,1,,,603f6ea3c439b514c173633d,61b909696234a64834283cff,2021-12-14_22h14.39.046,PRaM,2021.2.3,Win32,145.0536699,61b8f3437b89212fae0dfade
4,2.1813,space,0.4811,0,191,191,252,1,,,603f6ea3c439b514c173633d,61b909696234a64834283cff,2021-12-14_22h14.39.046,PRaM,2021.2.3,Win32,145.0536699,61b8f3437b89212fae0dfade
9,2.9728,space,1.2834,0,192,192,137,1,,,603f6ea3c439b514c173633d,61b909696234a64834283cff,2021-12-14_22h14.39.046,PRaM,2021.2.3,Win32,145.0536699,61b8f3437b89212fae0dfade
5,2.8979,space,1.2779,0,193,193,236,1,,,603f6ea3c439b514c173633d,61b909696234a64834283cff,2021-12-14_22h14.39.046,PRaM,2021.2.3,Win32,145.0536699,61b8f3437b89212fae0dfade
1,1.1983,space,0.1014,0,194,194,10,1,,,603f6ea3c439b514c173633d,61b909696234a64834283cff,2021-12-14_22h14.39.046,PRaM,2021.2.3,Win32,145.0536699,61b8f3437b89212fae0dfade
1,49.5708,space,47.954,0,195,195,244,1,,,603f6ea3c439b514c173633d,61b909696234a64834283cff,2021-12-14_22h14.39.046,PRaM,2021.2.3,Win32,145.0536699,61b8f3437b89212fae0dfade
1,1.2497,space,0.1313,0,196,196,129,1,,,603f6ea3c439b514c173633d,61b909696234a64834283cff,2021-12-14_22h14.39.046,PRaM,2021.2.3,Win32,145.0536699,61b8f3437b89212fae0dfade
1,1.6817,space,1.6845,0,197,197,72,1,,,603f6ea3c439b514c173633d,61b909696234a64834283cff,2021-12-14_22h14.39.046,PRaM,2021.2.3,Win32,145.0536699,61b8f3437b89212fae0dfade
1,1.3359,space,0.3782,0,198,198,214,1,,,603f6ea3c439b514c173633d,61b909696234a64834283cff,2021-12-14_22h14.39.046,PRaM,2021.2.3,Win32,145.0536699,61b8f3437b89212fae0dfade
1,1.1319,space,0.0675,0,199,199,83,1,,,603f6ea3c439b514c173633d,61b909696234a64834283cff,2021-12-14_22h14.39.046,PRaM,2021.2.3,Win32,145.0536699,61b8f3437b89212fae0dfade
1,1.1842,space,0.0684,0,200,200,355,1,,,603f6ea3c439b514c173633d,61b909696234a64834283cff,2021-12-14_22h14.39.046,PRaM,2021.2.3,Win32,145.0536699,61b8f3437b89212fae0dfade
1,1.383,space,0.1041,0,201,201,324,1,,,603f6ea3c439b514c173633d,61b909696234a64834283cff,2021-12-14_22h14.39.046,PRaM,2021.2.3,Win32,145.0536699,61b8f3437b89212fae0dfade
1,1.3118,space,0.1135,0,202,202,329,1,,,603f6ea3c439b514c173633d,61b909696234a64834283cff,2021-12-14_22h14.39.046,PRaM,2021.2.3,Win32,145.0536699,61b8f3437b89212fae0dfade
1,0.8325,space,0.1022,0,203,203,257,1,,,603f6ea3c439b514c173633d,61b909696234a64834283cff,2021-12-14_22h14.39.046,PRaM,2021.2.3,Win32,145.0536699,61b8f3437b89212fae0dfade
1,33.4355,space,31.8707,0,204,204,328,1,,,603f6ea3c439b514c173633d,61b909696234a64834283cff,2021-12-14_22h14.39.046,PRaM,2021.2.3,Win32,145.0536699,61b8f3437b89212fae0dfade
1,4.1834,space,2.5353,0,205,205,347,1,,,603f6ea3c439b514c173633d,61b909696234a64834283cff,2021-12-14_22h14.39.046,PRaM,2021.2.3,Win32,145.0536699,61b8f3437b89212fae0dfade
1,1.3508,space,0.2148,0,206,206,118,1,,,603f6ea3c439b514c173633d,61b909696234a64834283cff,2021-12-14_22h14.39.046,PRaM,2021.2.3,Win32,145.0536699,61b8f3437b89212fae0dfade
1,1.3484,space,0.2017,0,207,207,218,1,,,603f6ea3c439b514c173633d,61b909696234a64834283cff,2021-12-14_22h14.39.046,PRaM,2021.2.3,Win32,145.0536699,61b8f3437b89212fae0dfade
1,1.5679,space,0.2997,0,208,208,322,1,,,603f6ea3c439b514c173633d,61b909696234a64834283cff,2021-12-14_22h14.39.046,PRaM,2021.2.3,Win32,145.0536699,61b8f3437b89212fae0dfade
1,33.2892,space,33.0363,0,209,209,132,1,,,603f6ea3c439b514c173633d,61b909696234a64834283cff,2021-12-14_22h14.39.046,PRaM,2021.2.3,Win32,145.0536699,61b8f3437b89212fae0dfade
1,1.351,space,0.2205,0,210,210,21,1,,,603f6ea3c439b514c173633d,61b909696234a64834283cff,2021-12-14_22h14.39.046,PRaM,2021.2.3,Win32,145.0536699,61b8f3437b89212fae0dfade
1,1.0825,space,61.0016,0,211,211,62,1,,,603f6ea3c439b514c173633d,61b909696234a64834283cff,2021-12-14_22h14.39.046,PRaM,2021.2.3,Win32,145.0536699,61b8f3437b89212fae0dfade
1,2.1109,space,0.4676,0,212,212,312,1,,,603f6ea3c439b514c173633d,61b909696234a64834283cff,2021-12-14_22h14.39.046,PRaM,2021.2.3,Win32,145.0536699,61b8f3437b89212fae0dfade
1,1.2507,space,0.7472,0,213,213,340,1,,,603f6ea3c439b514c173633d,61b909696234a64834283cff,2021-12-14_22h14.39.046,PRaM,2021.2.3,Win32,145.0536699,61b8f3437b89212fae0dfade
6,2.4667,space,0.816,0,214,214,55,1,,,603f6ea3c439b514c173633d,61b909696234a64834283cff,2021-12-14_22h14.39.046,PRaM,2021.2.3,Win32,145.0536699,61b8f3437b89212fae0dfade
1,1.0658,space,0.0503,0,215,215,103,1,,,603f6ea3c439b514c173633d,61b909696234a64834283cff,2021-12-14_22h14.39.046,PRaM,2021.2.3,Win32,145.0536699,61b8f3437b89212fae0dfade
1,1.3514,space,0.0296,0,216,216,180,1,,,603f6ea3c439b514c173633d,61b909696234a64834283cff,2021-12-14_22h14.39.046,PRaM,2021.2.3,Win32,145.0536699,61b8f3437b89212fae0dfade
1,1.2809,space,0.0839,0,217,217,76,1,,,603f6ea3c439b514c173633d,61b909696234a64834283cff,2021-12-14_22h14.39.046,PRaM,2021.2.3,Win32,145.0536699,61b8f3437b89212fae0dfade
1,9.9874,space,8.4183,0,218,218,53,1,,,603f6ea3c439b514c173633d,61b909696234a64834283cff,2021-12-14_22h14.39.046,PRaM,2021.2.3,Win32,145.0536699,61b8f3437b89212fae0dfade
1,19.3072,space,17.7034,0,219,219,102,1,,,603f6ea3c439b514c173633d,61b909696234a64834283cff,2021-12-14_22h14.39.046,PRaM,2021.2.3,Win32,145.0536699,61b8f3437b89212fae0dfade
1,1.6508,space,0.4014,0,220,220,166,1,,,603f6ea3c439b514c173633d,61b909696234a64834283cff,2021-12-14_22h14.39.046,PRaM,2021.2.3,Win32,145.0536699,61b8f3437b89212fae0dfade
1,1.4163,space,0.1825,0,221,221,175,1,,,603f6ea3c439b514c173633d,61b909696234a64834283cff,2021-12-14_22h14.39.046,PRaM,2021.2.3,Win32,145.0536699,61b8f3437b89212fae0dfade
1,1.2654,space,3.0671,0,222,222,375,1,,,603f6ea3c439b514c173633d,61b909696234a64834283cff,2021-12-14_22h14.39.046,PRaM,2021.2.3,Win32,145.0536699,61b8f3437b89212fae0dfade
1,3.3097,space,1.6628,0,223,223,57,1,,,603f6ea3c439b514c173633d,61b909696234a64834283cff,2021-12-14_22h14.39.046,PRaM,2021.2.3,Win32,145.0536699,61b8f3437b89212fae0dfade
1,0.6653,space,0.0148,0,224,224,311,1,,,603f6ea3c439b514c173633d,61b909696234a64834283cff,2021-12-14_22h14.39.046,PRaM,2021.2.3,Win32,145.0536699,61b8f3437b89212fae0dfade
1,1.4218,space,57.0523,0,225,225,120,1,,,603f6ea3c439b514c173633d,61b909696234a64834283cff,2021-12-14_22h14.39.046,PRaM,2021.2.3,Win32,145.0536699,61b8f3437b89212fae0dfade
1,1.4632,space,0.1377,0,226,226,4,1,,,603f6ea3c439b514c173633d,61b909696234a64834283cff,2021-12-14_22h14.39.046,PRaM,2021.2.3,Win32,145.0536699,61b8f3437b89212fae0dfade
1,0.581,space,0.3486,0,227,227,268,1,,,603f6ea3c439b514c173633d,61b909696234a64834283cff,2021-12-14_22h14.39.046,PRaM,2021.2.3,Win32,145.0536699,61b8f3437b89212fae0dfade
1,0.6846,space,0.2015,0,228,228,110,1,,,603f6ea3c439b514c173633d,61b909696234a64834283cff,2021-12-14_22h14.39.046,PRaM,2021.2.3,Win32,145.0536699,61b8f3437b89212fae0dfade
1,1.0659,space,0.0004,0,229,229,231,1,,,603f6ea3c439b514c173633d,61b909696234a64834283cff,2021-12-14_22h14.39.046,PRaM,2021.2.3,Win32,145.0536699,61b8f3437b89212fae0dfade
1,1.4992,space,0.1825,0,230,230,38,1,,,603f6ea3c439b514c173633d,61b909696234a64834283cff,2021-12-14_22h14.39.046,PRaM,2021.2.3,Win32,145.0536699,61b8f3437b89212fae0dfade
1,0.4986,space,0.1172,0,231,231,28,1,,,603f6ea3c439b514c173633d,61b909696234a64834283cff,2021-12-14_22h14.39.046,PRaM,2021.2.3,Win32,145.0536699,61b8f3437b89212fae0dfade
1,0.9834,space,0.1672,0,232,232,81,1,,,603f6ea3c439b514c173633d,61b909696234a64834283cff,2021-12-14_22h14.39.046,PRaM,2021.2.3,Win32,145.0536699,61b8f3437b89212fae0dfade
1,0.6508,space,0.0187,0,233,233,193,1,,,603f6ea3c439b514c173633d,61b909696234a64834283cff,2021-12-14_22h14.39.046,PRaM,2021.2.3,Win32,145.0536699,61b8f3437b89212fae0dfade
1,0.7481,space,0.0154,0,234,234,143,1,,,603f6ea3c439b514c173633d,61b909696234a64834283cff,2021-12-14_22h14.39.046,PRaM,2021.2.3,Win32,145.0536699,61b8f3437b89212fae0dfade
1,0.4162,space,0.1782,0,235,235,189,1,,,603f6ea3c439b514c173633d,61b909696234a64834283cff,2021-12-14_22h14.39.046,PRaM,2021.2.3,Win32,145.0536699,61b8f3437b89212fae0dfade
7,3.2332,space,1.6306,0,236,236,334,1,,,603f6ea3c439b514c173633d,61b909696234a64834283cff,2021-12-14_22h14.39.046,PRaM,2021.2.3,Win32,145.0536699,61b8f3437b89212fae0dfade
5,3.2312,space,10.9515,0,237,237,356,1,,,603f6ea3c439b514c173633d,61b909696234a64834283cff,2021-12-14_22h14.39.046,PRaM,2021.2.3,Win32,145.0536699,61b8f3437b89212fae0dfade
1,0.9101,space,0.1675,0,238,238,305,1,,,603f6ea3c439b514c173633d,61b909696234a64834283cff,2021-12-14_22h14.39.046,PRaM,2021.2.3,Win32,145.0536699,61b8f3437b89212fae0dfade
1,0.4814,space,0.2842,0,239,239,223,1,,,603f6ea3c439b514c173633d,61b909696234a64834283cff,2021-12-14_22h14.39.046,PRaM,2021.2.3,Win32,145.0536699,61b8f3437b89212fae0dfade
1,0.6147,space,0.111,0,240,240,6,1,,,603f6ea3c439b514c173633d,61b909696234a64834283cff,2021-12-14_22h14.39.046,PRaM,2021.2.3,Win32,145.0536699,61b8f3437b89212fae0dfade
1,19.0439,space,18.1192,0,241,241,255,1,,,603f6ea3c439b514c173633d,61b909696234a64834283cff,2021-12-14_22h14.39.046,PRaM,2021.2.3,Win32,145.0536699,61b8f3437b89212fae0dfade
1,1.5351,space,0.4491,0,242,242,139,1,,,603f6ea3c439b514c173633d,61b909696234a64834283cff,2021-12-14_22h14.39.046,PRaM,2021.2.3,Win32,145.0536699,61b8f3437b89212fae0dfade
1,1.3683,space,83.9332,0,243,243,174,1,,,603f6ea3c439b514c173633d,61b909696234a64834283cff,2021-12-14_22h14.39.046,PRaM,2021.2.3,Win32,145.0536699,61b8f3437b89212fae0dfade
1,2.8938,space,1.2719,0,244,244,127,1,,,603f6ea3c439b514c173633d,61b909696234a64834283cff,2021-12-14_22h14.39.046,PRaM,2021.2.3,Win32,145.0536699,61b8f3437b89212fae0dfade
2,3.896,space,2.0674,0,245,245,60,1,,,603f6ea3c439b514c173633d,61b909696234a64834283cff,2021-12-14_22h14.39.046,PRaM,2021.2.3,Win32,145.0536699,61b8f3437b89212fae0dfade
1,0.9324,space,0.0875,0,246,246,32,1,,,603f6ea3c439b514c173633d,61b909696234a64834283cff,2021-12-14_22h14.39.046,PRaM,2021.2.3,Win32,145.0536699,61b8f3437b89212fae0dfade
1,1.5946,space,0.2,0,247,247,86,1,,,603f6ea3c439b514c173633d,61b909696234a64834283cff,2021-12-14_22h14.39.046,PRaM,2021.2.3,Win32,145.0536699,61b8f3437b89212fae0dfade
1,0.5825,space,0.0498,0,248,248,254,1,,,603f6ea3c439b514c173633d,61b909696234a64834283cff,2021-12-14_22h14.39.046,PRaM,2021.2.3,Win32,145.0536699,61b8f3437b89212fae0dfade
1,0.4695,space,0.0989,0,249,249,190,1,,,603f6ea3c439b514c173633d,61b909696234a64834283cff,2021-12-14_22h14.39.046,PRaM,2021.2.3,Win32,145.0536699,61b8f3437b89212fae0dfade
1,1.7495,space,0.0846,0,250,250,34,1,,,603f6ea3c439b514c173633d,61b909696234a64834283cff,2021-12-14_22h14.39.046,PRaM,2021.2.3,Win32,145.0536699,61b8f3437b89212fae0dfade
1,35.4711,space,40.6196,0,251,251,205,1,,,603f6ea3c439b514c173633d,61b909696234a64834283cff,2021-12-14_22h14.39.046,PRaM,2021.2.3,Win32,145.0536699,61b8f3437b89212fae0dfade
5,2.2793,space,0.7505,0,252,252,224,1,,,603f6ea3c439b514c173633d,61b909696234a64834283cff,2021-12-14_22h14.39.046,PRaM,2021.2.3,Win32,145.0536699,61b8f3437b89212fae0dfade
1,2.0815,space,3.4504,0,253,253,117,1,,,603f6ea3c439b514c173633d,61b909696234a64834283cff,2021-12-14_22h14.39.046,PRaM,2021.2.3,Win32,145.0536699,61b8f3437b89212fae0dfade
1,2.6547,space,1.017,0,254,254,279,1,,,603f6ea3c439b514c173633d,61b909696234a64834283cff,2021-12-14_22h14.39.046,PRaM,2021.2.3,Win32,145.0536699,61b8f3437b89212fae0dfade
1,1.0502,space,0.5833,0,255,255,145,1,,,603f6ea3c439b514c173633d,61b909696234a64834283cff,2021-12-14_22h14.39.046,PRaM,2021.2.3,Win32,145.0536699,61b8f3437b89212fae0dfade
1,0.4657,space,0.2841,0,256,256,185,1,,,603f6ea3c439b514c173633d,61b909696234a64834283cff,2021-12-14_22h14.39.046,PRaM,2021.2.3,Win32,145.0536699,61b8f3437b89212fae0dfade
1,0.7649,space,0.165,0,257,257,150,1,,,603f6ea3c439b514c173633d,61b909696234a64834283cff,2021-12-14_22h14.39.046,PRaM,2021.2.3,Win32,145.0536699,61b8f3437b89212fae0dfade
1,0.4998,space,0.0003,0,258,258,239,1,,,603f6ea3c439b514c173633d,61b909696234a64834283cff,2021-12-14_22h14.39.046,PRaM,2021.2.3,Win32,145.0536699,61b8f3437b89212fae0dfade
1,0.4999,space,0.1993,0,259,259,222,1,,,603f6ea3c439b514c173633d,61b909696234a64834283cff,2021-12-14_22h14.39.046,PRaM,2021.2.3,Win32,145.0536699,61b8f3437b89212fae0dfade
1,0.8661,space,0.1168,0,260,260,126,1,,,603f6ea3c439b514c173633d,61b909696234a64834283cff,2021-12-14_22h14.39.046,PRaM,2021.2.3,Win32,145.0536699,61b8f3437b89212fae0dfade
1,0.6152,space,0.3481,0,261,261,25,1,,,603f6ea3c439b514c173633d,61b909696234a64834283cff,2021-12-14_22h14.39.046,PRaM,2021.2.3,Win32,145.0536699,61b8f3437b89212fae0dfade
1,0.6165,space,0.233,0,262,262,199,1,,,603f6ea3c439b514c173633d,61b909696234a64834283cff,2021-12-14_22h14.39.046,PRaM,2021.2.3,Win32,145.0536699,61b8f3437b89212fae0dfade
1,0.5658,space,0.0171,0,263,263,342,1,,,603f6ea3c439b514c173633d,61b909696234a64834283cff,2021-12-14_22h14.39.046,PRaM,2021.2.3,Win32,145.0536699,61b8f3437b89212fae0dfade
1,0.5409,space,0.2333,0,264,264,186,1,,,603f6ea3c439b514c173633d,61b909696234a64834283cff,2021-12-14_22h14.39.046,PRaM,2021.2.3,Win32,145.0536699,61b8f3437b89212fae0dfade
6,2.866,space,1.1182,0,265,265,133,1,,,603f6ea3c439b514c173633d,61b909696234a64834283cff,2021-12-14_22h14.39.046,PRaM,2021.2.3,Win32,145.0536699,61b8f3437b89212fae0dfade
1,3.5323,space,1.783,0,266,266,22,1,,,603f6ea3c439b514c173633d,61b909696234a64834283cff,2021-12-14_22h14.39.046,PRaM,2021.2.3,Win32,145.0536699,61b8f3437b89212fae0dfade
1,4.8557,space,8.9992,0,267,267,336,1,,,603f6ea3c439b514c173633d,61b909696234a64834283cff,2021-12-14_22h14.39.046,PRaM,2021.2.3,Win32,145.0536699,61b8f3437b89212fae0dfade
1,4.5153,space,2.8678,0,268,268,164,1,,,603f6ea3c439b514c173633d,61b909696234a64834283cff,2021-12-14_22h14.39.046,PRaM,2021.2.3,Win32,145.0536699,61b8f3437b89212fae0dfade
1,0.6491,space,0.2315,0,269,269,182,1,,,603f6ea3c439b514c173633d,61b909696234a64834283cff,2021-12-14_22h14.39.046,PRaM,2021.2.3,Win32,145.0536699,61b8f3437b89212fae0dfade
1,2.8403,space,2.1513,0,270,270,372,1,,,603f6ea3c439b514c173633d,61b909696234a64834283cff,2021-12-14_22h14.39.046,PRaM,2021.2.3,Win32,145.0536699,61b8f3437b89212fae0dfade
1,3.282,space,1.7484,0,271,271,45,1,,,603f6ea3c439b514c173633d,61b909696234a64834283cff,2021-12-14_22h14.39.046,PRaM,2021.2.3,Win32,145.0536699,61b8f3437b89212fae0dfade
1,1.4156,space,0.1335,0,272,272,46,1,,,603f6ea3c439b514c173633d,61b909696234a64834283cff,2021-12-14_22h14.39.046,PRaM,2021.2.3,Win32,145.0536699,61b8f3437b89212fae0dfade
1,1.2666,space,0.3658,0,273,273,270,1,,,603f6ea3c439b514c173633d,61b909696234a64834283cff,2021-12-14_22h14.39.046,PRaM,2021.2.3,Win32,145.0536699,61b8f3437b89212fae0dfade
1,1.2668,space,0.1346,0,274,274,327,1,,,603f6ea3c439b514c173633d,61b909696234a64834283cff,2021-12-14_22h14.39.046,PRaM,2021.2.3,Win32,145.0536699,61b8f3437b89212fae0dfade
1,0.9485,space,0.2159,0,275,275,237,1,,,603f6ea3c439b514c173633d,61b909696234a64834283cff,2021-12-14_22h14.39.046,PRaM,2021.2.3,Win32,145.0536699,61b8f3437b89212fae0dfade
1,1.0841,space,6.2515,0,276,276,263,1,,,603f6ea3c439b514c173633d,61b909696234a64834283cff,2021-12-14_22h14.39.046,PRaM,2021.2.3,Win32,145.0536699,61b8f3437b89212fae0dfade
1,3.7485,space,2.0486,0,277,277,294,1,,,603f6ea3c439b514c173633d,61b909696234a64834283cff,2021-12-14_22h14.39.046,PRaM,2021.2.3,Win32,145.0536699,61b8f3437b89212fae0dfade
1,1.9321,space,2.0178,0,278,278,262,1,,,603f6ea3c439b514c173633d,61b909696234a64834283cff,2021-12-14_22h14.39.046,PRaM,2021.2.3,Win32,145.0536699,61b8f3437b89212fae0dfade
1,1.7164,space,9.4511,0,279,279,308,1,,,603f6ea3c439b514c173633d,61b909696234a64834283cff,2021-12-14_22h14.39.046,PRaM,2021.2.3,Win32,145.0536699,61b8f3437b89212fae0dfade
1,6.548,space,5.8853,0,280,280,215,1,,,603f6ea3c439b514c173633d,61b909696234a64834283cff,2021-12-14_22h14.39.046,PRaM,2021.2.3,Win32,145.0536699,61b8f3437b89212fae0dfade
1,0.7986,space,0.7339,0,281,281,277,1,,,603f6ea3c439b514c173633d,61b909696234a64834283cff,2021-12-14_22h14.39.046,PRaM,2021.2.3,Win32,145.0536699,61b8f3437b89212fae0dfade
1,1.267,space,0.0315,0,282,282,258,1,,,603f6ea3c439b514c173633d,61b909696234a64834283cff,2021-12-14_22h14.39.046,PRaM,2021.2.3,Win32,145.0536699,61b8f3437b89212fae0dfade
1,2.5825,space,1.216,0,283,283,39,1,,,603f6ea3c439b514c173633d,61b909696234a64834283cff,2021-12-14_22h14.39.046,PRaM,2021.2.3,Win32,145.0536699,61b8f3437b89212fae0dfade
1,1.5494,space,0.1337,0,284,284,74,1,,,603f6ea3c439b514c173633d,61b909696234a64834283cff,2021-12-14_22h14.39.046,PRaM,2021.2.3,Win32,145.0536699,61b8f3437b89212fae0dfade
5,2.0818,space,1.1171,0,285,285,341,1,,,603f6ea3c439b514c173633d,61b909696234a64834283cff,2021-12-14_22h14.39.046,PRaM,2021.2.3,Win32,145.0536699,61b8f3437b89212fae0dfade
1,1.1319,space,0.1836,0,286,286,5,1,,,603f6ea3c439b514c173633d,61b909696234a64834283cff,2021-12-14_22h14.39.046,PRaM,2021.2.3,Win32,145.0536699,61b8f3437b89212fae0dfade
1,0.4505,space,0.0501,0,287,287,265,1,,,603f6ea3c439b514c173633d,61b909696234a64834283cff,2021-12-14_22h14.39.046,PRaM,2021.2.3,Win32,145.0536699,61b8f3437b89212fae0dfade
1,0.483,space,0.1804,0,288,288,70,1,,,603f6ea3c439b514c173633d,61b909696234a64834283cff,2021-12-14_22h14.39.046,PRaM,2021.2.3,Win32,145.0536699,61b8f3437b89212fae0dfade
1,0.8673,space,3.4674,0,289,289,100,1,,,603f6ea3c439b514c173633d,61b909696234a64834283cff,2021-12-14_22h14.39.046,PRaM,2021.2.3,Win32,145.0536699,61b8f3437b89212fae0dfade
1,1.895,space,1.5986,0,290,290,232,1,,,603f6ea3c439b514c173633d,61b909696234a64834283cff,2021-12-14_22h14.39.046,PRaM,2021.2.3,Win32,145.0536699,61b8f3437b89212fae0dfade
1,0.6988,space,0.217,0,291,291,131,1,,,603f6ea3c439b514c173633d,61b909696234a64834283cff,2021-12-14_22h14.39.046,PRaM,2021.2.3,Win32,145.0536699,61b8f3437b89212fae0dfade
1,0.9655,space,0.101,0,292,292,36,1,,,603f6ea3c439b514c173633d,61b909696234a64834283cff,2021-12-14_22h14.39.046,PRaM,2021.2.3,Win32,145.0536699,61b8f3437b89212fae0dfade
1,0.5992,space,0.0302,0,293,293,19,1,,,603f6ea3c439b514c173633d,61b909696234a64834283cff,2021-12-14_22h14.39.046,PRaM,2021.2.3,Win32,145.0536699,61b8f3437b89212fae0dfade
1,1.5499,space,0.0003,0,294,294,23,1,,,603f6ea3c439b514c173633d,61b909696234a64834283cff,2021-12-14_22h14.39.046,PRaM,2021.2.3,Win32,145.0536699,61b8f3437b89212fae0dfade
1,0.8488,space,0.2825,0,295,295,368,1,,,603f6ea3c439b514c173633d,61b909696234a64834283cff,2021-12-14_22h14.39.046,PRaM,2021.2.3,Win32,145.0536699,61b8f3437b89212fae0dfade
1,0.5509,space,0.4848,0,296,296,163,1,,,603f6ea3c439b514c173633d,61b909696234a64834283cff,2021-12-14_22h14.39.046,PRaM,2021.2.3,Win32,145.0536699,61b8f3437b89212fae0dfade
1,1.3665,space,0.1329,0,297,297,151,1,,,603f6ea3c439b514c173633d,61b909696234a64834283cff,2021-12-14_22h14.39.046,PRaM,2021.2.3,Win32,145.0536699,61b8f3437b89212fae0dfade
1,0.6502,space,0.4512,0,298,298,112,1,,,603f6ea3c439b514c173633d,61b909696234a64834283cff,2021-12-14_22h14.39.046,PRaM,2021.2.3,Win32,145.0536699,61b8f3437b89212fae0dfade
1,1.5666,space,1.8696,0,299,299,359,1,,,603f6ea3c439b514c173633d,61b909696234a64834283cff,2021-12-14_22h14.39.046,PRaM,2021.2.3,Win32,145.0536699,61b8f3437b89212fae0dfade
1,2.7107,space,1.1991,0,300,300,20,1,,,603f6ea3c439b514c173633d,61b909696234a64834283cff,2021-12-14_22h14.39.046,PRaM,2021.2.3,Win32,145.0536699,61b8f3437b89212fae0dfade
1,2.5222,space,7.6324,0,301,301,309,1,,,603f6ea3c439b514c173633d,61b909696234a64834283cff,2021-12-14_22h14.39.046,PRaM,2021.2.3,Win32,145.0536699,61b8f3437b89212fae0dfade
1,2.6268,space,1.2012,0,302,302,296,1,,,603f6ea3c439b514c173633d,61b909696234a64834283cff,2021-12-14_22h14.39.046,PRaM,2021.2.3,Win32,145.0536699,61b8f3437b89212fae0dfade
1,1.3987,space,0.0003,0,303,303,204,1,,,603f6ea3c439b514c173633d,61b909696234a64834283cff,2021-12-14_22h14.39.046,PRaM,2021.2.3,Win32,145.0536699,61b8f3437b89212fae0dfade
1,1.4664,space,0.5846,0,304,304,369,1,,,603f6ea3c439b514c173633d,61b909696234a64834283cff,2021-12-14_22h14.39.046,PRaM,2021.2.3,Win32,145.0536699,61b8f3437b89212fae0dfade
1,1.2653,space,0.2002,0,305,305,104,1,,,603f6ea3c439b514c173633d,61b909696234a64834283cff,2021-12-14_22h14.39.046,PRaM,2021.2.3,Win32,145.0536699,61b8f3437b89212fae0dfade
1,0.5831,space,0.483,0,306,306,314,1,,,603f6ea3c439b514c173633d,61b909696234a64834283cff,2021-12-14_22h14.39.046,PRaM,2021.2.3,Win32,145.0536699,61b8f3437b89212fae0dfade
3,8.0052,space,6.3167,0,307,307,80,1,,,603f6ea3c439b514c173633d,61b909696234a64834283cff,2021-12-14_22h14.39.046,PRaM,2021.2.3,Win32,145.0536699,61b8f3437b89212fae0dfade
1,1.4504,space,2.4505,0,308,308,191,1,,,603f6ea3c439b514c173633d,61b909696234a64834283cff,2021-12-14_22h14.39.046,PRaM,2021.2.3,Win32,145.0536699,61b8f3437b89212fae0dfade
1,3.3457,space,1.6804,0,309,309,96,1,,,603f6ea3c439b514c173633d,61b909696234a64834283cff,2021-12-14_22h14.39.046,PRaM,2021.2.3,Win32,145.0536699,61b8f3437b89212fae0dfade
1,0.5008,space,0.2004,0,310,310,9,1,,,603f6ea3c439b514c173633d,61b909696234a64834283cff,2021-12-14_22h14.39.046,PRaM,2021.2.3,Win32,145.0536699,61b8f3437b89212fae0dfade
1,1.2148,space,0.0847,0,311,311,303,1,,,603f6ea3c439b514c173633d,61b909696234a64834283cff,2021-12-14_22h14.39.046,PRaM,2021.2.3,Win32,145.0536699,61b8f3437b89212fae0dfade
1,0.4984,space,8.9006,0,312,312,234,1,,,603f6ea3c439b514c173633d,61b909696234a64834283cff,2021-12-14_22h14.39.046,PRaM,2021.2.3,Win32,145.0536699,61b8f3437b89212fae0dfade
1,2.3452,space,0.7658,0,313,313,24,1,,,603f6ea3c439b514c173633d,61b909696234a64834283cff,2021-12-14_22h14.39.046,PRaM,2021.2.3,Win32,145.0536699,61b8f3437b89212fae0dfade
1,1.3175,space,0.2672,0,314,314,373,1,,,603f6ea3c439b514c173633d,61b909696234a64834283cff,2021-12-14_22h14.39.046,PRaM,2021.2.3,Win32,145.0536699,61b8f3437b89212fae0dfade
1,1.2655,space,1.5003,0,315,315,153,1,,,603f6ea3c439b514c173633d,61b909696234a64834283cff,2021-12-14_22h14.39.046,PRaM,2021.2.3,Win32,145.0536699,61b8f3437b89212fae0dfade
1,0.8495,space,0.1306,0,316,316,125,1,,,603f6ea3c439b514c173633d,61b909696234a64834283cff,2021-12-14_22h14.39.046,PRaM,2021.2.3,Win32,145.0536699,61b8f3437b89212fae0dfade
1,1.0172,space,0.0329,0,317,317,27,1,,,603f6ea3c439b514c173633d,61b909696234a64834283cff,2021-12-14_22h14.39.046,PRaM,2021.2.3,Win32,145.0536699,61b8f3437b89212fae0dfade
1,1.3328,space,0.3666,0,318,318,147,1,,,603f6ea3c439b514c173633d,61b909696234a64834283cff,2021-12-14_22h14.39.046,PRaM,2021.2.3,Win32,145.0536699,61b8f3437b89212fae0dfade
1,0.7333,space,0.3148,0,319,319,339,1,,,603f6ea3c439b514c173633d,61b909696234a64834283cff,2021-12-14_22h14.39.046,PRaM,2021.2.3,Win32,145.0536699,61b8f3437b89212fae0dfade
1,1.05,space,0.1829,0,320,320,246,1,,,603f6ea3c439b514c173633d,61b909696234a64834283cff,2021-12-14_22h14.39.046,PRaM,2021.2.3,Win32,145.0536699,61b8f3437b89212fae0dfade
1,0.7163,space,0.5657,0,321,321,291,1,,,603f6ea3c439b514c173633d,61b909696234a64834283cff,2021-12-14_22h14.39.046,PRaM,2021.2.3,Win32,145.0536699,61b8f3437b89212fae0dfade
1,0.5496,space,0.0494,0,322,322,346,1,,,603f6ea3c439b514c173633d,61b909696234a64834283cff,2021-12-14_22h14.39.046,PRaM,2021.2.3,Win32,145.0536699,61b8f3437b89212fae0dfade
4,6.4396,space,4.6837,0,323,323,366,1,,,603f6ea3c439b514c173633d,61b909696234a64834283cff,2021-12-14_22h14.39.046,PRaM,2021.2.3,Win32,145.0536699,61b8f3437b89212fae0dfade
1,4.3334,space,2.5997,0,324,324,247,1,,,603f6ea3c439b514c173633d,61b909696234a64834283cff,2021-12-14_22h14.39.046,PRaM,2021.2.3,Win32,145.0536699,61b8f3437b89212fae0dfade
2,24.2399,space,22.7519,0,325,325,229,1,,,603f6ea3c439b514c173633d,61b909696234a64834283cff,2021-12-14_22h14.39.046,PRaM,2021.2.3,Win32,145.0536699,61b8f3437b89212fae0dfade
2,0.8496,space,0.2315,0,326,326,245,1,,,603f6ea3c439b514c173633d,61b909696234a64834283cff,2021-12-14_22h14.39.046,PRaM,2021.2.3,Win32,145.0536699,61b8f3437b89212fae0dfade
5,7.2,space,5.5829,0,327,327,219,1,,,603f6ea3c439b514c173633d,61b909696234a64834283cff,2021-12-14_22h14.39.046,PRaM,2021.2.3,Win32,145.0536699,61b8f3437b89212fae0dfade
1,1.2332,space,0.8491,0,328,328,140,1,,,603f6ea3c439b514c173633d,61b909696234a64834283cff,2021-12-14_22h14.39.046,PRaM,2021.2.3,Win32,145.0536699,61b8f3437b89212fae0dfade
9,3.2667,space,1.633,0,329,329,323,1,,,603f6ea3c439b514c173633d,61b909696234a64834283cff,2021-12-14_22h14.39.046,PRaM,2021.2.3,Win32,145.0536699,61b8f3437b89212fae0dfade
1,1.9828,space,0.3471,0,330,330,49,1,,,603f6ea3c439b514c173633d,61b909696234a64834283cff,2021-12-14_22h14.39.046,PRaM,2021.2.3,Win32,145.0536699,61b8f3437b89212fae0dfade
1,0.5997,space,0.0003,0,331,331,269,1,,,603f6ea3c439b514c173633d,61b909696234a64834283cff,2021-12-14_22h14.39.046,PRaM,2021.2.3,Win32,145.0536699,61b8f3437b89212fae0dfade
1,0.7669,space,2.3172,0,332,332,192,1,,,603f6ea3c439b514c173633d,61b909696234a64834283cff,2021-12-14_22h14.39.046,PRaM,2021.2.3,Win32,145.0536699,61b8f3437b89212fae0dfade
6,2.5553,space,1.1309,0,333,333,66,1,,,603f6ea3c439b514c173633d,61b909696234a64834283cff,2021-12-14_22h14.39.046,PRaM,2021.2.3,Win32,145.0536699,61b8f3437b89212fae0dfade
1,4.0059,space,2.8306,0,334,334,91,1,,,603f6ea3c439b514c173633d,61b909696234a64834283cff,2021-12-14_22h14.39.046,PRaM,2021.2.3,Win32,145.0536699,61b8f3437b89212fae0dfade
3,2.2833,space,0.6835,0,335,335,283,1,,,603f6ea3c439b514c173633d,61b909696234a64834283cff,2021-12-14_22h14.39.046,PRaM,2021.2.3,Win32,145.0536699,61b8f3437b89212fae0dfade
1,1.6332,space,3.3487,0,336,336,128,1,,,603f6ea3c439b514c173633d,61b909696234a64834283cff,2021-12-14_22h14.39.046,PRaM,2021.2.3,Win32,145.0536699,61b8f3437b89212fae0dfade
6,3.5102,space,1.9181,0,337,337,90,1,,,603f6ea3c439b514c173633d,61b909696234a64834283cff,2021-12-14_22h14.39.046,PRaM,2021.2.3,Win32,145.0536699,61b8f3437b89212fae0dfade
1,1.2829,space,0.067,0,338,338,357,1,,,603f6ea3c439b514c173633d,61b909696234a64834283cff,2021-12-14_22h14.39.046,PRaM,2021.2.3,Win32,145.0536699,61b8f3437b89212fae0dfade
5,2.0495,space,0.5001,0,339,339,52,1,,,603f6ea3c439b514c173633d,61b909696234a64834283cff,2021-12-14_22h14.39.046,PRaM,2021.2.3,Win32,145.0536699,61b8f3437b89212fae0dfade
1,1.8,space,0.2834,0,340,340,29,1,,,603f6ea3c439b514c173633d,61b909696234a64834283cff,2021-12-14_22h14.39.046,PRaM,2021.2.3,Win32,145.0536699,61b8f3437b89212fae0dfade
1,0.6996,space,0.3475,0,341,341,209,1,,,603f6ea3c439b514c173633d,61b909696234a64834283cff,2021-12-14_22h14.39.046,PRaM,2021.2.3,Win32,145.0536699,61b8f3437b89212fae0dfade
5,1.4998,space,0.0826,0,342,342,241,1,,,603f6ea3c439b514c173633d,61b909696234a64834283cff,2021-12-14_22h14.39.046,PRaM,2021.2.3,Win32,145.0536699,61b8f3437b89212fae0dfade
1,4.8219,space,4.4527,0,343,343,54,1,,,603f6ea3c439b514c173633d,61b909696234a64834283cff,2021-12-14_22h14.39.046,PRaM,2021.2.3,Win32,145.0536699,61b8f3437b89212fae0dfade
1,4.4332,space,2.782,0,344,344,249,1,,,603f6ea3c439b514c173633d,61b909696234a64834283cff,2021-12-14_22h14.39.046,PRaM,2021.2.3,Win32,145.0536699,61b8f3437b89212fae0dfade
5,1.783,space,0.1652,0,345,345,77,1,,,603f6ea3c439b514c173633d,61b909696234a64834283cff,2021-12-14_22h14.39.046,PRaM,2021.2.3,Win32,145.0536699,61b8f3437b89212fae0dfade
1,1.6321,space,4.1663,0,346,346,230,1,,,603f6ea3c439b514c173633d,61b909696234a64834283cff,2021-12-14_22h14.39.046,PRaM,2021.2.3,Win32,145.0536699,61b8f3437b89212fae0dfade
6,2.5119,space,0.9504,0,347,347,56,1,,,603f6ea3c439b514c173633d,61b909696234a64834283cff,2021-12-14_22h14.39.046,PRaM,2021.2.3,Win32,145.0536699,61b8f3437b89212fae0dfade
1,2.0833,space,0.4327,0,348,348,172,1,,,603f6ea3c439b514c173633d,61b909696234a64834283cff,2021-12-14_22h14.39.046,PRaM,2021.2.3,Win32,145.0536699,61b8f3437b89212fae0dfade
4,2.9831,space,1.3507,0,349,349,136,1,,,603f6ea3c439b514c173633d,61b909696234a64834283cff,2021-12-14_22h14.39.046,PRaM,2021.2.3,Win32,145.0536699,61b8f3437b89212fae0dfade
7,2.1149,space,0.4495,0,350,350,92,1,,,603f6ea3c439b514c173633d,61b909696234a64834283cff,2021-12-14_22h14.39.046,PRaM,2021.2.3,Win32,145.0536699,61b8f3437b89212fae0dfade
7,2.4558,space,0.8484,0,351,351,273,1,,,603f6ea3c439b514c173633d,61b909696234a64834283cff,2021-12-14_22h14.39.046,PRaM,2021.2.3,Win32,145.0536699,61b8f3437b89212fae0dfade
1,3.771,space,2.1845,0,352,352,130,1,,,603f6ea3c439b514c173633d,61b909696234a64834283cff,2021-12-14_22h14.39.046,PRaM,2021.2.3,Win32,145.0536699,61b8f3437b89212fae0dfade
1,1.2323,space,0.0336,0,353,353,289,1,,,603f6ea3c439b514c173633d,61b909696234a64834283cff,2021-12-14_22h14.39.046,PRaM,2021.2.3,Win32,145.0536699,61b8f3437b89212fae0dfade
3,2.1841,space,0.5174,0,354,354,264,1,,,603f6ea3c439b514c173633d,61b909696234a64834283cff,2021-12-14_22h14.39.046,PRaM,2021.2.3,Win32,145.0536699,61b8f3437b89212fae0dfade
8,2.3168,space,0.6002,0,355,355,197,1,,,603f6ea3c439b514c173633d,61b909696234a64834283cff,2021-12-14_22h14.39.046,PRaM,2021.2.3,Win32,145.0536699,61b8f3437b89212fae0dfade
6,2.6386,space,0.917,0,356,356,156,1,,,603f6ea3c439b514c173633d,61b909696234a64834283cff,2021-12-14_22h14.39.046,PRaM,2021.2.3,Win32,145.0536699,61b8f3437b89212fae0dfade
1,1.3991,space,0.0002,0,357,357,30,1,,,603f6ea3c439b514c173633d,61b909696234a64834283cff,2021-12-14_22h14.39.046,PRaM,2021.2.3,Win32,145.0536699,61b8f3437b89212fae0dfade
1,1.7167,space,0.2329,0,358,358,343,1,,,603f6ea3c439b514c173633d,61b909696234a64834283cff,2021-12-14_22h14.39.046,PRaM,2021.2.3,Win32,145.0536699,61b8f3437b89212fae0dfade
1,1.2665,space,0.1169,0,359,359,0,1,,,603f6ea3c439b514c173633d,61b909696234a64834283cff,2021-12-14_22h14.39.046,PRaM,2021.2.3,Win32,145.0536699,61b8f3437b89212fae0dfade
8,2.6162,space,1.1346,0,360,360,115,1,,,603f6ea3c439b514c173633d,61b909696234a64834283cff,2021-12-14_22h14.39.046,PRaM,2021.2.3,Win32,145.0536699,61b8f3437b89212fae0dfade
1,1.3829,space,0.1989,0,361,361,203,1,,,603f6ea3c439b514c173633d,61b909696234a64834283cff,2021-12-14_22h14.39.046,PRaM,2021.2.3,Win32,145.0536699,61b8f3437b89212fae0dfade
2,2.0174,space,0.4003,0,362,362,338,1,,,603f6ea3c439b514c173633d,61b909696234a64834283cff,2021-12-14_22h14.39.046,PRaM,2021.2.3,Win32,145.0536699,61b8f3437b89212fae0dfade
5,1.5988,space,0.2643,0,363,363,377,1,,,603f6ea3c439b514c173633d,61b909696234a64834283cff,2021-12-14_22h14.39.046,PRaM,2021.2.3,Win32,145.0536699,61b8f3437b89212fae0dfade
1,2.6999,space,0.8045,0,364,364,106,1,,,603f6ea3c439b514c173633d,61b909696234a64834283cff,2021-12-14_22h14.39.046,PRaM,2021.2.3,Win32,145.0536699,61b8f3437b89212fae0dfade
1,0.7957,space,0.3009,0,365,365,261,1,,,603f6ea3c439b514c173633d,61b909696234a64834283cff,2021-12-14_22h14.39.046,PRaM,2021.2.3,Win32,145.0536699,61b8f3437b89212fae0dfade
7,1.7824,space,0.516,0,366,366,337,1,,,603f6ea3c439b514c173633d,61b909696234a64834283cff,2021-12-14_22h14.39.046,PRaM,2021.2.3,Win32,145.0536699,61b8f3437b89212fae0dfade
1,1.2498,space,0.3827,0,367,367,48,1,,,603f6ea3c439b514c173633d,61b909696234a64834283cff,2021-12-14_22h14.39.046,PRaM,2021.2.3,Win32,145.0536699,61b8f3437b89212fae0dfade
1,0.7659,space,0.2671,0,368,368,78,1,,,603f6ea3c439b514c173633d,61b909696234a64834283cff,2021-12-14_22h14.39.046,PRaM,2021.2.3,Win32,145.0536699,61b8f3437b89212fae0dfade
1,1.0988,space,0.015,0,369,369,82,1,,,603f6ea3c439b514c173633d,61b909696234a64834283cff,2021-12-14_22h14.39.046,PRaM,2021.2.3,Win32,145.0536699,61b8f3437b89212fae0dfade
1,1.0998,space,0.2669,0,370,370,162,1,,,603f6ea3c439b514c173633d,61b909696234a64834283cff,2021-12-14_22h14.39.046,PRaM,2021.2.3,Win32,145.0536699,61b8f3437b89212fae0dfade
7,2.702,space,1.1012,0,371,371,141,1,,,603f6ea3c439b514c173633d,61b909696234a64834283cff,2021-12-14_22h14.39.046,PRaM,2021.2.3,Win32,145.0536699,61b8f3437b89212fae0dfade
4,2.9154,space,1.133,0,372,372,68,1,,,603f6ea3c439b514c173633d,61b909696234a64834283cff,2021-12-14_22h14.39.046,PRaM,2021.2.3,Win32,145.0536699,61b8f3437b89212fae0dfade
8,3.2838,space,1.7006,0,373,373,333,1,,,603f6ea3c439b514c173633d,61b909696234a64834283cff,2021-12-14_22h14.39.046,PRaM,2021.2.3,Win32,145.0536699,61b8f3437b89212fae0dfade
2,2.8872,space,1.034,0,374,374,119,1,,,603f6ea3c439b514c173633d,61b909696234a64834283cff,2021-12-14_22h14.39.046,PRaM,2021.2.3,Win32,145.0536699,61b8f3437b89212fae0dfade
1,0.8659,space,0.2328,0,375,375,2,1,,,603f6ea3c439b514c173633d,61b909696234a64834283cff,2021-12-14_22h14.39.046,PRaM,2021.2.3,Win32,145.0536699,61b8f3437b89212fae0dfade
1,1.9004,space,0.2004,0,376,376,326,1,,,603f6ea3c439b514c173633d,61b909696234a64834283cff,2021-12-14_22h14.39.046,PRaM,2021.2.3,Win32,145.0536699,61b8f3437b89212fae0dfade
5,1.6663,space,0.3995,0,377,377,206,1,,,603f6ea3c439b514c173633d,61b909696234a64834283cff,2021-12-14_22h14.39.046,PRaM,2021.2.3,Win32,145.0536699,61b8f3437b89212fae0dfade
