Rating.response,Rating.rt,EndTrial.keys,EndTrial.rt,trials.thisRepN,trials.thisTrialN,trials.thisN,trials.thisIndex,trials.ran,Pos1,Pos2,participant,session,date,expName,psychopyVersion,OS,frameRate,study_id
,,space,30.5718,0,0,0,87,1,,,6073ef4aa2110f1236736c6d,61b900282be9a738f0b1c47e,2021-12-14_22h36.34.277,PRaM,2021.2.3,Win32,59.99520038,61b8f3437b89212fae0dfade
,,space,14.8785,0,1,1,98,1,,,6073ef4aa2110f1236736c6d,61b900282be9a738f0b1c47e,2021-12-14_22h36.34.277,PRaM,2021.2.3,Win32,59.99520038,61b8f3437b89212fae0dfade
,,space,0.4029,0,2,2,264,1,,,6073ef4aa2110f1236736c6d,61b900282be9a738f0b1c47e,2021-12-14_22h36.34.277,PRaM,2021.2.3,Win32,59.99520038,61b8f3437b89212fae0dfade
,,space,0.0744,0,3,3,318,1,,,6073ef4aa2110f1236736c6d,61b900282be9a738f0b1c47e,2021-12-14_22h36.34.277,PRaM,2021.2.3,Win32,59.99520038,61b8f3437b89212fae0dfade
,,space,3.9954,0,4,4,94,1,,,6073ef4aa2110f1236736c6d,61b900282be9a738f0b1c47e,2021-12-14_22h36.34.277,PRaM,2021.2.3,Win32,59.99520038,61b8f3437b89212fae0dfade
,,space,2.4704,0,5,5,360,1,,,6073ef4aa2110f1236736c6d,61b900282be9a738f0b1c47e,2021-12-14_22h36.34.277,PRaM,2021.2.3,Win32,59.99520038,61b8f3437b89212fae0dfade
,,space,2.0212,0,6,6,258,1,,,6073ef4aa2110f1236736c6d,61b900282be9a738f0b1c47e,2021-12-14_22h36.34.277,PRaM,2021.2.3,Win32,59.99520038,61b8f3437b89212fae0dfade
,,space,5.8272,0,7,7,199,1,,,6073ef4aa2110f1236736c6d,61b900282be9a738f0b1c47e,2021-12-14_22h36.34.277,PRaM,2021.2.3,Win32,59.99520038,61b8f3437b89212fae0dfade
,,space,1.5737,0,8,8,194,1,,,6073ef4aa2110f1236736c6d,61b900282be9a738f0b1c47e,2021-12-14_22h36.34.277,PRaM,2021.2.3,Win32,59.99520038,61b8f3437b89212fae0dfade
,,space,3.7904,0,9,9,52,1,,,6073ef4aa2110f1236736c6d,61b900282be9a738f0b1c47e,2021-12-14_22h36.34.277,PRaM,2021.2.3,Win32,59.99520038,61b8f3437b89212fae0dfade
,,space,1.6234,0,10,10,22,1,,,6073ef4aa2110f1236736c6d,61b900282be9a738f0b1c47e,2021-12-14_22h36.34.277,PRaM,2021.2.3,Win32,59.99520038,61b8f3437b89212fae0dfade
,,space,2.094,0,11,11,263,1,,,6073ef4aa2110f1236736c6d,61b900282be9a738f0b1c47e,2021-12-14_22h36.34.277,PRaM,2021.2.3,Win32,59.99520038,61b8f3437b89212fae0dfade
,,space,47.8685,0,12,12,58,1,,,6073ef4aa2110f1236736c6d,61b900282be9a738f0b1c47e,2021-12-14_22h36.34.277,PRaM,2021.2.3,Win32,59.99520038,61b8f3437b89212fae0dfade
,,space,4.0909,0,13,13,129,1,,,6073ef4aa2110f1236736c6d,61b900282be9a738f0b1c47e,2021-12-14_22h36.34.277,PRaM,2021.2.3,Win32,59.99520038,61b8f3437b89212fae0dfade
,,space,3.4746,0,14,14,304,1,,,6073ef4aa2110f1236736c6d,61b900282be9a738f0b1c47e,2021-12-14_22h36.34.277,PRaM,2021.2.3,Win32,59.99520038,61b8f3437b89212fae0dfade
,,space,2.5058,0,15,15,38,1,,,6073ef4aa2110f1236736c6d,61b900282be9a738f0b1c47e,2021-12-14_22h36.34.277,PRaM,2021.2.3,Win32,59.99520038,61b8f3437b89212fae0dfade
,,space,1.7667,0,16,16,374,1,,,6073ef4aa2110f1236736c6d,61b900282be9a738f0b1c47e,2021-12-14_22h36.34.277,PRaM,2021.2.3,Win32,59.99520038,61b8f3437b89212fae0dfade
,,space,4.439,0,17,17,368,1,,,6073ef4aa2110f1236736c6d,61b900282be9a738f0b1c47e,2021-12-14_22h36.34.277,PRaM,2021.2.3,Win32,59.99520038,61b8f3437b89212fae0dfade
,,space,1.2701,0,18,18,85,1,,,6073ef4aa2110f1236736c6d,61b900282be9a738f0b1c47e,2021-12-14_22h36.34.277,PRaM,2021.2.3,Win32,59.99520038,61b8f3437b89212fae0dfade
,,space,5.5611,0,19,19,45,1,,,6073ef4aa2110f1236736c6d,61b900282be9a738f0b1c47e,2021-12-14_22h36.34.277,PRaM,2021.2.3,Win32,59.99520038,61b8f3437b89212fae0dfade
,,space,1.1894,0,20,20,255,1,,,6073ef4aa2110f1236736c6d,61b900282be9a738f0b1c47e,2021-12-14_22h36.34.277,PRaM,2021.2.3,Win32,59.99520038,61b8f3437b89212fae0dfade
,,space,0.8849,0,21,21,204,1,,,6073ef4aa2110f1236736c6d,61b900282be9a738f0b1c47e,2021-12-14_22h36.34.277,PRaM,2021.2.3,Win32,59.99520038,61b8f3437b89212fae0dfade
,,space,1.2821,0,22,22,278,1,,,6073ef4aa2110f1236736c6d,61b900282be9a738f0b1c47e,2021-12-14_22h36.34.277,PRaM,2021.2.3,Win32,59.99520038,61b8f3437b89212fae0dfade
,,space,2.772,0,23,23,118,1,,,6073ef4aa2110f1236736c6d,61b900282be9a738f0b1c47e,2021-12-14_22h36.34.277,PRaM,2021.2.3,Win32,59.99520038,61b8f3437b89212fae0dfade
,,space,1.3675,0,24,24,126,1,,,6073ef4aa2110f1236736c6d,61b900282be9a738f0b1c47e,2021-12-14_22h36.34.277,PRaM,2021.2.3,Win32,59.99520038,61b8f3437b89212fae0dfade
,,space,1.8795,0,25,25,172,1,,,6073ef4aa2110f1236736c6d,61b900282be9a738f0b1c47e,2021-12-14_22h36.34.277,PRaM,2021.2.3,Win32,59.99520038,61b8f3437b89212fae0dfade
,,space,0.5208,0,26,26,96,1,,,6073ef4aa2110f1236736c6d,61b900282be9a738f0b1c47e,2021-12-14_22h36.34.277,PRaM,2021.2.3,Win32,59.99520038,61b8f3437b89212fae0dfade
,,space,2.8979,0,27,27,150,1,,,6073ef4aa2110f1236736c6d,61b900282be9a738f0b1c47e,2021-12-14_22h36.34.277,PRaM,2021.2.3,Win32,59.99520038,61b8f3437b89212fae0dfade
,,space,1.0418,0,28,28,158,1,,,6073ef4aa2110f1236736c6d,61b900282be9a738f0b1c47e,2021-12-14_22h36.34.277,PRaM,2021.2.3,Win32,59.99520038,61b8f3437b89212fae0dfade
,,space,3.0046,0,29,29,222,1,,,6073ef4aa2110f1236736c6d,61b900282be9a738f0b1c47e,2021-12-14_22h36.34.277,PRaM,2021.2.3,Win32,59.99520038,61b8f3437b89212fae0dfade
,,space,3.4777,0,30,30,12,1,,,6073ef4aa2110f1236736c6d,61b900282be9a738f0b1c47e,2021-12-14_22h36.34.277,PRaM,2021.2.3,Win32,59.99520038,61b8f3437b89212fae0dfade
,,space,0.9723,0,31,31,349,1,,,6073ef4aa2110f1236736c6d,61b900282be9a738f0b1c47e,2021-12-14_22h36.34.277,PRaM,2021.2.3,Win32,59.99520038,61b8f3437b89212fae0dfade
,,space,0.5435,0,32,32,88,1,,,6073ef4aa2110f1236736c6d,61b900282be9a738f0b1c47e,2021-12-14_22h36.34.277,PRaM,2021.2.3,Win32,59.99520038,61b8f3437b89212fae0dfade
,,space,0.7583,0,33,33,358,1,,,6073ef4aa2110f1236736c6d,61b900282be9a738f0b1c47e,2021-12-14_22h36.34.277,PRaM,2021.2.3,Win32,59.99520038,61b8f3437b89212fae0dfade
,,space,1.7201,0,34,34,39,1,,,6073ef4aa2110f1236736c6d,61b900282be9a738f0b1c47e,2021-12-14_22h36.34.277,PRaM,2021.2.3,Win32,59.99520038,61b8f3437b89212fae0dfade
,,space,1.0613,0,35,35,66,1,,,6073ef4aa2110f1236736c6d,61b900282be9a738f0b1c47e,2021-12-14_22h36.34.277,PRaM,2021.2.3,Win32,59.99520038,61b8f3437b89212fae0dfade
,,space,1.0867,0,36,36,80,1,,,6073ef4aa2110f1236736c6d,61b900282be9a738f0b1c47e,2021-12-14_22h36.34.277,PRaM,2021.2.3,Win32,59.99520038,61b8f3437b89212fae0dfade
,,space,1.1301,0,37,37,261,1,,,6073ef4aa2110f1236736c6d,61b900282be9a738f0b1c47e,2021-12-14_22h36.34.277,PRaM,2021.2.3,Win32,59.99520038,61b8f3437b89212fae0dfade
,,space,1.0743,0,38,38,51,1,,,6073ef4aa2110f1236736c6d,61b900282be9a738f0b1c47e,2021-12-14_22h36.34.277,PRaM,2021.2.3,Win32,59.99520038,61b8f3437b89212fae0dfade
,,space,0.636,0,39,39,24,1,,,6073ef4aa2110f1236736c6d,61b900282be9a738f0b1c47e,2021-12-14_22h36.34.277,PRaM,2021.2.3,Win32,59.99520038,61b8f3437b89212fae0dfade
,,space,1.9405,0,40,40,270,1,,,6073ef4aa2110f1236736c6d,61b900282be9a738f0b1c47e,2021-12-14_22h36.34.277,PRaM,2021.2.3,Win32,59.99520038,61b8f3437b89212fae0dfade
,,space,1.8416,0,41,41,333,1,,,6073ef4aa2110f1236736c6d,61b900282be9a738f0b1c47e,2021-12-14_22h36.34.277,PRaM,2021.2.3,Win32,59.99520038,61b8f3437b89212fae0dfade
,,space,0.9068,0,42,42,189,1,,,6073ef4aa2110f1236736c6d,61b900282be9a738f0b1c47e,2021-12-14_22h36.34.277,PRaM,2021.2.3,Win32,59.99520038,61b8f3437b89212fae0dfade
,,space,0.8752,0,43,43,120,1,,,6073ef4aa2110f1236736c6d,61b900282be9a738f0b1c47e,2021-12-14_22h36.34.277,PRaM,2021.2.3,Win32,59.99520038,61b8f3437b89212fae0dfade
,,space,1.3577,0,44,44,305,1,,,6073ef4aa2110f1236736c6d,61b900282be9a738f0b1c47e,2021-12-14_22h36.34.277,PRaM,2021.2.3,Win32,59.99520038,61b8f3437b89212fae0dfade
,,space,0.2044,0,45,45,252,1,,,6073ef4aa2110f1236736c6d,61b900282be9a738f0b1c47e,2021-12-14_22h36.34.277,PRaM,2021.2.3,Win32,59.99520038,61b8f3437b89212fae0dfade
,,space,0.2953,0,46,46,142,1,,,6073ef4aa2110f1236736c6d,61b900282be9a738f0b1c47e,2021-12-14_22h36.34.277,PRaM,2021.2.3,Win32,59.99520038,61b8f3437b89212fae0dfade
,,space,0.2742,0,47,47,121,1,,,6073ef4aa2110f1236736c6d,61b900282be9a738f0b1c47e,2021-12-14_22h36.34.277,PRaM,2021.2.3,Win32,59.99520038,61b8f3437b89212fae0dfade
,,space,0.0748,0,48,48,231,1,,,6073ef4aa2110f1236736c6d,61b900282be9a738f0b1c47e,2021-12-14_22h36.34.277,PRaM,2021.2.3,Win32,59.99520038,61b8f3437b89212fae0dfade
,,space,0.4934,0,49,49,99,1,,,6073ef4aa2110f1236736c6d,61b900282be9a738f0b1c47e,2021-12-14_22h36.34.277,PRaM,2021.2.3,Win32,59.99520038,61b8f3437b89212fae0dfade
,,space,0.3702,0,50,50,247,1,,,6073ef4aa2110f1236736c6d,61b900282be9a738f0b1c47e,2021-12-14_22h36.34.277,PRaM,2021.2.3,Win32,59.99520038,61b8f3437b89212fae0dfade
,,space,1.6049,0,51,51,228,1,,,6073ef4aa2110f1236736c6d,61b900282be9a738f0b1c47e,2021-12-14_22h36.34.277,PRaM,2021.2.3,Win32,59.99520038,61b8f3437b89212fae0dfade
,,space,0.5331,0,52,52,342,1,,,6073ef4aa2110f1236736c6d,61b900282be9a738f0b1c47e,2021-12-14_22h36.34.277,PRaM,2021.2.3,Win32,59.99520038,61b8f3437b89212fae0dfade
,,space,0.0885,0,53,53,312,1,,,6073ef4aa2110f1236736c6d,61b900282be9a738f0b1c47e,2021-12-14_22h36.34.277,PRaM,2021.2.3,Win32,59.99520038,61b8f3437b89212fae0dfade
,,space,2.0733,0,54,54,363,1,,,6073ef4aa2110f1236736c6d,61b900282be9a738f0b1c47e,2021-12-14_22h36.34.277,PRaM,2021.2.3,Win32,59.99520038,61b8f3437b89212fae0dfade
,,space,1.0933,0,55,55,61,1,,,6073ef4aa2110f1236736c6d,61b900282be9a738f0b1c47e,2021-12-14_22h36.34.277,PRaM,2021.2.3,Win32,59.99520038,61b8f3437b89212fae0dfade
,,space,0.4441,0,56,56,14,1,,,6073ef4aa2110f1236736c6d,61b900282be9a738f0b1c47e,2021-12-14_22h36.34.277,PRaM,2021.2.3,Win32,59.99520038,61b8f3437b89212fae0dfade
,,space,0.1158,0,57,57,165,1,,,6073ef4aa2110f1236736c6d,61b900282be9a738f0b1c47e,2021-12-14_22h36.34.277,PRaM,2021.2.3,Win32,59.99520038,61b8f3437b89212fae0dfade
,,space,1.0126,0,58,58,309,1,,,6073ef4aa2110f1236736c6d,61b900282be9a738f0b1c47e,2021-12-14_22h36.34.277,PRaM,2021.2.3,Win32,59.99520038,61b8f3437b89212fae0dfade
,,space,1.8652,0,59,59,31,1,,,6073ef4aa2110f1236736c6d,61b900282be9a738f0b1c47e,2021-12-14_22h36.34.277,PRaM,2021.2.3,Win32,59.99520038,61b8f3437b89212fae0dfade
,,space,1.8365,0,60,60,262,1,,,6073ef4aa2110f1236736c6d,61b900282be9a738f0b1c47e,2021-12-14_22h36.34.277,PRaM,2021.2.3,Win32,59.99520038,61b8f3437b89212fae0dfade
,,space,1.1198,0,61,61,296,1,,,6073ef4aa2110f1236736c6d,61b900282be9a738f0b1c47e,2021-12-14_22h36.34.277,PRaM,2021.2.3,Win32,59.99520038,61b8f3437b89212fae0dfade
,,space,1.7057,0,62,62,321,1,,,6073ef4aa2110f1236736c6d,61b900282be9a738f0b1c47e,2021-12-14_22h36.34.277,PRaM,2021.2.3,Win32,59.99520038,61b8f3437b89212fae0dfade
,,space,1.6018,0,63,63,214,1,,,6073ef4aa2110f1236736c6d,61b900282be9a738f0b1c47e,2021-12-14_22h36.34.277,PRaM,2021.2.3,Win32,59.99520038,61b8f3437b89212fae0dfade
,,space,2.1391,0,64,64,18,1,,,6073ef4aa2110f1236736c6d,61b900282be9a738f0b1c47e,2021-12-14_22h36.34.277,PRaM,2021.2.3,Win32,59.99520038,61b8f3437b89212fae0dfade
,,space,1.0449,0,65,65,302,1,,,6073ef4aa2110f1236736c6d,61b900282be9a738f0b1c47e,2021-12-14_22h36.34.277,PRaM,2021.2.3,Win32,59.99520038,61b8f3437b89212fae0dfade
,,space,1.2785,0,66,66,276,1,,,6073ef4aa2110f1236736c6d,61b900282be9a738f0b1c47e,2021-12-14_22h36.34.277,PRaM,2021.2.3,Win32,59.99520038,61b8f3437b89212fae0dfade
,,space,0.4223,0,67,67,62,1,,,6073ef4aa2110f1236736c6d,61b900282be9a738f0b1c47e,2021-12-14_22h36.34.277,PRaM,2021.2.3,Win32,59.99520038,61b8f3437b89212fae0dfade
,,space,0.7953,0,68,68,15,1,,,6073ef4aa2110f1236736c6d,61b900282be9a738f0b1c47e,2021-12-14_22h36.34.277,PRaM,2021.2.3,Win32,59.99520038,61b8f3437b89212fae0dfade
,,space,1.1469,0,69,69,338,1,,,6073ef4aa2110f1236736c6d,61b900282be9a738f0b1c47e,2021-12-14_22h36.34.277,PRaM,2021.2.3,Win32,59.99520038,61b8f3437b89212fae0dfade
,,space,0.0016,0,70,70,274,1,,,6073ef4aa2110f1236736c6d,61b900282be9a738f0b1c47e,2021-12-14_22h36.34.277,PRaM,2021.2.3,Win32,59.99520038,61b8f3437b89212fae0dfade
,,space,1.095,0,71,71,95,1,,,6073ef4aa2110f1236736c6d,61b900282be9a738f0b1c47e,2021-12-14_22h36.34.277,PRaM,2021.2.3,Win32,59.99520038,61b8f3437b89212fae0dfade
,,space,0.7078,0,72,72,173,1,,,6073ef4aa2110f1236736c6d,61b900282be9a738f0b1c47e,2021-12-14_22h36.34.277,PRaM,2021.2.3,Win32,59.99520038,61b8f3437b89212fae0dfade
,,space,0.2034,0,73,73,181,1,,,6073ef4aa2110f1236736c6d,61b900282be9a738f0b1c47e,2021-12-14_22h36.34.277,PRaM,2021.2.3,Win32,59.99520038,61b8f3437b89212fae0dfade
,,space,1.1199,0,74,74,2,1,,,6073ef4aa2110f1236736c6d,61b900282be9a738f0b1c47e,2021-12-14_22h36.34.277,PRaM,2021.2.3,Win32,59.99520038,61b8f3437b89212fae0dfade
,,space,1.8991,0,75,75,164,1,,,6073ef4aa2110f1236736c6d,61b900282be9a738f0b1c47e,2021-12-14_22h36.34.277,PRaM,2021.2.3,Win32,59.99520038,61b8f3437b89212fae0dfade
,,space,0.5171,0,76,76,268,1,,,6073ef4aa2110f1236736c6d,61b900282be9a738f0b1c47e,2021-12-14_22h36.34.277,PRaM,2021.2.3,Win32,59.99520038,61b8f3437b89212fae0dfade
,,space,2.428,0,77,77,16,1,,,6073ef4aa2110f1236736c6d,61b900282be9a738f0b1c47e,2021-12-14_22h36.34.277,PRaM,2021.2.3,Win32,59.99520038,61b8f3437b89212fae0dfade
,,space,0.5354,0,78,78,198,1,,,6073ef4aa2110f1236736c6d,61b900282be9a738f0b1c47e,2021-12-14_22h36.34.277,PRaM,2021.2.3,Win32,59.99520038,61b8f3437b89212fae0dfade
,,space,0.7248,0,79,79,283,1,,,6073ef4aa2110f1236736c6d,61b900282be9a738f0b1c47e,2021-12-14_22h36.34.277,PRaM,2021.2.3,Win32,59.99520038,61b8f3437b89212fae0dfade
,,space,0.9357,0,80,80,132,1,,,6073ef4aa2110f1236736c6d,61b900282be9a738f0b1c47e,2021-12-14_22h36.34.277,PRaM,2021.2.3,Win32,59.99520038,61b8f3437b89212fae0dfade
,,space,0.2022,0,81,81,267,1,,,6073ef4aa2110f1236736c6d,61b900282be9a738f0b1c47e,2021-12-14_22h36.34.277,PRaM,2021.2.3,Win32,59.99520038,61b8f3437b89212fae0dfade
,,space,3.7505,0,82,82,272,1,,,6073ef4aa2110f1236736c6d,61b900282be9a738f0b1c47e,2021-12-14_22h36.34.277,PRaM,2021.2.3,Win32,59.99520038,61b8f3437b89212fae0dfade
,,space,1.5578,0,83,83,297,1,,,6073ef4aa2110f1236736c6d,61b900282be9a738f0b1c47e,2021-12-14_22h36.34.277,PRaM,2021.2.3,Win32,59.99520038,61b8f3437b89212fae0dfade
,,space,0.5854,0,84,84,271,1,,,6073ef4aa2110f1236736c6d,61b900282be9a738f0b1c47e,2021-12-14_22h36.34.277,PRaM,2021.2.3,Win32,59.99520038,61b8f3437b89212fae0dfade
,,space,1.0028,0,85,85,332,1,,,6073ef4aa2110f1236736c6d,61b900282be9a738f0b1c47e,2021-12-14_22h36.34.277,PRaM,2021.2.3,Win32,59.99520038,61b8f3437b89212fae0dfade
,,space,1.4092,0,86,86,40,1,,,6073ef4aa2110f1236736c6d,61b900282be9a738f0b1c47e,2021-12-14_22h36.34.277,PRaM,2021.2.3,Win32,59.99520038,61b8f3437b89212fae0dfade
,,space,0.2514,0,87,87,291,1,,,6073ef4aa2110f1236736c6d,61b900282be9a738f0b1c47e,2021-12-14_22h36.34.277,PRaM,2021.2.3,Win32,59.99520038,61b8f3437b89212fae0dfade
,,space,0.4722,0,88,88,227,1,,,6073ef4aa2110f1236736c6d,61b900282be9a738f0b1c47e,2021-12-14_22h36.34.277,PRaM,2021.2.3,Win32,59.99520038,61b8f3437b89212fae0dfade
,,space,1.1204,0,89,89,106,1,,,6073ef4aa2110f1236736c6d,61b900282be9a738f0b1c47e,2021-12-14_22h36.34.277,PRaM,2021.2.3,Win32,59.99520038,61b8f3437b89212fae0dfade
,,space,1.2491,0,90,90,223,1,,,6073ef4aa2110f1236736c6d,61b900282be9a738f0b1c47e,2021-12-14_22h36.34.277,PRaM,2021.2.3,Win32,59.99520038,61b8f3437b89212fae0dfade
,,space,2.3138,0,91,91,123,1,,,6073ef4aa2110f1236736c6d,61b900282be9a738f0b1c47e,2021-12-14_22h36.34.277,PRaM,2021.2.3,Win32,59.99520038,61b8f3437b89212fae0dfade
,,space,2.4992,0,92,92,300,1,,,6073ef4aa2110f1236736c6d,61b900282be9a738f0b1c47e,2021-12-14_22h36.34.277,PRaM,2021.2.3,Win32,59.99520038,61b8f3437b89212fae0dfade
,,space,2.5393,0,93,93,29,1,,,6073ef4aa2110f1236736c6d,61b900282be9a738f0b1c47e,2021-12-14_22h36.34.277,PRaM,2021.2.3,Win32,59.99520038,61b8f3437b89212fae0dfade
,,space,2.3191,0,94,94,377,1,,,6073ef4aa2110f1236736c6d,61b900282be9a738f0b1c47e,2021-12-14_22h36.34.277,PRaM,2021.2.3,Win32,59.99520038,61b8f3437b89212fae0dfade
,,space,0.1201,0,95,95,200,1,,,6073ef4aa2110f1236736c6d,61b900282be9a738f0b1c47e,2021-12-14_22h36.34.277,PRaM,2021.2.3,Win32,59.99520038,61b8f3437b89212fae0dfade
,,space,0.2661,0,96,96,128,1,,,6073ef4aa2110f1236736c6d,61b900282be9a738f0b1c47e,2021-12-14_22h36.34.277,PRaM,2021.2.3,Win32,59.99520038,61b8f3437b89212fae0dfade
,,space,0.2281,0,97,97,348,1,,,6073ef4aa2110f1236736c6d,61b900282be9a738f0b1c47e,2021-12-14_22h36.34.277,PRaM,2021.2.3,Win32,59.99520038,61b8f3437b89212fae0dfade
,,space,1.5637,0,98,98,201,1,,,6073ef4aa2110f1236736c6d,61b900282be9a738f0b1c47e,2021-12-14_22h36.34.277,PRaM,2021.2.3,Win32,59.99520038,61b8f3437b89212fae0dfade
,,space,1.6249,0,99,99,250,1,,,6073ef4aa2110f1236736c6d,61b900282be9a738f0b1c47e,2021-12-14_22h36.34.277,PRaM,2021.2.3,Win32,59.99520038,61b8f3437b89212fae0dfade
,,space,0.4166,0,100,100,346,1,,,6073ef4aa2110f1236736c6d,61b900282be9a738f0b1c47e,2021-12-14_22h36.34.277,PRaM,2021.2.3,Win32,59.99520038,61b8f3437b89212fae0dfade
,,space,1.3566,0,101,101,41,1,,,6073ef4aa2110f1236736c6d,61b900282be9a738f0b1c47e,2021-12-14_22h36.34.277,PRaM,2021.2.3,Win32,59.99520038,61b8f3437b89212fae0dfade
,,space,1.814,0,102,102,69,1,,,6073ef4aa2110f1236736c6d,61b900282be9a738f0b1c47e,2021-12-14_22h36.34.277,PRaM,2021.2.3,Win32,59.99520038,61b8f3437b89212fae0dfade
,,space,1.2836,0,103,103,174,1,,,6073ef4aa2110f1236736c6d,61b900282be9a738f0b1c47e,2021-12-14_22h36.34.277,PRaM,2021.2.3,Win32,59.99520038,61b8f3437b89212fae0dfade
,,space,0.5696,0,104,104,125,1,,,6073ef4aa2110f1236736c6d,61b900282be9a738f0b1c47e,2021-12-14_22h36.34.277,PRaM,2021.2.3,Win32,59.99520038,61b8f3437b89212fae0dfade
,,space,0.368,0,105,105,371,1,,,6073ef4aa2110f1236736c6d,61b900282be9a738f0b1c47e,2021-12-14_22h36.34.277,PRaM,2021.2.3,Win32,59.99520038,61b8f3437b89212fae0dfade
,,space,0.7361,0,106,106,229,1,,,6073ef4aa2110f1236736c6d,61b900282be9a738f0b1c47e,2021-12-14_22h36.34.277,PRaM,2021.2.3,Win32,59.99520038,61b8f3437b89212fae0dfade
,,space,0.8366,0,107,107,370,1,,,6073ef4aa2110f1236736c6d,61b900282be9a738f0b1c47e,2021-12-14_22h36.34.277,PRaM,2021.2.3,Win32,59.99520038,61b8f3437b89212fae0dfade
,,space,0.7154,0,108,108,357,1,,,6073ef4aa2110f1236736c6d,61b900282be9a738f0b1c47e,2021-12-14_22h36.34.277,PRaM,2021.2.3,Win32,59.99520038,61b8f3437b89212fae0dfade
,,space,0.5426,0,109,109,7,1,,,6073ef4aa2110f1236736c6d,61b900282be9a738f0b1c47e,2021-12-14_22h36.34.277,PRaM,2021.2.3,Win32,59.99520038,61b8f3437b89212fae0dfade
,,space,0.0013,0,110,110,160,1,,,6073ef4aa2110f1236736c6d,61b900282be9a738f0b1c47e,2021-12-14_22h36.34.277,PRaM,2021.2.3,Win32,59.99520038,61b8f3437b89212fae0dfade
,,space,1.3579,0,111,111,5,1,,,6073ef4aa2110f1236736c6d,61b900282be9a738f0b1c47e,2021-12-14_22h36.34.277,PRaM,2021.2.3,Win32,59.99520038,61b8f3437b89212fae0dfade
,,space,0.0037,0,112,112,265,1,,,6073ef4aa2110f1236736c6d,61b900282be9a738f0b1c47e,2021-12-14_22h36.34.277,PRaM,2021.2.3,Win32,59.99520038,61b8f3437b89212fae0dfade
,,space,0.6693,0,113,113,359,1,,,6073ef4aa2110f1236736c6d,61b900282be9a738f0b1c47e,2021-12-14_22h36.34.277,PRaM,2021.2.3,Win32,59.99520038,61b8f3437b89212fae0dfade
,,space,2.5373,0,114,114,178,1,,,6073ef4aa2110f1236736c6d,61b900282be9a738f0b1c47e,2021-12-14_22h36.34.277,PRaM,2021.2.3,Win32,59.99520038,61b8f3437b89212fae0dfade
,,space,0.228,0,115,115,326,1,,,6073ef4aa2110f1236736c6d,61b900282be9a738f0b1c47e,2021-12-14_22h36.34.277,PRaM,2021.2.3,Win32,59.99520038,61b8f3437b89212fae0dfade
,,space,1.2925,0,116,116,159,1,,,6073ef4aa2110f1236736c6d,61b900282be9a738f0b1c47e,2021-12-14_22h36.34.277,PRaM,2021.2.3,Win32,59.99520038,61b8f3437b89212fae0dfade
,,space,0.2289,0,117,117,6,1,,,6073ef4aa2110f1236736c6d,61b900282be9a738f0b1c47e,2021-12-14_22h36.34.277,PRaM,2021.2.3,Win32,59.99520038,61b8f3437b89212fae0dfade
,,space,1.1973,0,118,118,314,1,,,6073ef4aa2110f1236736c6d,61b900282be9a738f0b1c47e,2021-12-14_22h36.34.277,PRaM,2021.2.3,Win32,59.99520038,61b8f3437b89212fae0dfade
,,space,0.0543,0,119,119,290,1,,,6073ef4aa2110f1236736c6d,61b900282be9a738f0b1c47e,2021-12-14_22h36.34.277,PRaM,2021.2.3,Win32,59.99520038,61b8f3437b89212fae0dfade
,,space,0.5688,0,120,120,25,1,,,6073ef4aa2110f1236736c6d,61b900282be9a738f0b1c47e,2021-12-14_22h36.34.277,PRaM,2021.2.3,Win32,59.99520038,61b8f3437b89212fae0dfade
,,space,0.4877,0,121,121,220,1,,,6073ef4aa2110f1236736c6d,61b900282be9a738f0b1c47e,2021-12-14_22h36.34.277,PRaM,2021.2.3,Win32,59.99520038,61b8f3437b89212fae0dfade
,,space,0.9385,0,122,122,92,1,,,6073ef4aa2110f1236736c6d,61b900282be9a738f0b1c47e,2021-12-14_22h36.34.277,PRaM,2021.2.3,Win32,59.99520038,61b8f3437b89212fae0dfade
,,space,0.4791,0,123,123,145,1,,,6073ef4aa2110f1236736c6d,61b900282be9a738f0b1c47e,2021-12-14_22h36.34.277,PRaM,2021.2.3,Win32,59.99520038,61b8f3437b89212fae0dfade
,,space,0.2222,0,124,124,190,1,,,6073ef4aa2110f1236736c6d,61b900282be9a738f0b1c47e,2021-12-14_22h36.34.277,PRaM,2021.2.3,Win32,59.99520038,61b8f3437b89212fae0dfade
,,space,0.6342,0,125,125,55,1,,,6073ef4aa2110f1236736c6d,61b900282be9a738f0b1c47e,2021-12-14_22h36.34.277,PRaM,2021.2.3,Win32,59.99520038,61b8f3437b89212fae0dfade
,,space,0.2478,0,126,126,245,1,,,6073ef4aa2110f1236736c6d,61b900282be9a738f0b1c47e,2021-12-14_22h36.34.277,PRaM,2021.2.3,Win32,59.99520038,61b8f3437b89212fae0dfade
,,space,0.4359,0,127,127,248,1,,,6073ef4aa2110f1236736c6d,61b900282be9a738f0b1c47e,2021-12-14_22h36.34.277,PRaM,2021.2.3,Win32,59.99520038,61b8f3437b89212fae0dfade
,,space,1.037,0,128,128,59,1,,,6073ef4aa2110f1236736c6d,61b900282be9a738f0b1c47e,2021-12-14_22h36.34.277,PRaM,2021.2.3,Win32,59.99520038,61b8f3437b89212fae0dfade
,,space,0.5676,0,129,129,292,1,,,6073ef4aa2110f1236736c6d,61b900282be9a738f0b1c47e,2021-12-14_22h36.34.277,PRaM,2021.2.3,Win32,59.99520038,61b8f3437b89212fae0dfade
,,space,0.4105,0,130,130,124,1,,,6073ef4aa2110f1236736c6d,61b900282be9a738f0b1c47e,2021-12-14_22h36.34.277,PRaM,2021.2.3,Win32,59.99520038,61b8f3437b89212fae0dfade
,,space,0.5087,0,131,131,244,1,,,6073ef4aa2110f1236736c6d,61b900282be9a738f0b1c47e,2021-12-14_22h36.34.277,PRaM,2021.2.3,Win32,59.99520038,61b8f3437b89212fae0dfade
,,space,1.4124,0,132,132,232,1,,,6073ef4aa2110f1236736c6d,61b900282be9a738f0b1c47e,2021-12-14_22h36.34.277,PRaM,2021.2.3,Win32,59.99520038,61b8f3437b89212fae0dfade
,,space,0.7519,0,133,133,93,1,,,6073ef4aa2110f1236736c6d,61b900282be9a738f0b1c47e,2021-12-14_22h36.34.277,PRaM,2021.2.3,Win32,59.99520038,61b8f3437b89212fae0dfade
,,space,0.5892,0,134,134,133,1,,,6073ef4aa2110f1236736c6d,61b900282be9a738f0b1c47e,2021-12-14_22h36.34.277,PRaM,2021.2.3,Win32,59.99520038,61b8f3437b89212fae0dfade
,,space,0.358,0,135,135,337,1,,,6073ef4aa2110f1236736c6d,61b900282be9a738f0b1c47e,2021-12-14_22h36.34.277,PRaM,2021.2.3,Win32,59.99520038,61b8f3437b89212fae0dfade
,,space,0.2534,0,136,136,192,1,,,6073ef4aa2110f1236736c6d,61b900282be9a738f0b1c47e,2021-12-14_22h36.34.277,PRaM,2021.2.3,Win32,59.99520038,61b8f3437b89212fae0dfade
,,space,0.1471,0,137,137,340,1,,,6073ef4aa2110f1236736c6d,61b900282be9a738f0b1c47e,2021-12-14_22h36.34.277,PRaM,2021.2.3,Win32,59.99520038,61b8f3437b89212fae0dfade
,,space,0.2856,0,138,138,249,1,,,6073ef4aa2110f1236736c6d,61b900282be9a738f0b1c47e,2021-12-14_22h36.34.277,PRaM,2021.2.3,Win32,59.99520038,61b8f3437b89212fae0dfade
,,space,1.5052,0,139,139,308,1,,,6073ef4aa2110f1236736c6d,61b900282be9a738f0b1c47e,2021-12-14_22h36.34.277,PRaM,2021.2.3,Win32,59.99520038,61b8f3437b89212fae0dfade
,,space,0.1347,0,140,140,286,1,,,6073ef4aa2110f1236736c6d,61b900282be9a738f0b1c47e,2021-12-14_22h36.34.277,PRaM,2021.2.3,Win32,59.99520038,61b8f3437b89212fae0dfade
,,space,2.5856,0,141,141,310,1,,,6073ef4aa2110f1236736c6d,61b900282be9a738f0b1c47e,2021-12-14_22h36.34.277,PRaM,2021.2.3,Win32,59.99520038,61b8f3437b89212fae0dfade
,,space,0.4883,0,142,142,153,1,,,6073ef4aa2110f1236736c6d,61b900282be9a738f0b1c47e,2021-12-14_22h36.34.277,PRaM,2021.2.3,Win32,59.99520038,61b8f3437b89212fae0dfade
,,space,0.4678,0,143,143,239,1,,,6073ef4aa2110f1236736c6d,61b900282be9a738f0b1c47e,2021-12-14_22h36.34.277,PRaM,2021.2.3,Win32,59.99520038,61b8f3437b89212fae0dfade
,,space,0.8499,0,144,144,171,1,,,6073ef4aa2110f1236736c6d,61b900282be9a738f0b1c47e,2021-12-14_22h36.34.277,PRaM,2021.2.3,Win32,59.99520038,61b8f3437b89212fae0dfade
,,space,0.4857,0,145,145,334,1,,,6073ef4aa2110f1236736c6d,61b900282be9a738f0b1c47e,2021-12-14_22h36.34.277,PRaM,2021.2.3,Win32,59.99520038,61b8f3437b89212fae0dfade
,,space,0.0471,0,146,146,288,1,,,6073ef4aa2110f1236736c6d,61b900282be9a738f0b1c47e,2021-12-14_22h36.34.277,PRaM,2021.2.3,Win32,59.99520038,61b8f3437b89212fae0dfade
,,space,0.0638,0,147,147,78,1,,,6073ef4aa2110f1236736c6d,61b900282be9a738f0b1c47e,2021-12-14_22h36.34.277,PRaM,2021.2.3,Win32,59.99520038,61b8f3437b89212fae0dfade
,,space,0.541,0,148,148,298,1,,,6073ef4aa2110f1236736c6d,61b900282be9a738f0b1c47e,2021-12-14_22h36.34.277,PRaM,2021.2.3,Win32,59.99520038,61b8f3437b89212fae0dfade
,,space,0.2701,0,149,149,102,1,,,6073ef4aa2110f1236736c6d,61b900282be9a738f0b1c47e,2021-12-14_22h36.34.277,PRaM,2021.2.3,Win32,59.99520038,61b8f3437b89212fae0dfade
,,space,0.0708,0,150,150,143,1,,,6073ef4aa2110f1236736c6d,61b900282be9a738f0b1c47e,2021-12-14_22h36.34.277,PRaM,2021.2.3,Win32,59.99520038,61b8f3437b89212fae0dfade
,,space,1.114,0,151,151,350,1,,,6073ef4aa2110f1236736c6d,61b900282be9a738f0b1c47e,2021-12-14_22h36.34.277,PRaM,2021.2.3,Win32,59.99520038,61b8f3437b89212fae0dfade
,,space,0.2113,0,152,152,328,1,,,6073ef4aa2110f1236736c6d,61b900282be9a738f0b1c47e,2021-12-14_22h36.34.277,PRaM,2021.2.3,Win32,59.99520038,61b8f3437b89212fae0dfade
,,space,0.8118,0,153,153,282,1,,,6073ef4aa2110f1236736c6d,61b900282be9a738f0b1c47e,2021-12-14_22h36.34.277,PRaM,2021.2.3,Win32,59.99520038,61b8f3437b89212fae0dfade
,,space,1.8587,0,154,154,230,1,,,6073ef4aa2110f1236736c6d,61b900282be9a738f0b1c47e,2021-12-14_22h36.34.277,PRaM,2021.2.3,Win32,59.99520038,61b8f3437b89212fae0dfade
,,space,1.4334,0,155,155,21,1,,,6073ef4aa2110f1236736c6d,61b900282be9a738f0b1c47e,2021-12-14_22h36.34.277,PRaM,2021.2.3,Win32,59.99520038,61b8f3437b89212fae0dfade
,,space,1.2476,0,156,156,57,1,,,6073ef4aa2110f1236736c6d,61b900282be9a738f0b1c47e,2021-12-14_22h36.34.277,PRaM,2021.2.3,Win32,59.99520038,61b8f3437b89212fae0dfade
,,space,0.6232,0,157,157,315,1,,,6073ef4aa2110f1236736c6d,61b900282be9a738f0b1c47e,2021-12-14_22h36.34.277,PRaM,2021.2.3,Win32,59.99520038,61b8f3437b89212fae0dfade
,,space,1.469,0,158,158,141,1,,,6073ef4aa2110f1236736c6d,61b900282be9a738f0b1c47e,2021-12-14_22h36.34.277,PRaM,2021.2.3,Win32,59.99520038,61b8f3437b89212fae0dfade
,,space,1.6514,0,159,159,28,1,,,6073ef4aa2110f1236736c6d,61b900282be9a738f0b1c47e,2021-12-14_22h36.34.277,PRaM,2021.2.3,Win32,59.99520038,61b8f3437b89212fae0dfade
,,space,1.7476,0,160,160,32,1,,,6073ef4aa2110f1236736c6d,61b900282be9a738f0b1c47e,2021-12-14_22h36.34.277,PRaM,2021.2.3,Win32,59.99520038,61b8f3437b89212fae0dfade
,,space,1.6655,0,161,161,299,1,,,6073ef4aa2110f1236736c6d,61b900282be9a738f0b1c47e,2021-12-14_22h36.34.277,PRaM,2021.2.3,Win32,59.99520038,61b8f3437b89212fae0dfade
,,space,0.9403,0,162,162,279,1,,,6073ef4aa2110f1236736c6d,61b900282be9a738f0b1c47e,2021-12-14_22h36.34.277,PRaM,2021.2.3,Win32,59.99520038,61b8f3437b89212fae0dfade
,,space,0.6364,0,163,163,144,1,,,6073ef4aa2110f1236736c6d,61b900282be9a738f0b1c47e,2021-12-14_22h36.34.277,PRaM,2021.2.3,Win32,59.99520038,61b8f3437b89212fae0dfade
,,space,1.3158,0,164,164,221,1,,,6073ef4aa2110f1236736c6d,61b900282be9a738f0b1c47e,2021-12-14_22h36.34.277,PRaM,2021.2.3,Win32,59.99520038,61b8f3437b89212fae0dfade
,,space,1.726,0,165,165,354,1,,,6073ef4aa2110f1236736c6d,61b900282be9a738f0b1c47e,2021-12-14_22h36.34.277,PRaM,2021.2.3,Win32,59.99520038,61b8f3437b89212fae0dfade
,,space,0.6715,0,166,166,100,1,,,6073ef4aa2110f1236736c6d,61b900282be9a738f0b1c47e,2021-12-14_22h36.34.277,PRaM,2021.2.3,Win32,59.99520038,61b8f3437b89212fae0dfade
,,space,0.3898,0,167,167,293,1,,,6073ef4aa2110f1236736c6d,61b900282be9a738f0b1c47e,2021-12-14_22h36.34.277,PRaM,2021.2.3,Win32,59.99520038,61b8f3437b89212fae0dfade
,,space,1.0887,0,168,168,107,1,,,6073ef4aa2110f1236736c6d,61b900282be9a738f0b1c47e,2021-12-14_22h36.34.277,PRaM,2021.2.3,Win32,59.99520038,61b8f3437b89212fae0dfade
,,space,3.186,0,169,169,322,1,,,6073ef4aa2110f1236736c6d,61b900282be9a738f0b1c47e,2021-12-14_22h36.34.277,PRaM,2021.2.3,Win32,59.99520038,61b8f3437b89212fae0dfade
,,space,0.5792,0,170,170,366,1,,,6073ef4aa2110f1236736c6d,61b900282be9a738f0b1c47e,2021-12-14_22h36.34.277,PRaM,2021.2.3,Win32,59.99520038,61b8f3437b89212fae0dfade
,,space,0.4262,0,171,171,177,1,,,6073ef4aa2110f1236736c6d,61b900282be9a738f0b1c47e,2021-12-14_22h36.34.277,PRaM,2021.2.3,Win32,59.99520038,61b8f3437b89212fae0dfade
,,space,0.7172,0,172,172,202,1,,,6073ef4aa2110f1236736c6d,61b900282be9a738f0b1c47e,2021-12-14_22h36.34.277,PRaM,2021.2.3,Win32,59.99520038,61b8f3437b89212fae0dfade
,,space,1.0199,0,173,173,163,1,,,6073ef4aa2110f1236736c6d,61b900282be9a738f0b1c47e,2021-12-14_22h36.34.277,PRaM,2021.2.3,Win32,59.99520038,61b8f3437b89212fae0dfade
,,space,5.0363,0,174,174,280,1,,,6073ef4aa2110f1236736c6d,61b900282be9a738f0b1c47e,2021-12-14_22h36.34.277,PRaM,2021.2.3,Win32,59.99520038,61b8f3437b89212fae0dfade
,,space,0.8839,0,175,175,251,1,,,6073ef4aa2110f1236736c6d,61b900282be9a738f0b1c47e,2021-12-14_22h36.34.277,PRaM,2021.2.3,Win32,59.99520038,61b8f3437b89212fae0dfade
,,space,0.0699,0,176,176,367,1,,,6073ef4aa2110f1236736c6d,61b900282be9a738f0b1c47e,2021-12-14_22h36.34.277,PRaM,2021.2.3,Win32,59.99520038,61b8f3437b89212fae0dfade
,,space,0.7634,0,177,177,36,1,,,6073ef4aa2110f1236736c6d,61b900282be9a738f0b1c47e,2021-12-14_22h36.34.277,PRaM,2021.2.3,Win32,59.99520038,61b8f3437b89212fae0dfade
,,space,0.7724,0,178,178,161,1,,,6073ef4aa2110f1236736c6d,61b900282be9a738f0b1c47e,2021-12-14_22h36.34.277,PRaM,2021.2.3,Win32,59.99520038,61b8f3437b89212fae0dfade
,,space,0.8935,0,179,179,369,1,,,6073ef4aa2110f1236736c6d,61b900282be9a738f0b1c47e,2021-12-14_22h36.34.277,PRaM,2021.2.3,Win32,59.99520038,61b8f3437b89212fae0dfade
,,space,1.2674,0,180,180,37,1,,,6073ef4aa2110f1236736c6d,61b900282be9a738f0b1c47e,2021-12-14_22h36.34.277,PRaM,2021.2.3,Win32,59.99520038,61b8f3437b89212fae0dfade
,,space,0.9374,0,181,181,319,1,,,6073ef4aa2110f1236736c6d,61b900282be9a738f0b1c47e,2021-12-14_22h36.34.277,PRaM,2021.2.3,Win32,59.99520038,61b8f3437b89212fae0dfade
,,space,0.0221,0,182,182,376,1,,,6073ef4aa2110f1236736c6d,61b900282be9a738f0b1c47e,2021-12-14_22h36.34.277,PRaM,2021.2.3,Win32,59.99520038,61b8f3437b89212fae0dfade
,,space,1.5271,0,183,183,375,1,,,6073ef4aa2110f1236736c6d,61b900282be9a738f0b1c47e,2021-12-14_22h36.34.277,PRaM,2021.2.3,Win32,59.99520038,61b8f3437b89212fae0dfade
,,space,1.7089,0,184,184,343,1,,,6073ef4aa2110f1236736c6d,61b900282be9a738f0b1c47e,2021-12-14_22h36.34.277,PRaM,2021.2.3,Win32,59.99520038,61b8f3437b89212fae0dfade
,,space,1.3373,0,185,185,184,1,,,6073ef4aa2110f1236736c6d,61b900282be9a738f0b1c47e,2021-12-14_22h36.34.277,PRaM,2021.2.3,Win32,59.99520038,61b8f3437b89212fae0dfade
,,space,0.2349,0,186,186,127,1,,,6073ef4aa2110f1236736c6d,61b900282be9a738f0b1c47e,2021-12-14_22h36.34.277,PRaM,2021.2.3,Win32,59.99520038,61b8f3437b89212fae0dfade
,,space,0.1992,0,187,187,352,1,,,6073ef4aa2110f1236736c6d,61b900282be9a738f0b1c47e,2021-12-14_22h36.34.277,PRaM,2021.2.3,Win32,59.99520038,61b8f3437b89212fae0dfade
,,space,2.1149,0,188,188,56,1,,,6073ef4aa2110f1236736c6d,61b900282be9a738f0b1c47e,2021-12-14_22h36.34.277,PRaM,2021.2.3,Win32,59.99520038,61b8f3437b89212fae0dfade
,,space,0.8913,0,189,189,209,1,,,6073ef4aa2110f1236736c6d,61b900282be9a738f0b1c47e,2021-12-14_22h36.34.277,PRaM,2021.2.3,Win32,59.99520038,61b8f3437b89212fae0dfade
,,space,0.323,0,190,190,195,1,,,6073ef4aa2110f1236736c6d,61b900282be9a738f0b1c47e,2021-12-14_22h36.34.277,PRaM,2021.2.3,Win32,59.99520038,61b8f3437b89212fae0dfade
,,space,0.0208,0,191,191,23,1,,,6073ef4aa2110f1236736c6d,61b900282be9a738f0b1c47e,2021-12-14_22h36.34.277,PRaM,2021.2.3,Win32,59.99520038,61b8f3437b89212fae0dfade
,,space,0.2049,0,192,192,303,1,,,6073ef4aa2110f1236736c6d,61b900282be9a738f0b1c47e,2021-12-14_22h36.34.277,PRaM,2021.2.3,Win32,59.99520038,61b8f3437b89212fae0dfade
,,space,0.8893,0,193,193,138,1,,,6073ef4aa2110f1236736c6d,61b900282be9a738f0b1c47e,2021-12-14_22h36.34.277,PRaM,2021.2.3,Win32,59.99520038,61b8f3437b89212fae0dfade
,,space,0.0554,0,194,194,336,1,,,6073ef4aa2110f1236736c6d,61b900282be9a738f0b1c47e,2021-12-14_22h36.34.277,PRaM,2021.2.3,Win32,59.99520038,61b8f3437b89212fae0dfade
,,space,0.0378,0,195,195,294,1,,,6073ef4aa2110f1236736c6d,61b900282be9a738f0b1c47e,2021-12-14_22h36.34.277,PRaM,2021.2.3,Win32,59.99520038,61b8f3437b89212fae0dfade
,,space,2.0785,0,196,196,137,1,,,6073ef4aa2110f1236736c6d,61b900282be9a738f0b1c47e,2021-12-14_22h36.34.277,PRaM,2021.2.3,Win32,59.99520038,61b8f3437b89212fae0dfade
,,space,0.9391,0,197,197,65,1,,,6073ef4aa2110f1236736c6d,61b900282be9a738f0b1c47e,2021-12-14_22h36.34.277,PRaM,2021.2.3,Win32,59.99520038,61b8f3437b89212fae0dfade
,,space,2.0868,0,198,198,54,1,,,6073ef4aa2110f1236736c6d,61b900282be9a738f0b1c47e,2021-12-14_22h36.34.277,PRaM,2021.2.3,Win32,59.99520038,61b8f3437b89212fae0dfade
,,space,2.4695,0,199,199,117,1,,,6073ef4aa2110f1236736c6d,61b900282be9a738f0b1c47e,2021-12-14_22h36.34.277,PRaM,2021.2.3,Win32,59.99520038,61b8f3437b89212fae0dfade
,,space,1.0949,0,200,200,330,1,,,6073ef4aa2110f1236736c6d,61b900282be9a738f0b1c47e,2021-12-14_22h36.34.277,PRaM,2021.2.3,Win32,59.99520038,61b8f3437b89212fae0dfade
,,space,1.1397,0,201,201,169,1,,,6073ef4aa2110f1236736c6d,61b900282be9a738f0b1c47e,2021-12-14_22h36.34.277,PRaM,2021.2.3,Win32,59.99520038,61b8f3437b89212fae0dfade
,,space,0.727,0,202,202,356,1,,,6073ef4aa2110f1236736c6d,61b900282be9a738f0b1c47e,2021-12-14_22h36.34.277,PRaM,2021.2.3,Win32,59.99520038,61b8f3437b89212fae0dfade
,,space,1.0923,0,203,203,27,1,,,6073ef4aa2110f1236736c6d,61b900282be9a738f0b1c47e,2021-12-14_22h36.34.277,PRaM,2021.2.3,Win32,59.99520038,61b8f3437b89212fae0dfade
,,space,1.843,0,204,204,9,1,,,6073ef4aa2110f1236736c6d,61b900282be9a738f0b1c47e,2021-12-14_22h36.34.277,PRaM,2021.2.3,Win32,59.99520038,61b8f3437b89212fae0dfade
,,space,0.6732,0,205,205,90,1,,,6073ef4aa2110f1236736c6d,61b900282be9a738f0b1c47e,2021-12-14_22h36.34.277,PRaM,2021.2.3,Win32,59.99520038,61b8f3437b89212fae0dfade
,,space,0.3718,0,206,206,266,1,,,6073ef4aa2110f1236736c6d,61b900282be9a738f0b1c47e,2021-12-14_22h36.34.277,PRaM,2021.2.3,Win32,59.99520038,61b8f3437b89212fae0dfade
,,space,0.3669,0,207,207,10,1,,,6073ef4aa2110f1236736c6d,61b900282be9a738f0b1c47e,2021-12-14_22h36.34.277,PRaM,2021.2.3,Win32,59.99520038,61b8f3437b89212fae0dfade
,,space,0.2543,0,208,208,215,1,,,6073ef4aa2110f1236736c6d,61b900282be9a738f0b1c47e,2021-12-14_22h36.34.277,PRaM,2021.2.3,Win32,59.99520038,61b8f3437b89212fae0dfade
,,space,0.4852,0,209,209,275,1,,,6073ef4aa2110f1236736c6d,61b900282be9a738f0b1c47e,2021-12-14_22h36.34.277,PRaM,2021.2.3,Win32,59.99520038,61b8f3437b89212fae0dfade
,,space,0.0786,0,210,210,301,1,,,6073ef4aa2110f1236736c6d,61b900282be9a738f0b1c47e,2021-12-14_22h36.34.277,PRaM,2021.2.3,Win32,59.99520038,61b8f3437b89212fae0dfade
,,space,0.0891,0,211,211,139,1,,,6073ef4aa2110f1236736c6d,61b900282be9a738f0b1c47e,2021-12-14_22h36.34.277,PRaM,2021.2.3,Win32,59.99520038,61b8f3437b89212fae0dfade
,,space,2.7519,0,212,212,243,1,,,6073ef4aa2110f1236736c6d,61b900282be9a738f0b1c47e,2021-12-14_22h36.34.277,PRaM,2021.2.3,Win32,59.99520038,61b8f3437b89212fae0dfade
,,space,0.8431,0,213,213,218,1,,,6073ef4aa2110f1236736c6d,61b900282be9a738f0b1c47e,2021-12-14_22h36.34.277,PRaM,2021.2.3,Win32,59.99520038,61b8f3437b89212fae0dfade
,,space,0.5723,0,214,214,246,1,,,6073ef4aa2110f1236736c6d,61b900282be9a738f0b1c47e,2021-12-14_22h36.34.277,PRaM,2021.2.3,Win32,59.99520038,61b8f3437b89212fae0dfade
,,space,0.8842,0,215,215,63,1,,,6073ef4aa2110f1236736c6d,61b900282be9a738f0b1c47e,2021-12-14_22h36.34.277,PRaM,2021.2.3,Win32,59.99520038,61b8f3437b89212fae0dfade
,,space,0.8735,0,216,216,111,1,,,6073ef4aa2110f1236736c6d,61b900282be9a738f0b1c47e,2021-12-14_22h36.34.277,PRaM,2021.2.3,Win32,59.99520038,61b8f3437b89212fae0dfade
,,space,1.3402,0,217,217,355,1,,,6073ef4aa2110f1236736c6d,61b900282be9a738f0b1c47e,2021-12-14_22h36.34.277,PRaM,2021.2.3,Win32,59.99520038,61b8f3437b89212fae0dfade
,,space,0.0018,0,218,218,130,1,,,6073ef4aa2110f1236736c6d,61b900282be9a738f0b1c47e,2021-12-14_22h36.34.277,PRaM,2021.2.3,Win32,59.99520038,61b8f3437b89212fae0dfade
,,space,1.5528,0,219,219,105,1,,,6073ef4aa2110f1236736c6d,61b900282be9a738f0b1c47e,2021-12-14_22h36.34.277,PRaM,2021.2.3,Win32,59.99520038,61b8f3437b89212fae0dfade
,,space,0.4031,0,220,220,8,1,,,6073ef4aa2110f1236736c6d,61b900282be9a738f0b1c47e,2021-12-14_22h36.34.277,PRaM,2021.2.3,Win32,59.99520038,61b8f3437b89212fae0dfade
,,space,0.6174,0,221,221,86,1,,,6073ef4aa2110f1236736c6d,61b900282be9a738f0b1c47e,2021-12-14_22h36.34.277,PRaM,2021.2.3,Win32,59.99520038,61b8f3437b89212fae0dfade
,,space,0.5003,0,222,222,331,1,,,6073ef4aa2110f1236736c6d,61b900282be9a738f0b1c47e,2021-12-14_22h36.34.277,PRaM,2021.2.3,Win32,59.99520038,61b8f3437b89212fae0dfade
,,space,0.9474,0,223,223,306,1,,,6073ef4aa2110f1236736c6d,61b900282be9a738f0b1c47e,2021-12-14_22h36.34.277,PRaM,2021.2.3,Win32,59.99520038,61b8f3437b89212fae0dfade
,,space,0.2176,0,224,224,361,1,,,6073ef4aa2110f1236736c6d,61b900282be9a738f0b1c47e,2021-12-14_22h36.34.277,PRaM,2021.2.3,Win32,59.99520038,61b8f3437b89212fae0dfade
,,space,0.3176,0,225,225,26,1,,,6073ef4aa2110f1236736c6d,61b900282be9a738f0b1c47e,2021-12-14_22h36.34.277,PRaM,2021.2.3,Win32,59.99520038,61b8f3437b89212fae0dfade
,,space,0.5855,0,226,226,13,1,,,6073ef4aa2110f1236736c6d,61b900282be9a738f0b1c47e,2021-12-14_22h36.34.277,PRaM,2021.2.3,Win32,59.99520038,61b8f3437b89212fae0dfade
,,space,0.2838,0,227,227,176,1,,,6073ef4aa2110f1236736c6d,61b900282be9a738f0b1c47e,2021-12-14_22h36.34.277,PRaM,2021.2.3,Win32,59.99520038,61b8f3437b89212fae0dfade
,,space,1.1255,0,228,228,101,1,,,6073ef4aa2110f1236736c6d,61b900282be9a738f0b1c47e,2021-12-14_22h36.34.277,PRaM,2021.2.3,Win32,59.99520038,61b8f3437b89212fae0dfade
,,space,3.9449,0,229,229,89,1,,,6073ef4aa2110f1236736c6d,61b900282be9a738f0b1c47e,2021-12-14_22h36.34.277,PRaM,2021.2.3,Win32,59.99520038,61b8f3437b89212fae0dfade
,,space,0.773,0,230,230,157,1,,,6073ef4aa2110f1236736c6d,61b900282be9a738f0b1c47e,2021-12-14_22h36.34.277,PRaM,2021.2.3,Win32,59.99520038,61b8f3437b89212fae0dfade
,,space,0.3365,0,231,231,325,1,,,6073ef4aa2110f1236736c6d,61b900282be9a738f0b1c47e,2021-12-14_22h36.34.277,PRaM,2021.2.3,Win32,59.99520038,61b8f3437b89212fae0dfade
,,space,0.3358,0,232,232,4,1,,,6073ef4aa2110f1236736c6d,61b900282be9a738f0b1c47e,2021-12-14_22h36.34.277,PRaM,2021.2.3,Win32,59.99520038,61b8f3437b89212fae0dfade
,,space,0.7015,0,233,233,259,1,,,6073ef4aa2110f1236736c6d,61b900282be9a738f0b1c47e,2021-12-14_22h36.34.277,PRaM,2021.2.3,Win32,59.99520038,61b8f3437b89212fae0dfade
,,space,0.5607,0,234,234,76,1,,,6073ef4aa2110f1236736c6d,61b900282be9a738f0b1c47e,2021-12-14_22h36.34.277,PRaM,2021.2.3,Win32,59.99520038,61b8f3437b89212fae0dfade
,,space,1.144,0,235,235,33,1,,,6073ef4aa2110f1236736c6d,61b900282be9a738f0b1c47e,2021-12-14_22h36.34.277,PRaM,2021.2.3,Win32,59.99520038,61b8f3437b89212fae0dfade
,,space,1.0047,0,236,236,3,1,,,6073ef4aa2110f1236736c6d,61b900282be9a738f0b1c47e,2021-12-14_22h36.34.277,PRaM,2021.2.3,Win32,59.99520038,61b8f3437b89212fae0dfade
,,space,1.1698,0,237,237,235,1,,,6073ef4aa2110f1236736c6d,61b900282be9a738f0b1c47e,2021-12-14_22h36.34.277,PRaM,2021.2.3,Win32,59.99520038,61b8f3437b89212fae0dfade
,,space,0.4001,0,238,238,256,1,,,6073ef4aa2110f1236736c6d,61b900282be9a738f0b1c47e,2021-12-14_22h36.34.277,PRaM,2021.2.3,Win32,59.99520038,61b8f3437b89212fae0dfade
,,space,1.2361,0,239,239,254,1,,,6073ef4aa2110f1236736c6d,61b900282be9a738f0b1c47e,2021-12-14_22h36.34.277,PRaM,2021.2.3,Win32,59.99520038,61b8f3437b89212fae0dfade
,,space,0.368,0,240,240,168,1,,,6073ef4aa2110f1236736c6d,61b900282be9a738f0b1c47e,2021-12-14_22h36.34.277,PRaM,2021.2.3,Win32,59.99520038,61b8f3437b89212fae0dfade
,,space,0.102,0,241,241,341,1,,,6073ef4aa2110f1236736c6d,61b900282be9a738f0b1c47e,2021-12-14_22h36.34.277,PRaM,2021.2.3,Win32,59.99520038,61b8f3437b89212fae0dfade
,,space,0.3031,0,242,242,269,1,,,6073ef4aa2110f1236736c6d,61b900282be9a738f0b1c47e,2021-12-14_22h36.34.277,PRaM,2021.2.3,Win32,59.99520038,61b8f3437b89212fae0dfade
,,space,1.735,0,243,243,53,1,,,6073ef4aa2110f1236736c6d,61b900282be9a738f0b1c47e,2021-12-14_22h36.34.277,PRaM,2021.2.3,Win32,59.99520038,61b8f3437b89212fae0dfade
,,space,0.3114,0,244,244,167,1,,,6073ef4aa2110f1236736c6d,61b900282be9a738f0b1c47e,2021-12-14_22h36.34.277,PRaM,2021.2.3,Win32,59.99520038,61b8f3437b89212fae0dfade
,,space,1.9081,0,245,245,205,1,,,6073ef4aa2110f1236736c6d,61b900282be9a738f0b1c47e,2021-12-14_22h36.34.277,PRaM,2021.2.3,Win32,59.99520038,61b8f3437b89212fae0dfade
,,space,0.4144,0,246,246,70,1,,,6073ef4aa2110f1236736c6d,61b900282be9a738f0b1c47e,2021-12-14_22h36.34.277,PRaM,2021.2.3,Win32,59.99520038,61b8f3437b89212fae0dfade
,,space,0.7897,0,247,247,217,1,,,6073ef4aa2110f1236736c6d,61b900282be9a738f0b1c47e,2021-12-14_22h36.34.277,PRaM,2021.2.3,Win32,59.99520038,61b8f3437b89212fae0dfade
,,space,0.5391,0,248,248,372,1,,,6073ef4aa2110f1236736c6d,61b900282be9a738f0b1c47e,2021-12-14_22h36.34.277,PRaM,2021.2.3,Win32,59.99520038,61b8f3437b89212fae0dfade
,,space,1.9309,0,249,249,112,1,,,6073ef4aa2110f1236736c6d,61b900282be9a738f0b1c47e,2021-12-14_22h36.34.277,PRaM,2021.2.3,Win32,59.99520038,61b8f3437b89212fae0dfade
,,space,0.6688,0,250,250,77,1,,,6073ef4aa2110f1236736c6d,61b900282be9a738f0b1c47e,2021-12-14_22h36.34.277,PRaM,2021.2.3,Win32,59.99520038,61b8f3437b89212fae0dfade
,,space,1.5534,0,251,251,216,1,,,6073ef4aa2110f1236736c6d,61b900282be9a738f0b1c47e,2021-12-14_22h36.34.277,PRaM,2021.2.3,Win32,59.99520038,61b8f3437b89212fae0dfade
,,space,0.2523,0,252,252,193,1,,,6073ef4aa2110f1236736c6d,61b900282be9a738f0b1c47e,2021-12-14_22h36.34.277,PRaM,2021.2.3,Win32,59.99520038,61b8f3437b89212fae0dfade
,,space,1.3188,0,253,253,149,1,,,6073ef4aa2110f1236736c6d,61b900282be9a738f0b1c47e,2021-12-14_22h36.34.277,PRaM,2021.2.3,Win32,59.99520038,61b8f3437b89212fae0dfade
,,space,0.0385,0,254,254,339,1,,,6073ef4aa2110f1236736c6d,61b900282be9a738f0b1c47e,2021-12-14_22h36.34.277,PRaM,2021.2.3,Win32,59.99520038,61b8f3437b89212fae0dfade
,,space,2.3757,0,255,255,208,1,,,6073ef4aa2110f1236736c6d,61b900282be9a738f0b1c47e,2021-12-14_22h36.34.277,PRaM,2021.2.3,Win32,59.99520038,61b8f3437b89212fae0dfade
,,space,0.5609,0,256,256,182,1,,,6073ef4aa2110f1236736c6d,61b900282be9a738f0b1c47e,2021-12-14_22h36.34.277,PRaM,2021.2.3,Win32,59.99520038,61b8f3437b89212fae0dfade
,,space,1.8796,0,257,257,91,1,,,6073ef4aa2110f1236736c6d,61b900282be9a738f0b1c47e,2021-12-14_22h36.34.277,PRaM,2021.2.3,Win32,59.99520038,61b8f3437b89212fae0dfade
,,space,1.1713,0,258,258,35,1,,,6073ef4aa2110f1236736c6d,61b900282be9a738f0b1c47e,2021-12-14_22h36.34.277,PRaM,2021.2.3,Win32,59.99520038,61b8f3437b89212fae0dfade
,,space,1.8579,0,259,259,122,1,,,6073ef4aa2110f1236736c6d,61b900282be9a738f0b1c47e,2021-12-14_22h36.34.277,PRaM,2021.2.3,Win32,59.99520038,61b8f3437b89212fae0dfade
,,space,1.8262,0,260,260,327,1,,,6073ef4aa2110f1236736c6d,61b900282be9a738f0b1c47e,2021-12-14_22h36.34.277,PRaM,2021.2.3,Win32,59.99520038,61b8f3437b89212fae0dfade
,,space,0.8035,0,261,261,260,1,,,6073ef4aa2110f1236736c6d,61b900282be9a738f0b1c47e,2021-12-14_22h36.34.277,PRaM,2021.2.3,Win32,59.99520038,61b8f3437b89212fae0dfade
,,space,1.8352,0,262,262,196,1,,,6073ef4aa2110f1236736c6d,61b900282be9a738f0b1c47e,2021-12-14_22h36.34.277,PRaM,2021.2.3,Win32,59.99520038,61b8f3437b89212fae0dfade
,,space,0.9187,0,263,263,119,1,,,6073ef4aa2110f1236736c6d,61b900282be9a738f0b1c47e,2021-12-14_22h36.34.277,PRaM,2021.2.3,Win32,59.99520038,61b8f3437b89212fae0dfade
,,space,0.6222,0,264,264,115,1,,,6073ef4aa2110f1236736c6d,61b900282be9a738f0b1c47e,2021-12-14_22h36.34.277,PRaM,2021.2.3,Win32,59.99520038,61b8f3437b89212fae0dfade
,,space,0.8037,0,265,265,135,1,,,6073ef4aa2110f1236736c6d,61b900282be9a738f0b1c47e,2021-12-14_22h36.34.277,PRaM,2021.2.3,Win32,59.99520038,61b8f3437b89212fae0dfade
,,space,0.4031,0,266,266,353,1,,,6073ef4aa2110f1236736c6d,61b900282be9a738f0b1c47e,2021-12-14_22h36.34.277,PRaM,2021.2.3,Win32,59.99520038,61b8f3437b89212fae0dfade
,,space,3.466,0,267,267,147,1,,,6073ef4aa2110f1236736c6d,61b900282be9a738f0b1c47e,2021-12-14_22h36.34.277,PRaM,2021.2.3,Win32,59.99520038,61b8f3437b89212fae0dfade
,,space,1.6375,0,268,268,48,1,,,6073ef4aa2110f1236736c6d,61b900282be9a738f0b1c47e,2021-12-14_22h36.34.277,PRaM,2021.2.3,Win32,59.99520038,61b8f3437b89212fae0dfade
,,space,0.6812,0,269,269,50,1,,,6073ef4aa2110f1236736c6d,61b900282be9a738f0b1c47e,2021-12-14_22h36.34.277,PRaM,2021.2.3,Win32,59.99520038,61b8f3437b89212fae0dfade
,,space,0.5813,0,270,270,17,1,,,6073ef4aa2110f1236736c6d,61b900282be9a738f0b1c47e,2021-12-14_22h36.34.277,PRaM,2021.2.3,Win32,59.99520038,61b8f3437b89212fae0dfade
,,space,0.5525,0,271,271,97,1,,,6073ef4aa2110f1236736c6d,61b900282be9a738f0b1c47e,2021-12-14_22h36.34.277,PRaM,2021.2.3,Win32,59.99520038,61b8f3437b89212fae0dfade
,,space,0.9365,0,272,272,187,1,,,6073ef4aa2110f1236736c6d,61b900282be9a738f0b1c47e,2021-12-14_22h36.34.277,PRaM,2021.2.3,Win32,59.99520038,61b8f3437b89212fae0dfade
,,space,0.5702,0,273,273,237,1,,,6073ef4aa2110f1236736c6d,61b900282be9a738f0b1c47e,2021-12-14_22h36.34.277,PRaM,2021.2.3,Win32,59.99520038,61b8f3437b89212fae0dfade
,,space,1.1594,0,274,274,146,1,,,6073ef4aa2110f1236736c6d,61b900282be9a738f0b1c47e,2021-12-14_22h36.34.277,PRaM,2021.2.3,Win32,59.99520038,61b8f3437b89212fae0dfade
,,space,0.282,0,275,275,180,1,,,6073ef4aa2110f1236736c6d,61b900282be9a738f0b1c47e,2021-12-14_22h36.34.277,PRaM,2021.2.3,Win32,59.99520038,61b8f3437b89212fae0dfade
,,space,0.7214,0,276,276,74,1,,,6073ef4aa2110f1236736c6d,61b900282be9a738f0b1c47e,2021-12-14_22h36.34.277,PRaM,2021.2.3,Win32,59.99520038,61b8f3437b89212fae0dfade
,,space,0.1547,0,277,277,179,1,,,6073ef4aa2110f1236736c6d,61b900282be9a738f0b1c47e,2021-12-14_22h36.34.277,PRaM,2021.2.3,Win32,59.99520038,61b8f3437b89212fae0dfade
,,space,0.2214,0,278,278,72,1,,,6073ef4aa2110f1236736c6d,61b900282be9a738f0b1c47e,2021-12-14_22h36.34.277,PRaM,2021.2.3,Win32,59.99520038,61b8f3437b89212fae0dfade
,,space,1.2217,0,279,279,166,1,,,6073ef4aa2110f1236736c6d,61b900282be9a738f0b1c47e,2021-12-14_22h36.34.277,PRaM,2021.2.3,Win32,59.99520038,61b8f3437b89212fae0dfade
,,space,0.6852,0,280,280,82,1,,,6073ef4aa2110f1236736c6d,61b900282be9a738f0b1c47e,2021-12-14_22h36.34.277,PRaM,2021.2.3,Win32,59.99520038,61b8f3437b89212fae0dfade
,,space,1.0033,0,281,281,34,1,,,6073ef4aa2110f1236736c6d,61b900282be9a738f0b1c47e,2021-12-14_22h36.34.277,PRaM,2021.2.3,Win32,59.99520038,61b8f3437b89212fae0dfade
,,space,3.7876,0,282,282,43,1,,,6073ef4aa2110f1236736c6d,61b900282be9a738f0b1c47e,2021-12-14_22h36.34.277,PRaM,2021.2.3,Win32,59.99520038,61b8f3437b89212fae0dfade
,,space,1.6378,0,283,283,240,1,,,6073ef4aa2110f1236736c6d,61b900282be9a738f0b1c47e,2021-12-14_22h36.34.277,PRaM,2021.2.3,Win32,59.99520038,61b8f3437b89212fae0dfade
,,space,0.8742,0,284,284,281,1,,,6073ef4aa2110f1236736c6d,61b900282be9a738f0b1c47e,2021-12-14_22h36.34.277,PRaM,2021.2.3,Win32,59.99520038,61b8f3437b89212fae0dfade
,,space,2.4092,0,285,285,154,1,,,6073ef4aa2110f1236736c6d,61b900282be9a738f0b1c47e,2021-12-14_22h36.34.277,PRaM,2021.2.3,Win32,59.99520038,61b8f3437b89212fae0dfade
,,space,1.315,0,286,286,175,1,,,6073ef4aa2110f1236736c6d,61b900282be9a738f0b1c47e,2021-12-14_22h36.34.277,PRaM,2021.2.3,Win32,59.99520038,61b8f3437b89212fae0dfade
,,space,0.6889,0,287,287,344,1,,,6073ef4aa2110f1236736c6d,61b900282be9a738f0b1c47e,2021-12-14_22h36.34.277,PRaM,2021.2.3,Win32,59.99520038,61b8f3437b89212fae0dfade
,,space,0.0698,0,288,288,60,1,,,6073ef4aa2110f1236736c6d,61b900282be9a738f0b1c47e,2021-12-14_22h36.34.277,PRaM,2021.2.3,Win32,59.99520038,61b8f3437b89212fae0dfade
,,space,0.3288,0,289,289,83,1,,,6073ef4aa2110f1236736c6d,61b900282be9a738f0b1c47e,2021-12-14_22h36.34.277,PRaM,2021.2.3,Win32,59.99520038,61b8f3437b89212fae0dfade
,,space,1.078,0,290,290,345,1,,,6073ef4aa2110f1236736c6d,61b900282be9a738f0b1c47e,2021-12-14_22h36.34.277,PRaM,2021.2.3,Win32,59.99520038,61b8f3437b89212fae0dfade
,,space,0.5996,0,291,291,110,1,,,6073ef4aa2110f1236736c6d,61b900282be9a738f0b1c47e,2021-12-14_22h36.34.277,PRaM,2021.2.3,Win32,59.99520038,61b8f3437b89212fae0dfade
,,space,0.3266,0,292,292,64,1,,,6073ef4aa2110f1236736c6d,61b900282be9a738f0b1c47e,2021-12-14_22h36.34.277,PRaM,2021.2.3,Win32,59.99520038,61b8f3437b89212fae0dfade
,,space,0.4308,0,293,293,68,1,,,6073ef4aa2110f1236736c6d,61b900282be9a738f0b1c47e,2021-12-14_22h36.34.277,PRaM,2021.2.3,Win32,59.99520038,61b8f3437b89212fae0dfade
,,space,2.0209,0,294,294,289,1,,,6073ef4aa2110f1236736c6d,61b900282be9a738f0b1c47e,2021-12-14_22h36.34.277,PRaM,2021.2.3,Win32,59.99520038,61b8f3437b89212fae0dfade
,,space,0.3866,0,295,295,134,1,,,6073ef4aa2110f1236736c6d,61b900282be9a738f0b1c47e,2021-12-14_22h36.34.277,PRaM,2021.2.3,Win32,59.99520038,61b8f3437b89212fae0dfade
,,space,8.4054,0,296,296,241,1,,,6073ef4aa2110f1236736c6d,61b900282be9a738f0b1c47e,2021-12-14_22h36.34.277,PRaM,2021.2.3,Win32,59.99520038,61b8f3437b89212fae0dfade
,,space,1.7552,0,297,297,197,1,,,6073ef4aa2110f1236736c6d,61b900282be9a738f0b1c47e,2021-12-14_22h36.34.277,PRaM,2021.2.3,Win32,59.99520038,61b8f3437b89212fae0dfade
,,space,0.4725,0,298,298,188,1,,,6073ef4aa2110f1236736c6d,61b900282be9a738f0b1c47e,2021-12-14_22h36.34.277,PRaM,2021.2.3,Win32,59.99520038,61b8f3437b89212fae0dfade
,,space,0.1672,0,299,299,44,1,,,6073ef4aa2110f1236736c6d,61b900282be9a738f0b1c47e,2021-12-14_22h36.34.277,PRaM,2021.2.3,Win32,59.99520038,61b8f3437b89212fae0dfade
,,space,0.1856,0,300,300,207,1,,,6073ef4aa2110f1236736c6d,61b900282be9a738f0b1c47e,2021-12-14_22h36.34.277,PRaM,2021.2.3,Win32,59.99520038,61b8f3437b89212fae0dfade
,,space,0.1524,0,301,301,156,1,,,6073ef4aa2110f1236736c6d,61b900282be9a738f0b1c47e,2021-12-14_22h36.34.277,PRaM,2021.2.3,Win32,59.99520038,61b8f3437b89212fae0dfade
,,space,0.2662,0,302,302,46,1,,,6073ef4aa2110f1236736c6d,61b900282be9a738f0b1c47e,2021-12-14_22h36.34.277,PRaM,2021.2.3,Win32,59.99520038,61b8f3437b89212fae0dfade
,,space,0.4837,0,303,303,108,1,,,6073ef4aa2110f1236736c6d,61b900282be9a738f0b1c47e,2021-12-14_22h36.34.277,PRaM,2021.2.3,Win32,59.99520038,61b8f3437b89212fae0dfade
,,space,0.8532,0,304,304,131,1,,,6073ef4aa2110f1236736c6d,61b900282be9a738f0b1c47e,2021-12-14_22h36.34.277,PRaM,2021.2.3,Win32,59.99520038,61b8f3437b89212fae0dfade
,,space,0.6882,0,305,305,114,1,,,6073ef4aa2110f1236736c6d,61b900282be9a738f0b1c47e,2021-12-14_22h36.34.277,PRaM,2021.2.3,Win32,59.99520038,61b8f3437b89212fae0dfade
,,space,0.5698,0,306,306,211,1,,,6073ef4aa2110f1236736c6d,61b900282be9a738f0b1c47e,2021-12-14_22h36.34.277,PRaM,2021.2.3,Win32,59.99520038,61b8f3437b89212fae0dfade
,,space,0.219,0,307,307,1,1,,,6073ef4aa2110f1236736c6d,61b900282be9a738f0b1c47e,2021-12-14_22h36.34.277,PRaM,2021.2.3,Win32,59.99520038,61b8f3437b89212fae0dfade
,,space,0.9896,0,308,308,75,1,,,6073ef4aa2110f1236736c6d,61b900282be9a738f0b1c47e,2021-12-14_22h36.34.277,PRaM,2021.2.3,Win32,59.99520038,61b8f3437b89212fae0dfade
,,space,0.3251,0,309,309,116,1,,,6073ef4aa2110f1236736c6d,61b900282be9a738f0b1c47e,2021-12-14_22h36.34.277,PRaM,2021.2.3,Win32,59.99520038,61b8f3437b89212fae0dfade
,,space,0.0121,0,310,310,311,1,,,6073ef4aa2110f1236736c6d,61b900282be9a738f0b1c47e,2021-12-14_22h36.34.277,PRaM,2021.2.3,Win32,59.99520038,61b8f3437b89212fae0dfade
,,space,1.3617,0,311,311,323,1,,,6073ef4aa2110f1236736c6d,61b900282be9a738f0b1c47e,2021-12-14_22h36.34.277,PRaM,2021.2.3,Win32,59.99520038,61b8f3437b89212fae0dfade
,,space,1.9097,0,312,312,224,1,,,6073ef4aa2110f1236736c6d,61b900282be9a738f0b1c47e,2021-12-14_22h36.34.277,PRaM,2021.2.3,Win32,59.99520038,61b8f3437b89212fae0dfade
,,space,1.1168,0,313,313,373,1,,,6073ef4aa2110f1236736c6d,61b900282be9a738f0b1c47e,2021-12-14_22h36.34.277,PRaM,2021.2.3,Win32,59.99520038,61b8f3437b89212fae0dfade
,,space,0.375,0,314,314,210,1,,,6073ef4aa2110f1236736c6d,61b900282be9a738f0b1c47e,2021-12-14_22h36.34.277,PRaM,2021.2.3,Win32,59.99520038,61b8f3437b89212fae0dfade
,,space,0.2232,0,315,315,113,1,,,6073ef4aa2110f1236736c6d,61b900282be9a738f0b1c47e,2021-12-14_22h36.34.277,PRaM,2021.2.3,Win32,59.99520038,61b8f3437b89212fae0dfade
,,space,1.474,0,316,316,148,1,,,6073ef4aa2110f1236736c6d,61b900282be9a738f0b1c47e,2021-12-14_22h36.34.277,PRaM,2021.2.3,Win32,59.99520038,61b8f3437b89212fae0dfade
,,space,0.3744,0,317,317,140,1,,,6073ef4aa2110f1236736c6d,61b900282be9a738f0b1c47e,2021-12-14_22h36.34.277,PRaM,2021.2.3,Win32,59.99520038,61b8f3437b89212fae0dfade
,,space,0.1402,0,318,318,212,1,,,6073ef4aa2110f1236736c6d,61b900282be9a738f0b1c47e,2021-12-14_22h36.34.277,PRaM,2021.2.3,Win32,59.99520038,61b8f3437b89212fae0dfade
,,space,0.2534,0,319,319,73,1,,,6073ef4aa2110f1236736c6d,61b900282be9a738f0b1c47e,2021-12-14_22h36.34.277,PRaM,2021.2.3,Win32,59.99520038,61b8f3437b89212fae0dfade
,,space,0.2855,0,320,320,364,1,,,6073ef4aa2110f1236736c6d,61b900282be9a738f0b1c47e,2021-12-14_22h36.34.277,PRaM,2021.2.3,Win32,59.99520038,61b8f3437b89212fae0dfade
,,space,0.3684,0,321,321,238,1,,,6073ef4aa2110f1236736c6d,61b900282be9a738f0b1c47e,2021-12-14_22h36.34.277,PRaM,2021.2.3,Win32,59.99520038,61b8f3437b89212fae0dfade
,,space,0.5526,0,322,322,104,1,,,6073ef4aa2110f1236736c6d,61b900282be9a738f0b1c47e,2021-12-14_22h36.34.277,PRaM,2021.2.3,Win32,59.99520038,61b8f3437b89212fae0dfade
,,space,0.0366,0,323,323,49,1,,,6073ef4aa2110f1236736c6d,61b900282be9a738f0b1c47e,2021-12-14_22h36.34.277,PRaM,2021.2.3,Win32,59.99520038,61b8f3437b89212fae0dfade
,,space,2.2517,0,324,324,234,1,,,6073ef4aa2110f1236736c6d,61b900282be9a738f0b1c47e,2021-12-14_22h36.34.277,PRaM,2021.2.3,Win32,59.99520038,61b8f3437b89212fae0dfade
,,space,0.0802,0,325,325,351,1,,,6073ef4aa2110f1236736c6d,61b900282be9a738f0b1c47e,2021-12-14_22h36.34.277,PRaM,2021.2.3,Win32,59.99520038,61b8f3437b89212fae0dfade
,,space,0.0584,0,326,326,185,1,,,6073ef4aa2110f1236736c6d,61b900282be9a738f0b1c47e,2021-12-14_22h36.34.277,PRaM,2021.2.3,Win32,59.99520038,61b8f3437b89212fae0dfade
,,space,1.7212,0,327,327,236,1,,,6073ef4aa2110f1236736c6d,61b900282be9a738f0b1c47e,2021-12-14_22h36.34.277,PRaM,2021.2.3,Win32,59.99520038,61b8f3437b89212fae0dfade
,,space,1.1998,0,328,328,307,1,,,6073ef4aa2110f1236736c6d,61b900282be9a738f0b1c47e,2021-12-14_22h36.34.277,PRaM,2021.2.3,Win32,59.99520038,61b8f3437b89212fae0dfade
,,space,0.4555,0,329,329,287,1,,,6073ef4aa2110f1236736c6d,61b900282be9a738f0b1c47e,2021-12-14_22h36.34.277,PRaM,2021.2.3,Win32,59.99520038,61b8f3437b89212fae0dfade
,,space,1.3773,0,330,330,317,1,,,6073ef4aa2110f1236736c6d,61b900282be9a738f0b1c47e,2021-12-14_22h36.34.277,PRaM,2021.2.3,Win32,59.99520038,61b8f3437b89212fae0dfade
,,space,0.1309,0,331,331,329,1,,,6073ef4aa2110f1236736c6d,61b900282be9a738f0b1c47e,2021-12-14_22h36.34.277,PRaM,2021.2.3,Win32,59.99520038,61b8f3437b89212fae0dfade
,,space,0.251,0,332,332,162,1,,,6073ef4aa2110f1236736c6d,61b900282be9a738f0b1c47e,2021-12-14_22h36.34.277,PRaM,2021.2.3,Win32,59.99520038,61b8f3437b89212fae0dfade
,,space,0.8015,0,333,333,203,1,,,6073ef4aa2110f1236736c6d,61b900282be9a738f0b1c47e,2021-12-14_22h36.34.277,PRaM,2021.2.3,Win32,59.99520038,61b8f3437b89212fae0dfade
,,space,0.3171,0,334,334,316,1,,,6073ef4aa2110f1236736c6d,61b900282be9a738f0b1c47e,2021-12-14_22h36.34.277,PRaM,2021.2.3,Win32,59.99520038,61b8f3437b89212fae0dfade
,,space,1.247,0,335,335,242,1,,,6073ef4aa2110f1236736c6d,61b900282be9a738f0b1c47e,2021-12-14_22h36.34.277,PRaM,2021.2.3,Win32,59.99520038,61b8f3437b89212fae0dfade
,,space,0.5474,0,336,336,225,1,,,6073ef4aa2110f1236736c6d,61b900282be9a738f0b1c47e,2021-12-14_22h36.34.277,PRaM,2021.2.3,Win32,59.99520038,61b8f3437b89212fae0dfade
,,space,1.3111,0,337,337,71,1,,,6073ef4aa2110f1236736c6d,61b900282be9a738f0b1c47e,2021-12-14_22h36.34.277,PRaM,2021.2.3,Win32,59.99520038,61b8f3437b89212fae0dfade
,,space,1.3879,0,338,338,79,1,,,6073ef4aa2110f1236736c6d,61b900282be9a738f0b1c47e,2021-12-14_22h36.34.277,PRaM,2021.2.3,Win32,59.99520038,61b8f3437b89212fae0dfade
,,space,0.1807,0,339,339,206,1,,,6073ef4aa2110f1236736c6d,61b900282be9a738f0b1c47e,2021-12-14_22h36.34.277,PRaM,2021.2.3,Win32,59.99520038,61b8f3437b89212fae0dfade
,,space,0.1566,0,340,340,20,1,,,6073ef4aa2110f1236736c6d,61b900282be9a738f0b1c47e,2021-12-14_22h36.34.277,PRaM,2021.2.3,Win32,59.99520038,61b8f3437b89212fae0dfade
,,space,0.4147,0,341,341,335,1,,,6073ef4aa2110f1236736c6d,61b900282be9a738f0b1c47e,2021-12-14_22h36.34.277,PRaM,2021.2.3,Win32,59.99520038,61b8f3437b89212fae0dfade
,,space,0.2194,0,342,342,365,1,,,6073ef4aa2110f1236736c6d,61b900282be9a738f0b1c47e,2021-12-14_22h36.34.277,PRaM,2021.2.3,Win32,59.99520038,61b8f3437b89212fae0dfade
,,space,1.5729,0,343,343,151,1,,,6073ef4aa2110f1236736c6d,61b900282be9a738f0b1c47e,2021-12-14_22h36.34.277,PRaM,2021.2.3,Win32,59.99520038,61b8f3437b89212fae0dfade
,,space,0.9826,0,344,344,213,1,,,6073ef4aa2110f1236736c6d,61b900282be9a738f0b1c47e,2021-12-14_22h36.34.277,PRaM,2021.2.3,Win32,59.99520038,61b8f3437b89212fae0dfade
,,space,0.0403,0,345,345,191,1,,,6073ef4aa2110f1236736c6d,61b900282be9a738f0b1c47e,2021-12-14_22h36.34.277,PRaM,2021.2.3,Win32,59.99520038,61b8f3437b89212fae0dfade
,,space,1.0179,0,346,346,324,1,,,6073ef4aa2110f1236736c6d,61b900282be9a738f0b1c47e,2021-12-14_22h36.34.277,PRaM,2021.2.3,Win32,59.99520038,61b8f3437b89212fae0dfade
,,space,1.2729,0,347,347,67,1,,,6073ef4aa2110f1236736c6d,61b900282be9a738f0b1c47e,2021-12-14_22h36.34.277,PRaM,2021.2.3,Win32,59.99520038,61b8f3437b89212fae0dfade
,,space,1.9083,0,348,348,284,1,,,6073ef4aa2110f1236736c6d,61b900282be9a738f0b1c47e,2021-12-14_22h36.34.277,PRaM,2021.2.3,Win32,59.99520038,61b8f3437b89212fae0dfade
,,space,0.6492,0,349,349,103,1,,,6073ef4aa2110f1236736c6d,61b900282be9a738f0b1c47e,2021-12-14_22h36.34.277,PRaM,2021.2.3,Win32,59.99520038,61b8f3437b89212fae0dfade
,,space,0.0904,0,350,350,295,1,,,6073ef4aa2110f1236736c6d,61b900282be9a738f0b1c47e,2021-12-14_22h36.34.277,PRaM,2021.2.3,Win32,59.99520038,61b8f3437b89212fae0dfade
,,space,1.1462,0,351,351,233,1,,,6073ef4aa2110f1236736c6d,61b900282be9a738f0b1c47e,2021-12-14_22h36.34.277,PRaM,2021.2.3,Win32,59.99520038,61b8f3437b89212fae0dfade
,,space,0.938,0,352,352,170,1,,,6073ef4aa2110f1236736c6d,61b900282be9a738f0b1c47e,2021-12-14_22h36.34.277,PRaM,2021.2.3,Win32,59.99520038,61b8f3437b89212fae0dfade
,,space,0.2993,0,353,353,84,1,,,6073ef4aa2110f1236736c6d,61b900282be9a738f0b1c47e,2021-12-14_22h36.34.277,PRaM,2021.2.3,Win32,59.99520038,61b8f3437b89212fae0dfade
,,space,1.5023,0,354,354,277,1,,,6073ef4aa2110f1236736c6d,61b900282be9a738f0b1c47e,2021-12-14_22h36.34.277,PRaM,2021.2.3,Win32,59.99520038,61b8f3437b89212fae0dfade
,,space,0.4938,0,355,355,30,1,,,6073ef4aa2110f1236736c6d,61b900282be9a738f0b1c47e,2021-12-14_22h36.34.277,PRaM,2021.2.3,Win32,59.99520038,61b8f3437b89212fae0dfade
,,space,0.9203,0,356,356,152,1,,,6073ef4aa2110f1236736c6d,61b900282be9a738f0b1c47e,2021-12-14_22h36.34.277,PRaM,2021.2.3,Win32,59.99520038,61b8f3437b89212fae0dfade
,,space,0.0118,0,357,357,253,1,,,6073ef4aa2110f1236736c6d,61b900282be9a738f0b1c47e,2021-12-14_22h36.34.277,PRaM,2021.2.3,Win32,59.99520038,61b8f3437b89212fae0dfade
,,space,0.8863,0,358,358,0,1,,,6073ef4aa2110f1236736c6d,61b900282be9a738f0b1c47e,2021-12-14_22h36.34.277,PRaM,2021.2.3,Win32,59.99520038,61b8f3437b89212fae0dfade
,,space,0.6522,0,359,359,320,1,,,6073ef4aa2110f1236736c6d,61b900282be9a738f0b1c47e,2021-12-14_22h36.34.277,PRaM,2021.2.3,Win32,59.99520038,61b8f3437b89212fae0dfade
,,space,0.7354,0,360,360,136,1,,,6073ef4aa2110f1236736c6d,61b900282be9a738f0b1c47e,2021-12-14_22h36.34.277,PRaM,2021.2.3,Win32,59.99520038,61b8f3437b89212fae0dfade
,,space,0.2605,0,361,361,19,1,,,6073ef4aa2110f1236736c6d,61b900282be9a738f0b1c47e,2021-12-14_22h36.34.277,PRaM,2021.2.3,Win32,59.99520038,61b8f3437b89212fae0dfade
,,space,1.1028,0,362,362,285,1,,,6073ef4aa2110f1236736c6d,61b900282be9a738f0b1c47e,2021-12-14_22h36.34.277,PRaM,2021.2.3,Win32,59.99520038,61b8f3437b89212fae0dfade
,,space,0.4106,0,363,363,273,1,,,6073ef4aa2110f1236736c6d,61b900282be9a738f0b1c47e,2021-12-14_22h36.34.277,PRaM,2021.2.3,Win32,59.99520038,61b8f3437b89212fae0dfade
,,space,1.2666,0,364,364,183,1,,,6073ef4aa2110f1236736c6d,61b900282be9a738f0b1c47e,2021-12-14_22h36.34.277,PRaM,2021.2.3,Win32,59.99520038,61b8f3437b89212fae0dfade
,,space,0.1517,0,365,365,109,1,,,6073ef4aa2110f1236736c6d,61b900282be9a738f0b1c47e,2021-12-14_22h36.34.277,PRaM,2021.2.3,Win32,59.99520038,61b8f3437b89212fae0dfade
,,space,0.0621,0,366,366,81,1,,,6073ef4aa2110f1236736c6d,61b900282be9a738f0b1c47e,2021-12-14_22h36.34.277,PRaM,2021.2.3,Win32,59.99520038,61b8f3437b89212fae0dfade
,,space,0.3693,0,367,367,42,1,,,6073ef4aa2110f1236736c6d,61b900282be9a738f0b1c47e,2021-12-14_22h36.34.277,PRaM,2021.2.3,Win32,59.99520038,61b8f3437b89212fae0dfade
,,space,0.2933,0,368,368,47,1,,,6073ef4aa2110f1236736c6d,61b900282be9a738f0b1c47e,2021-12-14_22h36.34.277,PRaM,2021.2.3,Win32,59.99520038,61b8f3437b89212fae0dfade
,,space,0.0564,0,369,369,11,1,,,6073ef4aa2110f1236736c6d,61b900282be9a738f0b1c47e,2021-12-14_22h36.34.277,PRaM,2021.2.3,Win32,59.99520038,61b8f3437b89212fae0dfade
,,space,0.1991,0,370,370,226,1,,,6073ef4aa2110f1236736c6d,61b900282be9a738f0b1c47e,2021-12-14_22h36.34.277,PRaM,2021.2.3,Win32,59.99520038,61b8f3437b89212fae0dfade
,,space,0.1552,0,371,371,155,1,,,6073ef4aa2110f1236736c6d,61b900282be9a738f0b1c47e,2021-12-14_22h36.34.277,PRaM,2021.2.3,Win32,59.99520038,61b8f3437b89212fae0dfade
,,space,0.5282,0,372,372,186,1,,,6073ef4aa2110f1236736c6d,61b900282be9a738f0b1c47e,2021-12-14_22h36.34.277,PRaM,2021.2.3,Win32,59.99520038,61b8f3437b89212fae0dfade
,,space,0.4662,0,373,373,313,1,,,6073ef4aa2110f1236736c6d,61b900282be9a738f0b1c47e,2021-12-14_22h36.34.277,PRaM,2021.2.3,Win32,59.99520038,61b8f3437b89212fae0dfade
,,space,2.2831,0,374,374,362,1,,,6073ef4aa2110f1236736c6d,61b900282be9a738f0b1c47e,2021-12-14_22h36.34.277,PRaM,2021.2.3,Win32,59.99520038,61b8f3437b89212fae0dfade
,,space,0.0516,0,375,375,257,1,,,6073ef4aa2110f1236736c6d,61b900282be9a738f0b1c47e,2021-12-14_22h36.34.277,PRaM,2021.2.3,Win32,59.99520038,61b8f3437b89212fae0dfade
,,space,0.1851,0,376,376,347,1,,,6073ef4aa2110f1236736c6d,61b900282be9a738f0b1c47e,2021-12-14_22h36.34.277,PRaM,2021.2.3,Win32,59.99520038,61b8f3437b89212fae0dfade
,,space,0.2389,0,377,377,219,1,,,6073ef4aa2110f1236736c6d,61b900282be9a738f0b1c47e,2021-12-14_22h36.34.277,PRaM,2021.2.3,Win32,59.99520038,61b8f3437b89212fae0dfade
