Rating.response,Rating.rt,EndTrial.keys,EndTrial.rt,trials.thisRepN,trials.thisTrialN,trials.thisN,trials.thisIndex,trials.ran,Pos1,Pos2,participant,session,date,expName,psychopyVersion,OS,frameRate,study_id
7,5.0527,space,6.632,0,0,0,84,1,,,6074b929f753216d88c77e88,6437854ebe36cf8b67577e99,2023-04-12_21h43.18.166,PRaM,2021.2.3,Win32,164.9348507,61b8f3437b89212fae0dfade
3,6.1168,space,4.4641,0,1,1,205,1,,,6074b929f753216d88c77e88,6437854ebe36cf8b67577e99,2023-04-12_21h43.18.166,PRaM,2021.2.3,Win32,164.9348507,61b8f3437b89212fae0dfade
8,5.4417,space,3.8147,0,2,2,301,1,,,6074b929f753216d88c77e88,6437854ebe36cf8b67577e99,2023-04-12_21h43.18.166,PRaM,2021.2.3,Win32,164.9348507,61b8f3437b89212fae0dfade
2,2.6779,space,1.1752,0,3,3,122,1,,,6074b929f753216d88c77e88,6437854ebe36cf8b67577e99,2023-04-12_21h43.18.166,PRaM,2021.2.3,Win32,164.9348507,61b8f3437b89212fae0dfade
2,2.5493,space,0.8425,0,4,4,185,1,,,6074b929f753216d88c77e88,6437854ebe36cf8b67577e99,2023-04-12_21h43.18.166,PRaM,2021.2.3,Win32,164.9348507,61b8f3437b89212fae0dfade
5,5.6538,space,5.054,0,5,5,254,1,,,6074b929f753216d88c77e88,6437854ebe36cf8b67577e99,2023-04-12_21h43.18.166,PRaM,2021.2.3,Win32,164.9348507,61b8f3437b89212fae0dfade
5,3.7502,space,2.9359,0,6,6,369,1,,,6074b929f753216d88c77e88,6437854ebe36cf8b67577e99,2023-04-12_21h43.18.166,PRaM,2021.2.3,Win32,164.9348507,61b8f3437b89212fae0dfade
2,4.4933,space,2.7855,0,7,7,245,1,,,6074b929f753216d88c77e88,6437854ebe36cf8b67577e99,2023-04-12_21h43.18.166,PRaM,2021.2.3,Win32,164.9348507,61b8f3437b89212fae0dfade
2,3.789,space,2.4994,0,8,8,187,1,,,6074b929f753216d88c77e88,6437854ebe36cf8b67577e99,2023-04-12_21h43.18.166,PRaM,2021.2.3,Win32,164.9348507,61b8f3437b89212fae0dfade
2,4.201,space,2.5087,0,9,9,176,1,,,6074b929f753216d88c77e88,6437854ebe36cf8b67577e99,2023-04-12_21h43.18.166,PRaM,2021.2.3,Win32,164.9348507,61b8f3437b89212fae0dfade
3,3.2109,space,1.558,0,10,10,360,1,,,6074b929f753216d88c77e88,6437854ebe36cf8b67577e99,2023-04-12_21h43.18.166,PRaM,2021.2.3,Win32,164.9348507,61b8f3437b89212fae0dfade
8,6.5381,space,5.2871,0,11,11,90,1,,,6074b929f753216d88c77e88,6437854ebe36cf8b67577e99,2023-04-12_21h43.18.166,PRaM,2021.2.3,Win32,164.9348507,61b8f3437b89212fae0dfade
6,4.1657,space,2.4988,0,12,12,221,1,,,6074b929f753216d88c77e88,6437854ebe36cf8b67577e99,2023-04-12_21h43.18.166,PRaM,2021.2.3,Win32,164.9348507,61b8f3437b89212fae0dfade
9,2.6148,space,1.1066,0,13,13,225,1,,,6074b929f753216d88c77e88,6437854ebe36cf8b67577e99,2023-04-12_21h43.18.166,PRaM,2021.2.3,Win32,164.9348507,61b8f3437b89212fae0dfade
3,4.0866,space,2.4361,0,14,14,220,1,,,6074b929f753216d88c77e88,6437854ebe36cf8b67577e99,2023-04-12_21h43.18.166,PRaM,2021.2.3,Win32,164.9348507,61b8f3437b89212fae0dfade
3,4.4015,space,2.7602,0,15,15,231,1,,,6074b929f753216d88c77e88,6437854ebe36cf8b67577e99,2023-04-12_21h43.18.166,PRaM,2021.2.3,Win32,164.9348507,61b8f3437b89212fae0dfade
3,2.1084,space,0.2788,0,16,16,314,1,,,6074b929f753216d88c77e88,6437854ebe36cf8b67577e99,2023-04-12_21h43.18.166,PRaM,2021.2.3,Win32,164.9348507,61b8f3437b89212fae0dfade
5,2.5471,space,0.9099,0,17,17,194,1,,,6074b929f753216d88c77e88,6437854ebe36cf8b67577e99,2023-04-12_21h43.18.166,PRaM,2021.2.3,Win32,164.9348507,61b8f3437b89212fae0dfade
3,1.8463,space,0.1604,0,18,18,24,1,,,6074b929f753216d88c77e88,6437854ebe36cf8b67577e99,2023-04-12_21h43.18.166,PRaM,2021.2.3,Win32,164.9348507,61b8f3437b89212fae0dfade
2,2.5207,space,0.7774,0,19,19,2,1,,,6074b929f753216d88c77e88,6437854ebe36cf8b67577e99,2023-04-12_21h43.18.166,PRaM,2021.2.3,Win32,164.9348507,61b8f3437b89212fae0dfade
3,3.0257,space,1.3949,0,20,20,141,1,,,6074b929f753216d88c77e88,6437854ebe36cf8b67577e99,2023-04-12_21h43.18.166,PRaM,2021.2.3,Win32,164.9348507,61b8f3437b89212fae0dfade
4,4.8169,space,3.0545,0,21,21,118,1,,,6074b929f753216d88c77e88,6437854ebe36cf8b67577e99,2023-04-12_21h43.18.166,PRaM,2021.2.3,Win32,164.9348507,61b8f3437b89212fae0dfade
8,1.9753,space,0.267,0,22,22,372,1,,,6074b929f753216d88c77e88,6437854ebe36cf8b67577e99,2023-04-12_21h43.18.166,PRaM,2021.2.3,Win32,164.9348507,61b8f3437b89212fae0dfade
2,5.9803,space,4.2059,0,23,23,120,1,,,6074b929f753216d88c77e88,6437854ebe36cf8b67577e99,2023-04-12_21h43.18.166,PRaM,2021.2.3,Win32,164.9348507,61b8f3437b89212fae0dfade
2,2.5697,space,0.812,0,24,24,316,1,,,6074b929f753216d88c77e88,6437854ebe36cf8b67577e99,2023-04-12_21h43.18.166,PRaM,2021.2.3,Win32,164.9348507,61b8f3437b89212fae0dfade
3,2.109,space,0.2668,0,25,25,13,1,,,6074b929f753216d88c77e88,6437854ebe36cf8b67577e99,2023-04-12_21h43.18.166,PRaM,2021.2.3,Win32,164.9348507,61b8f3437b89212fae0dfade
5,3.0054,space,1.224,0,26,26,12,1,,,6074b929f753216d88c77e88,6437854ebe36cf8b67577e99,2023-04-12_21h43.18.166,PRaM,2021.2.3,Win32,164.9348507,61b8f3437b89212fae0dfade
4,2.4369,space,2.0854,0,27,27,238,1,,,6074b929f753216d88c77e88,6437854ebe36cf8b67577e99,2023-04-12_21h43.18.166,PRaM,2021.2.3,Win32,164.9348507,61b8f3437b89212fae0dfade
3,2.4965,space,0.7998,0,28,28,327,1,,,6074b929f753216d88c77e88,6437854ebe36cf8b67577e99,2023-04-12_21h43.18.166,PRaM,2021.2.3,Win32,164.9348507,61b8f3437b89212fae0dfade
6,1.9152,space,0.2186,0,29,29,85,1,,,6074b929f753216d88c77e88,6437854ebe36cf8b67577e99,2023-04-12_21h43.18.166,PRaM,2021.2.3,Win32,164.9348507,61b8f3437b89212fae0dfade
4,2.3142,space,0.6545,0,30,30,243,1,,,6074b929f753216d88c77e88,6437854ebe36cf8b67577e99,2023-04-12_21h43.18.166,PRaM,2021.2.3,Win32,164.9348507,61b8f3437b89212fae0dfade
3,2.3143,space,0.6186,0,31,31,241,1,,,6074b929f753216d88c77e88,6437854ebe36cf8b67577e99,2023-04-12_21h43.18.166,PRaM,2021.2.3,Win32,164.9348507,61b8f3437b89212fae0dfade
5,2.072,space,0.291,0,32,32,150,1,,,6074b929f753216d88c77e88,6437854ebe36cf8b67577e99,2023-04-12_21h43.18.166,PRaM,2021.2.3,Win32,164.9348507,61b8f3437b89212fae0dfade
7,2.4055,space,0.7274,0,33,33,274,1,,,6074b929f753216d88c77e88,6437854ebe36cf8b67577e99,2023-04-12_21h43.18.166,PRaM,2021.2.3,Win32,164.9348507,61b8f3437b89212fae0dfade
8,2.1455,space,0.4611,0,34,34,115,1,,,6074b929f753216d88c77e88,6437854ebe36cf8b67577e99,2023-04-12_21h43.18.166,PRaM,2021.2.3,Win32,164.9348507,61b8f3437b89212fae0dfade
3,2.3028,space,0.4849,0,35,35,5,1,,,6074b929f753216d88c77e88,6437854ebe36cf8b67577e99,2023-04-12_21h43.18.166,PRaM,2021.2.3,Win32,164.9348507,61b8f3437b89212fae0dfade
1,2.0125,space,0.3152,0,36,36,70,1,,,6074b929f753216d88c77e88,6437854ebe36cf8b67577e99,2023-04-12_21h43.18.166,PRaM,2021.2.3,Win32,164.9348507,61b8f3437b89212fae0dfade
3,2.393,space,0.5698,0,37,37,82,1,,,6074b929f753216d88c77e88,6437854ebe36cf8b67577e99,2023-04-12_21h43.18.166,PRaM,2021.2.3,Win32,164.9348507,61b8f3437b89212fae0dfade
3,3.054,space,1.2492,0,38,38,170,1,,,6074b929f753216d88c77e88,6437854ebe36cf8b67577e99,2023-04-12_21h43.18.166,PRaM,2021.2.3,Win32,164.9348507,61b8f3437b89212fae0dfade
4,2.0239,space,0.4005,0,39,39,183,1,,,6074b929f753216d88c77e88,6437854ebe36cf8b67577e99,2023-04-12_21h43.18.166,PRaM,2021.2.3,Win32,164.9348507,61b8f3437b89212fae0dfade
5,2.6895,space,1.0306,0,40,40,14,1,,,6074b929f753216d88c77e88,6437854ebe36cf8b67577e99,2023-04-12_21h43.18.166,PRaM,2021.2.3,Win32,164.9348507,61b8f3437b89212fae0dfade
4,5.5154,space,3.8538,0,41,41,198,1,,,6074b929f753216d88c77e88,6437854ebe36cf8b67577e99,2023-04-12_21h43.18.166,PRaM,2021.2.3,Win32,164.9348507,61b8f3437b89212fae0dfade
6,1.5878,space,0.4249,0,42,42,276,1,,,6074b929f753216d88c77e88,6437854ebe36cf8b67577e99,2023-04-12_21h43.18.166,PRaM,2021.2.3,Win32,164.9348507,61b8f3437b89212fae0dfade
3,4.5567,space,2.7882,0,43,43,247,1,,,6074b929f753216d88c77e88,6437854ebe36cf8b67577e99,2023-04-12_21h43.18.166,PRaM,2021.2.3,Win32,164.9348507,61b8f3437b89212fae0dfade
6,2.4237,space,0.7037,0,44,44,51,1,,,6074b929f753216d88c77e88,6437854ebe36cf8b67577e99,2023-04-12_21h43.18.166,PRaM,2021.2.3,Win32,164.9348507,61b8f3437b89212fae0dfade
2,3.2958,space,1.5759,0,45,45,212,1,,,6074b929f753216d88c77e88,6437854ebe36cf8b67577e99,2023-04-12_21h43.18.166,PRaM,2021.2.3,Win32,164.9348507,61b8f3437b89212fae0dfade
5,3.636,space,2.2907,0,46,46,368,1,,,6074b929f753216d88c77e88,6437854ebe36cf8b67577e99,2023-04-12_21h43.18.166,PRaM,2021.2.3,Win32,164.9348507,61b8f3437b89212fae0dfade
5,3.4538,space,2.2667,0,47,47,209,1,,,6074b929f753216d88c77e88,6437854ebe36cf8b67577e99,2023-04-12_21h43.18.166,PRaM,2021.2.3,Win32,164.9348507,61b8f3437b89212fae0dfade
2,2.6904,space,1.1143,0,48,48,349,1,,,6074b929f753216d88c77e88,6437854ebe36cf8b67577e99,2023-04-12_21h43.18.166,PRaM,2021.2.3,Win32,164.9348507,61b8f3437b89212fae0dfade
3,2.854,space,1.1393,0,49,49,36,1,,,6074b929f753216d88c77e88,6437854ebe36cf8b67577e99,2023-04-12_21h43.18.166,PRaM,2021.2.3,Win32,164.9348507,61b8f3437b89212fae0dfade
1,1.9146,space,0.3036,0,50,50,248,1,,,6074b929f753216d88c77e88,6437854ebe36cf8b67577e99,2023-04-12_21h43.18.166,PRaM,2021.2.3,Win32,164.9348507,61b8f3437b89212fae0dfade
7,3.0294,space,1.249,0,51,51,208,1,,,6074b929f753216d88c77e88,6437854ebe36cf8b67577e99,2023-04-12_21h43.18.166,PRaM,2021.2.3,Win32,164.9348507,61b8f3437b89212fae0dfade
3,10.6097,space,9.1867,0,52,52,204,1,,,6074b929f753216d88c77e88,6437854ebe36cf8b67577e99,2023-04-12_21h43.18.166,PRaM,2021.2.3,Win32,164.9348507,61b8f3437b89212fae0dfade
4,4.0054,space,2.3268,0,53,53,30,1,,,6074b929f753216d88c77e88,6437854ebe36cf8b67577e99,2023-04-12_21h43.18.166,PRaM,2021.2.3,Win32,164.9348507,61b8f3437b89212fae0dfade
6,3.0663,space,1.2853,0,54,54,159,1,,,6074b929f753216d88c77e88,6437854ebe36cf8b67577e99,2023-04-12_21h43.18.166,PRaM,2021.2.3,Win32,164.9348507,61b8f3437b89212fae0dfade
3,2.9082,space,1.2726,0,55,55,343,1,,,6074b929f753216d88c77e88,6437854ebe36cf8b67577e99,2023-04-12_21h43.18.166,PRaM,2021.2.3,Win32,164.9348507,61b8f3437b89212fae0dfade
7,1.5998,space,1.8059,0,56,56,136,1,,,6074b929f753216d88c77e88,6437854ebe36cf8b67577e99,2023-04-12_21h43.18.166,PRaM,2021.2.3,Win32,164.9348507,61b8f3437b89212fae0dfade
8,3.8545,space,2.8004,0,57,57,278,1,,,6074b929f753216d88c77e88,6437854ebe36cf8b67577e99,2023-04-12_21h43.18.166,PRaM,2021.2.3,Win32,164.9348507,61b8f3437b89212fae0dfade
4,2.7323,space,1.1154,0,58,58,93,1,,,6074b929f753216d88c77e88,6437854ebe36cf8b67577e99,2023-04-12_21h43.18.166,PRaM,2021.2.3,Win32,164.9348507,61b8f3437b89212fae0dfade
3,4.7805,space,3.1392,0,59,59,109,1,,,6074b929f753216d88c77e88,6437854ebe36cf8b67577e99,2023-04-12_21h43.18.166,PRaM,2021.2.3,Win32,164.9348507,61b8f3437b89212fae0dfade
6,2.9206,space,1.1642,0,60,60,363,1,,,6074b929f753216d88c77e88,6437854ebe36cf8b67577e99,2023-04-12_21h43.18.166,PRaM,2021.2.3,Win32,164.9348507,61b8f3437b89212fae0dfade
3,2.2775,space,0.3517,0,61,61,367,1,,,6074b929f753216d88c77e88,6437854ebe36cf8b67577e99,2023-04-12_21h43.18.166,PRaM,2021.2.3,Win32,164.9348507,61b8f3437b89212fae0dfade
5,2.1448,space,0.3042,0,62,62,288,1,,,6074b929f753216d88c77e88,6437854ebe36cf8b67577e99,2023-04-12_21h43.18.166,PRaM,2021.2.3,Win32,164.9348507,61b8f3437b89212fae0dfade
4,3.8779,space,2.1699,0,63,63,348,1,,,6074b929f753216d88c77e88,6437854ebe36cf8b67577e99,2023-04-12_21h43.18.166,PRaM,2021.2.3,Win32,164.9348507,61b8f3437b89212fae0dfade
3,4.4895,space,2.8125,0,64,64,151,1,,,6074b929f753216d88c77e88,6437854ebe36cf8b67577e99,2023-04-12_21h43.18.166,PRaM,2021.2.3,Win32,164.9348507,61b8f3437b89212fae0dfade
9,2.3503,space,0.9821,0,65,65,166,1,,,6074b929f753216d88c77e88,6437854ebe36cf8b67577e99,2023-04-12_21h43.18.166,PRaM,2021.2.3,Win32,164.9348507,61b8f3437b89212fae0dfade
8,1.8296,space,0.0972,0,66,66,323,1,,,6074b929f753216d88c77e88,6437854ebe36cf8b67577e99,2023-04-12_21h43.18.166,PRaM,2021.2.3,Win32,164.9348507,61b8f3437b89212fae0dfade
6,3.642,space,2.0244,0,67,67,182,1,,,6074b929f753216d88c77e88,6437854ebe36cf8b67577e99,2023-04-12_21h43.18.166,PRaM,2021.2.3,Win32,164.9348507,61b8f3437b89212fae0dfade
3,1.9144,space,0.2309,0,68,68,354,1,,,6074b929f753216d88c77e88,6437854ebe36cf8b67577e99,2023-04-12_21h43.18.166,PRaM,2021.2.3,Win32,164.9348507,61b8f3437b89212fae0dfade
4,2.0355,space,0.4369,0,69,69,48,1,,,6074b929f753216d88c77e88,6437854ebe36cf8b67577e99,2023-04-12_21h43.18.166,PRaM,2021.2.3,Win32,164.9348507,61b8f3437b89212fae0dfade
3,2.1689,space,0.5576,0,70,70,27,1,,,6074b929f753216d88c77e88,6437854ebe36cf8b67577e99,2023-04-12_21h43.18.166,PRaM,2021.2.3,Win32,164.9348507,61b8f3437b89212fae0dfade
2,2.2182,space,0.5461,0,71,71,74,1,,,6074b929f753216d88c77e88,6437854ebe36cf8b67577e99,2023-04-12_21h43.18.166,PRaM,2021.2.3,Win32,164.9348507,61b8f3437b89212fae0dfade
1,2.0355,space,0.4487,0,72,72,91,1,,,6074b929f753216d88c77e88,6437854ebe36cf8b67577e99,2023-04-12_21h43.18.166,PRaM,2021.2.3,Win32,164.9348507,61b8f3437b89212fae0dfade
4,3.9508,space,2.1824,0,73,73,6,1,,,6074b929f753216d88c77e88,6437854ebe36cf8b67577e99,2023-04-12_21h43.18.166,PRaM,2021.2.3,Win32,164.9348507,61b8f3437b89212fae0dfade
2,1.696,space,0.0246,0,74,74,283,1,,,6074b929f753216d88c77e88,6437854ebe36cf8b67577e99,2023-04-12_21h43.18.166,PRaM,2021.2.3,Win32,164.9348507,61b8f3437b89212fae0dfade
3,2.327,space,0.509,0,75,75,168,1,,,6074b929f753216d88c77e88,6437854ebe36cf8b67577e99,2023-04-12_21h43.18.166,PRaM,2021.2.3,Win32,164.9348507,61b8f3437b89212fae0dfade
3,6.3196,space,4.6785,0,76,76,319,1,,,6074b929f753216d88c77e88,6437854ebe36cf8b67577e99,2023-04-12_21h43.18.166,PRaM,2021.2.3,Win32,164.9348507,61b8f3437b89212fae0dfade
1,3.4174,space,1.8185,0,77,77,290,1,,,6074b929f753216d88c77e88,6437854ebe36cf8b67577e99,2023-04-12_21h43.18.166,PRaM,2021.2.3,Win32,164.9348507,61b8f3437b89212fae0dfade
7,4.6592,space,2.9453,0,78,78,3,1,,,6074b929f753216d88c77e88,6437854ebe36cf8b67577e99,2023-04-12_21h43.18.166,PRaM,2021.2.3,Win32,164.9348507,61b8f3437b89212fae0dfade
2,3.3808,space,1.6606,0,79,79,10,1,,,6074b929f753216d88c77e88,6437854ebe36cf8b67577e99,2023-04-12_21h43.18.166,PRaM,2021.2.3,Win32,164.9348507,61b8f3437b89212fae0dfade
3,1.7333,space,1.1637,0,80,80,358,1,,,6074b929f753216d88c77e88,6437854ebe36cf8b67577e99,2023-04-12_21h43.18.166,PRaM,2021.2.3,Win32,164.9348507,61b8f3437b89212fae0dfade
2,2.1452,space,0.485,0,81,81,78,1,,,6074b929f753216d88c77e88,6437854ebe36cf8b67577e99,2023-04-12_21h43.18.166,PRaM,2021.2.3,Win32,164.9348507,61b8f3437b89212fae0dfade
7,1.9149,space,0.2189,0,82,82,325,1,,,6074b929f753216d88c77e88,6437854ebe36cf8b67577e99,2023-04-12_21h43.18.166,PRaM,2021.2.3,Win32,164.9348507,61b8f3437b89212fae0dfade
3,2.0477,space,0.4243,0,83,83,232,1,,,6074b929f753216d88c77e88,6437854ebe36cf8b67577e99,2023-04-12_21h43.18.166,PRaM,2021.2.3,Win32,164.9348507,61b8f3437b89212fae0dfade
6,9.8228,space,8.0966,0,84,84,154,1,,,6074b929f753216d88c77e88,6437854ebe36cf8b67577e99,2023-04-12_21h43.18.166,PRaM,2021.2.3,Win32,164.9348507,61b8f3437b89212fae0dfade
4,2.1687,space,0.4009,0,85,85,265,1,,,6074b929f753216d88c77e88,6437854ebe36cf8b67577e99,2023-04-12_21h43.18.166,PRaM,2021.2.3,Win32,164.9348507,61b8f3437b89212fae0dfade
4,2.4353,space,0.7885,0,86,86,351,1,,,6074b929f753216d88c77e88,6437854ebe36cf8b67577e99,2023-04-12_21h43.18.166,PRaM,2021.2.3,Win32,164.9348507,61b8f3437b89212fae0dfade
2,3.4541,space,1.7943,0,87,87,237,1,,,6074b929f753216d88c77e88,6437854ebe36cf8b67577e99,2023-04-12_21h43.18.166,PRaM,2021.2.3,Win32,164.9348507,61b8f3437b89212fae0dfade
4,2.7993,space,1.0793,0,88,88,355,1,,,6074b929f753216d88c77e88,6437854ebe36cf8b67577e99,2023-04-12_21h43.18.166,PRaM,2021.2.3,Win32,164.9348507,61b8f3437b89212fae0dfade
6,2.5688,space,0.849,0,89,89,62,1,,,6074b929f753216d88c77e88,6437854ebe36cf8b67577e99,2023-04-12_21h43.18.166,PRaM,2021.2.3,Win32,164.9348507,61b8f3437b89212fae0dfade
5,2.5325,space,1.1639,0,90,90,219,1,,,6074b929f753216d88c77e88,6437854ebe36cf8b67577e99,2023-04-12_21h43.18.166,PRaM,2021.2.3,Win32,164.9348507,61b8f3437b89212fae0dfade
9,33.6985,space,32.2751,0,91,91,137,1,,,6074b929f753216d88c77e88,6437854ebe36cf8b67577e99,2023-04-12_21h43.18.166,PRaM,2021.2.3,Win32,164.9348507,61b8f3437b89212fae0dfade
7,3.2357,space,1.709,0,92,92,53,1,,,6074b929f753216d88c77e88,6437854ebe36cf8b67577e99,2023-04-12_21h43.18.166,PRaM,2021.2.3,Win32,164.9348507,61b8f3437b89212fae0dfade
5,3.7331,space,2.2187,0,93,93,296,1,,,6074b929f753216d88c77e88,6437854ebe36cf8b67577e99,2023-04-12_21h43.18.166,PRaM,2021.2.3,Win32,164.9348507,61b8f3437b89212fae0dfade
5,2.5689,space,0.8971,0,94,94,202,1,,,6074b929f753216d88c77e88,6437854ebe36cf8b67577e99,2023-04-12_21h43.18.166,PRaM,2021.2.3,Win32,164.9348507,61b8f3437b89212fae0dfade
7,2.3146,space,0.5942,0,95,95,199,1,,,6074b929f753216d88c77e88,6437854ebe36cf8b67577e99,2023-04-12_21h43.18.166,PRaM,2021.2.3,Win32,164.9348507,61b8f3437b89212fae0dfade
3,2.4174,space,0.9695,0,96,96,267,1,,,6074b929f753216d88c77e88,6437854ebe36cf8b67577e99,2023-04-12_21h43.18.166,PRaM,2021.2.3,Win32,164.9348507,61b8f3437b89212fae0dfade
5,3.3574,space,2.1582,0,97,97,105,1,,,6074b929f753216d88c77e88,6437854ebe36cf8b67577e99,2023-04-12_21h43.18.166,PRaM,2021.2.3,Win32,164.9348507,61b8f3437b89212fae0dfade
7,1.721,space,0.0974,0,98,98,230,1,,,6074b929f753216d88c77e88,6437854ebe36cf8b67577e99,2023-04-12_21h43.18.166,PRaM,2021.2.3,Win32,164.9348507,61b8f3437b89212fae0dfade
6,2.7508,space,1.1149,0,99,99,156,1,,,6074b929f753216d88c77e88,6437854ebe36cf8b67577e99,2023-04-12_21h43.18.166,PRaM,2021.2.3,Win32,164.9348507,61b8f3437b89212fae0dfade
6,1.8604,space,0.6425,0,100,100,45,1,,,6074b929f753216d88c77e88,6437854ebe36cf8b67577e99,2023-04-12_21h43.18.166,PRaM,2021.2.3,Win32,164.9348507,61b8f3437b89212fae0dfade
4,2.3753,space,0.7151,0,101,101,149,1,,,6074b929f753216d88c77e88,6437854ebe36cf8b67577e99,2023-04-12_21h43.18.166,PRaM,2021.2.3,Win32,164.9348507,61b8f3437b89212fae0dfade
6,3.3269,space,1.6608,0,102,102,98,1,,,6074b929f753216d88c77e88,6437854ebe36cf8b67577e99,2023-04-12_21h43.18.166,PRaM,2021.2.3,Win32,164.9348507,61b8f3437b89212fae0dfade
3,3.7572,space,2.0728,0,103,103,50,1,,,6074b929f753216d88c77e88,6437854ebe36cf8b67577e99,2023-04-12_21h43.18.166,PRaM,2021.2.3,Win32,164.9348507,61b8f3437b89212fae0dfade
6,2.1456,space,0.4367,0,104,104,196,1,,,6074b929f753216d88c77e88,6437854ebe36cf8b67577e99,2023-04-12_21h43.18.166,PRaM,2021.2.3,Win32,164.9348507,61b8f3437b89212fae0dfade
3,1.7209,space,0.0494,0,105,105,111,1,,,6074b929f753216d88c77e88,6437854ebe36cf8b67577e99,2023-04-12_21h43.18.166,PRaM,2021.2.3,Win32,164.9348507,61b8f3437b89212fae0dfade
2,2.4167,space,0.7759,0,106,106,97,1,,,6074b929f753216d88c77e88,6437854ebe36cf8b67577e99,2023-04-12_21h43.18.166,PRaM,2021.2.3,Win32,164.9348507,61b8f3437b89212fae0dfade
6,19.3186,space,18.442,0,107,107,173,1,,,6074b929f753216d88c77e88,6437854ebe36cf8b67577e99,2023-04-12_21h43.18.166,PRaM,2021.2.3,Win32,164.9348507,61b8f3437b89212fae0dfade
2,2.0227,space,0.7511,0,108,108,190,1,,,6074b929f753216d88c77e88,6437854ebe36cf8b67577e99,2023-04-12_21h43.18.166,PRaM,2021.2.3,Win32,164.9348507,61b8f3437b89212fae0dfade
2,2.6181,space,0.8976,0,109,109,359,1,,,6074b929f753216d88c77e88,6437854ebe36cf8b67577e99,2023-04-12_21h43.18.166,PRaM,2021.2.3,Win32,164.9348507,61b8f3437b89212fae0dfade
3,2.3994,space,0.6797,0,110,110,373,1,,,6074b929f753216d88c77e88,6437854ebe36cf8b67577e99,2023-04-12_21h43.18.166,PRaM,2021.2.3,Win32,164.9348507,61b8f3437b89212fae0dfade
6,1.9506,space,0.2294,0,111,111,47,1,,,6074b929f753216d88c77e88,6437854ebe36cf8b67577e99,2023-04-12_21h43.18.166,PRaM,2021.2.3,Win32,164.9348507,61b8f3437b89212fae0dfade
2,2.6598,space,1.0899,0,112,112,275,1,,,6074b929f753216d88c77e88,6437854ebe36cf8b67577e99,2023-04-12_21h43.18.166,PRaM,2021.2.3,Win32,164.9348507,61b8f3437b89212fae0dfade
5,2.8174,space,1.1272,0,113,113,223,1,,,6074b929f753216d88c77e88,6437854ebe36cf8b67577e99,2023-04-12_21h43.18.166,PRaM,2021.2.3,Win32,164.9348507,61b8f3437b89212fae0dfade
4,1.9149,space,0.1335,0,114,114,350,1,,,6074b929f753216d88c77e88,6437854ebe36cf8b67577e99,2023-04-12_21h43.18.166,PRaM,2021.2.3,Win32,164.9348507,61b8f3437b89212fae0dfade
7,2.3439,space,0.6428,0,115,115,86,1,,,6074b929f753216d88c77e88,6437854ebe36cf8b67577e99,2023-04-12_21h43.18.166,PRaM,2021.2.3,Win32,164.9348507,61b8f3437b89212fae0dfade
2,1.7693,space,0.0733,0,116,116,322,1,,,6074b929f753216d88c77e88,6437854ebe36cf8b67577e99,2023-04-12_21h43.18.166,PRaM,2021.2.3,Win32,164.9348507,61b8f3437b89212fae0dfade
9,2.2782,space,0.6195,0,117,117,64,1,,,6074b929f753216d88c77e88,6437854ebe36cf8b67577e99,2023-04-12_21h43.18.166,PRaM,2021.2.3,Win32,164.9348507,61b8f3437b89212fae0dfade
5,3.3818,space,1.6608,0,118,118,80,1,,,6074b929f753216d88c77e88,6437854ebe36cf8b67577e99,2023-04-12_21h43.18.166,PRaM,2021.2.3,Win32,164.9348507,61b8f3437b89212fae0dfade
2,2.0237,space,0.5214,0,119,119,353,1,,,6074b929f753216d88c77e88,6437854ebe36cf8b67577e99,2023-04-12_21h43.18.166,PRaM,2021.2.3,Win32,164.9348507,61b8f3437b89212fae0dfade
1,3.2715,space,1.7027,0,120,120,9,1,,,6074b929f753216d88c77e88,6437854ebe36cf8b67577e99,2023-04-12_21h43.18.166,PRaM,2021.2.3,Win32,164.9348507,61b8f3437b89212fae0dfade
6,3.0839,space,1.5756,0,121,121,177,1,,,6074b929f753216d88c77e88,6437854ebe36cf8b67577e99,2023-04-12_21h43.18.166,PRaM,2021.2.3,Win32,164.9348507,61b8f3437b89212fae0dfade
4,1.9159,space,0.1936,0,122,122,375,1,,,6074b929f753216d88c77e88,6437854ebe36cf8b67577e99,2023-04-12_21h43.18.166,PRaM,2021.2.3,Win32,164.9348507,61b8f3437b89212fae0dfade
2,3.2798,space,1.6117,0,123,123,144,1,,,6074b929f753216d88c77e88,6437854ebe36cf8b67577e99,2023-04-12_21h43.18.166,PRaM,2021.2.3,Win32,164.9348507,61b8f3437b89212fae0dfade
3,3.0174,space,1.2964,0,124,124,18,1,,,6074b929f753216d88c77e88,6437854ebe36cf8b67577e99,2023-04-12_21h43.18.166,PRaM,2021.2.3,Win32,164.9348507,61b8f3437b89212fae0dfade
8,2.4539,space,0.7878,0,125,125,4,1,,,6074b929f753216d88c77e88,6437854ebe36cf8b67577e99,2023-04-12_21h43.18.166,PRaM,2021.2.3,Win32,164.9348507,61b8f3437b89212fae0dfade
2,2.8134,space,1.0916,0,126,126,215,1,,,6074b929f753216d88c77e88,6437854ebe36cf8b67577e99,2023-04-12_21h43.18.166,PRaM,2021.2.3,Win32,164.9348507,61b8f3437b89212fae0dfade
4,2.6658,space,0.9938,0,127,127,271,1,,,6074b929f753216d88c77e88,6437854ebe36cf8b67577e99,2023-04-12_21h43.18.166,PRaM,2021.2.3,Win32,164.9348507,61b8f3437b89212fae0dfade
3,13.8893,space,12.1822,0,128,128,346,1,,,6074b929f753216d88c77e88,6437854ebe36cf8b67577e99,2023-04-12_21h43.18.166,PRaM,2021.2.3,Win32,164.9348507,61b8f3437b89212fae0dfade
5,2.2286,space,0.4924,0,129,129,117,1,,,6074b929f753216d88c77e88,6437854ebe36cf8b67577e99,2023-04-12_21h43.18.166,PRaM,2021.2.3,Win32,164.9348507,61b8f3437b89212fae0dfade
3,2.6708,space,1.0304,0,130,130,240,1,,,6074b929f753216d88c77e88,6437854ebe36cf8b67577e99,2023-04-12_21h43.18.166,PRaM,2021.2.3,Win32,164.9348507,61b8f3437b89212fae0dfade
4,4.3199,space,2.5331,0,131,131,216,1,,,6074b929f753216d88c77e88,6437854ebe36cf8b67577e99,2023-04-12_21h43.18.166,PRaM,2021.2.3,Win32,164.9348507,61b8f3437b89212fae0dfade
3,2.3796,space,1.2608,0,132,132,268,1,,,6074b929f753216d88c77e88,6437854ebe36cf8b67577e99,2023-04-12_21h43.18.166,PRaM,2021.2.3,Win32,164.9348507,61b8f3437b89212fae0dfade
1,1.8544,space,0.2066,0,133,133,55,1,,,6074b929f753216d88c77e88,6437854ebe36cf8b67577e99,2023-04-12_21h43.18.166,PRaM,2021.2.3,Win32,164.9348507,61b8f3437b89212fae0dfade
2,2.7872,space,1.0779,0,134,134,330,1,,,6074b929f753216d88c77e88,6437854ebe36cf8b67577e99,2023-04-12_21h43.18.166,PRaM,2021.2.3,Win32,164.9348507,61b8f3437b89212fae0dfade
1,1.842,space,0.2064,0,135,135,313,1,,,6074b929f753216d88c77e88,6437854ebe36cf8b67577e99,2023-04-12_21h43.18.166,PRaM,2021.2.3,Win32,164.9348507,61b8f3437b89212fae0dfade
3,2.2787,space,0.5093,0,136,136,184,1,,,6074b929f753216d88c77e88,6437854ebe36cf8b67577e99,2023-04-12_21h43.18.166,PRaM,2021.2.3,Win32,164.9348507,61b8f3437b89212fae0dfade
6,3.1387,space,1.4668,0,137,137,269,1,,,6074b929f753216d88c77e88,6437854ebe36cf8b67577e99,2023-04-12_21h43.18.166,PRaM,2021.2.3,Win32,164.9348507,61b8f3437b89212fae0dfade
3,3.775,space,2.1333,0,138,138,324,1,,,6074b929f753216d88c77e88,6437854ebe36cf8b67577e99,2023-04-12_21h43.18.166,PRaM,2021.2.3,Win32,164.9348507,61b8f3437b89212fae0dfade
2,2.9639,space,1.2238,0,139,139,146,1,,,6074b929f753216d88c77e88,6437854ebe36cf8b67577e99,2023-04-12_21h43.18.166,PRaM,2021.2.3,Win32,164.9348507,61b8f3437b89212fae0dfade
5,2.315,space,0.6303,0,140,140,249,1,,,6074b929f753216d88c77e88,6437854ebe36cf8b67577e99,2023-04-12_21h43.18.166,PRaM,2021.2.3,Win32,164.9348507,61b8f3437b89212fae0dfade
8,3.2242,space,1.5522,0,141,141,298,1,,,6074b929f753216d88c77e88,6437854ebe36cf8b67577e99,2023-04-12_21h43.18.166,PRaM,2021.2.3,Win32,164.9348507,61b8f3437b89212fae0dfade
4,3.871,space,2.1797,0,142,142,188,1,,,6074b929f753216d88c77e88,6437854ebe36cf8b67577e99,2023-04-12_21h43.18.166,PRaM,2021.2.3,Win32,164.9348507,61b8f3437b89212fae0dfade
3,2.6301,space,0.9342,0,143,143,163,1,,,6074b929f753216d88c77e88,6437854ebe36cf8b67577e99,2023-04-12_21h43.18.166,PRaM,2021.2.3,Win32,164.9348507,61b8f3437b89212fae0dfade
4,5.2044,space,3.4907,0,144,144,164,1,,,6074b929f753216d88c77e88,6437854ebe36cf8b67577e99,2023-04-12_21h43.18.166,PRaM,2021.2.3,Win32,164.9348507,61b8f3437b89212fae0dfade
4,2.3459,space,0.607,0,145,145,0,1,,,6074b929f753216d88c77e88,6437854ebe36cf8b67577e99,2023-04-12_21h43.18.166,PRaM,2021.2.3,Win32,164.9348507,61b8f3437b89212fae0dfade
3,3.1869,space,1.5513,0,146,146,236,1,,,6074b929f753216d88c77e88,6437854ebe36cf8b67577e99,2023-04-12_21h43.18.166,PRaM,2021.2.3,Win32,164.9348507,61b8f3437b89212fae0dfade
4,4.4356,space,2.7031,0,147,147,126,1,,,6074b929f753216d88c77e88,6437854ebe36cf8b67577e99,2023-04-12_21h43.18.166,PRaM,2021.2.3,Win32,164.9348507,61b8f3437b89212fae0dfade
3,12.1798,space,10.5265,0,148,148,272,1,,,6074b929f753216d88c77e88,6437854ebe36cf8b67577e99,2023-04-12_21h43.18.166,PRaM,2021.2.3,Win32,164.9348507,61b8f3437b89212fae0dfade
4,2.9698,space,1.2727,0,149,149,152,1,,,6074b929f753216d88c77e88,6437854ebe36cf8b67577e99,2023-04-12_21h43.18.166,PRaM,2021.2.3,Win32,164.9348507,61b8f3437b89212fae0dfade
5,2.5514,space,0.8786,0,150,150,25,1,,,6074b929f753216d88c77e88,6437854ebe36cf8b67577e99,2023-04-12_21h43.18.166,PRaM,2021.2.3,Win32,164.9348507,61b8f3437b89212fae0dfade
5,1.9149,space,0.2064,0,151,151,145,1,,,6074b929f753216d88c77e88,6437854ebe36cf8b67577e99,2023-04-12_21h43.18.166,PRaM,2021.2.3,Win32,164.9348507,61b8f3437b89212fae0dfade
8,1.6602,space,0.2077,0,152,152,326,1,,,6074b929f753216d88c77e88,6437854ebe36cf8b67577e99,2023-04-12_21h43.18.166,PRaM,2021.2.3,Win32,164.9348507,61b8f3437b89212fae0dfade
3,4.8761,space,3.0552,0,153,153,179,1,,,6074b929f753216d88c77e88,6437854ebe36cf8b67577e99,2023-04-12_21h43.18.166,PRaM,2021.2.3,Win32,164.9348507,61b8f3437b89212fae0dfade
3,36.2372,space,34.978,0,154,154,143,1,,,6074b929f753216d88c77e88,6437854ebe36cf8b67577e99,2023-04-12_21h43.18.166,PRaM,2021.2.3,Win32,164.9348507,61b8f3437b89212fae0dfade
3,2.7633,space,1.0681,0,155,155,321,1,,,6074b929f753216d88c77e88,6437854ebe36cf8b67577e99,2023-04-12_21h43.18.166,PRaM,2021.2.3,Win32,164.9348507,61b8f3437b89212fae0dfade
2,2.4403,space,0.836,0,156,156,300,1,,,6074b929f753216d88c77e88,6437854ebe36cf8b67577e99,2023-04-12_21h43.18.166,PRaM,2021.2.3,Win32,164.9348507,61b8f3437b89212fae0dfade
4,2.5275,space,0.8346,0,157,157,81,1,,,6074b929f753216d88c77e88,6437854ebe36cf8b67577e99,2023-04-12_21h43.18.166,PRaM,2021.2.3,Win32,164.9348507,61b8f3437b89212fae0dfade
1,1.7688,space,0.1817,0,158,158,289,1,,,6074b929f753216d88c77e88,6437854ebe36cf8b67577e99,2023-04-12_21h43.18.166,PRaM,2021.2.3,Win32,164.9348507,61b8f3437b89212fae0dfade
2,3.1641,space,1.4542,0,159,159,35,1,,,6074b929f753216d88c77e88,6437854ebe36cf8b67577e99,2023-04-12_21h43.18.166,PRaM,2021.2.3,Win32,164.9348507,61b8f3437b89212fae0dfade
5,2.3994,space,0.7879,0,160,160,180,1,,,6074b929f753216d88c77e88,6437854ebe36cf8b67577e99,2023-04-12_21h43.18.166,PRaM,2021.2.3,Win32,164.9348507,61b8f3437b89212fae0dfade
3,1.83,space,0.1578,0,161,161,169,1,,,6074b929f753216d88c77e88,6437854ebe36cf8b67577e99,2023-04-12_21h43.18.166,PRaM,2021.2.3,Win32,164.9348507,61b8f3437b89212fae0dfade
3,1.9757,space,0.3278,0,162,162,235,1,,,6074b929f753216d88c77e88,6437854ebe36cf8b67577e99,2023-04-12_21h43.18.166,PRaM,2021.2.3,Win32,164.9348507,61b8f3437b89212fae0dfade
6,3.3085,space,1.6606,0,163,163,259,1,,,6074b929f753216d88c77e88,6437854ebe36cf8b67577e99,2023-04-12_21h43.18.166,PRaM,2021.2.3,Win32,164.9348507,61b8f3437b89212fae0dfade
5,2.9203,space,1.2968,0,164,164,344,1,,,6074b929f753216d88c77e88,6437854ebe36cf8b67577e99,2023-04-12_21h43.18.166,PRaM,2021.2.3,Win32,164.9348507,61b8f3437b89212fae0dfade
6,2.914,space,1.2004,0,165,165,239,1,,,6074b929f753216d88c77e88,6437854ebe36cf8b67577e99,2023-04-12_21h43.18.166,PRaM,2021.2.3,Win32,164.9348507,61b8f3437b89212fae0dfade
4,7.4295,space,5.6482,0,166,166,242,1,,,6074b929f753216d88c77e88,6437854ebe36cf8b67577e99,2023-04-12_21h43.18.166,PRaM,2021.2.3,Win32,164.9348507,61b8f3437b89212fae0dfade
6,1.9997,space,0.2783,0,167,167,310,1,,,6074b929f753216d88c77e88,6437854ebe36cf8b67577e99,2023-04-12_21h43.18.166,PRaM,2021.2.3,Win32,164.9348507,61b8f3437b89212fae0dfade
2,3.8418,space,2.2421,0,168,168,206,1,,,6074b929f753216d88c77e88,6437854ebe36cf8b67577e99,2023-04-12_21h43.18.166,PRaM,2021.2.3,Win32,164.9348507,61b8f3437b89212fae0dfade
7,9.7865,space,8.8356,0,169,169,246,1,,,6074b929f753216d88c77e88,6437854ebe36cf8b67577e99,2023-04-12_21h43.18.166,PRaM,2021.2.3,Win32,164.9348507,61b8f3437b89212fae0dfade
6,2.3389,space,0.5825,0,170,170,56,1,,,6074b929f753216d88c77e88,6437854ebe36cf8b67577e99,2023-04-12_21h43.18.166,PRaM,2021.2.3,Win32,164.9348507,61b8f3437b89212fae0dfade
8,2.3151,space,0.8725,0,171,171,222,1,,,6074b929f753216d88c77e88,6437854ebe36cf8b67577e99,2023-04-12_21h43.18.166,PRaM,2021.2.3,Win32,164.9348507,61b8f3437b89212fae0dfade
2,1.7696,space,0.049,0,172,172,130,1,,,6074b929f753216d88c77e88,6437854ebe36cf8b67577e99,2023-04-12_21h43.18.166,PRaM,2021.2.3,Win32,164.9348507,61b8f3437b89212fae0dfade
3,1.6845,space,0.3155,0,173,173,116,1,,,6074b929f753216d88c77e88,6437854ebe36cf8b67577e99,2023-04-12_21h43.18.166,PRaM,2021.2.3,Win32,164.9348507,61b8f3437b89212fae0dfade
6,2.1508,space,0.8607,0,174,174,273,1,,,6074b929f753216d88c77e88,6437854ebe36cf8b67577e99,2023-04-12_21h43.18.166,PRaM,2021.2.3,Win32,164.9348507,61b8f3437b89212fae0dfade
1,1.8898,space,0.2303,0,175,175,92,1,,,6074b929f753216d88c77e88,6437854ebe36cf8b67577e99,2023-04-12_21h43.18.166,PRaM,2021.2.3,Win32,164.9348507,61b8f3437b89212fae0dfade
3,1.9508,space,0.2059,0,176,176,211,1,,,6074b929f753216d88c77e88,6437854ebe36cf8b67577e99,2023-04-12_21h43.18.166,PRaM,2021.2.3,Win32,164.9348507,61b8f3437b89212fae0dfade
4,2.6541,space,0.911,0,177,177,71,1,,,6074b929f753216d88c77e88,6437854ebe36cf8b67577e99,2023-04-12_21h43.18.166,PRaM,2021.2.3,Win32,164.9348507,61b8f3437b89212fae0dfade
7,4.4157,space,2.7521,0,178,178,320,1,,,6074b929f753216d88c77e88,6437854ebe36cf8b67577e99,2023-04-12_21h43.18.166,PRaM,2021.2.3,Win32,164.9348507,61b8f3437b89212fae0dfade
2,2.398,space,0.8611,0,179,179,77,1,,,6074b929f753216d88c77e88,6437854ebe36cf8b67577e99,2023-04-12_21h43.18.166,PRaM,2021.2.3,Win32,164.9348507,61b8f3437b89212fae0dfade
3,2.266,space,0.6179,0,180,180,124,1,,,6074b929f753216d88c77e88,6437854ebe36cf8b67577e99,2023-04-12_21h43.18.166,PRaM,2021.2.3,Win32,164.9348507,61b8f3437b89212fae0dfade
1,3.8904,space,2.2909,0,181,181,214,1,,,6074b929f753216d88c77e88,6437854ebe36cf8b67577e99,2023-04-12_21h43.18.166,PRaM,2021.2.3,Win32,164.9348507,61b8f3437b89212fae0dfade
4,2.0182,space,0.2544,0,182,182,178,1,,,6074b929f753216d88c77e88,6437854ebe36cf8b67577e99,2023-04-12_21h43.18.166,PRaM,2021.2.3,Win32,164.9348507,61b8f3437b89212fae0dfade
3,2.4481,space,0.7641,0,183,183,308,1,,,6074b929f753216d88c77e88,6437854ebe36cf8b67577e99,2023-04-12_21h43.18.166,PRaM,2021.2.3,Win32,164.9348507,61b8f3437b89212fae0dfade
2,1.8541,space,0.1582,0,184,184,299,1,,,6074b929f753216d88c77e88,6437854ebe36cf8b67577e99,2023-04-12_21h43.18.166,PRaM,2021.2.3,Win32,164.9348507,61b8f3437b89212fae0dfade
3,3.2478,space,1.5281,0,185,185,250,1,,,6074b929f753216d88c77e88,6437854ebe36cf8b67577e99,2023-04-12_21h43.18.166,PRaM,2021.2.3,Win32,164.9348507,61b8f3437b89212fae0dfade
1,3.3684,space,1.685,0,186,186,251,1,,,6074b929f753216d88c77e88,6437854ebe36cf8b67577e99,2023-04-12_21h43.18.166,PRaM,2021.2.3,Win32,164.9348507,61b8f3437b89212fae0dfade
5,3.2357,space,4.1573,0,187,187,297,1,,,6074b929f753216d88c77e88,6437854ebe36cf8b67577e99,2023-04-12_21h43.18.166,PRaM,2021.2.3,Win32,164.9348507,61b8f3437b89212fae0dfade
6,3.8903,space,2.2306,0,188,188,335,1,,,6074b929f753216d88c77e88,6437854ebe36cf8b67577e99,2023-04-12_21h43.18.166,PRaM,2021.2.3,Win32,164.9348507,61b8f3437b89212fae0dfade
4,2.4115,space,0.788,0,189,189,104,1,,,6074b929f753216d88c77e88,6437854ebe36cf8b67577e99,2023-04-12_21h43.18.166,PRaM,2021.2.3,Win32,164.9348507,61b8f3437b89212fae0dfade
3,2.133,space,0.5083,0,190,190,160,1,,,6074b929f753216d88c77e88,6437854ebe36cf8b67577e99,2023-04-12_21h43.18.166,PRaM,2021.2.3,Win32,164.9348507,61b8f3437b89212fae0dfade
2,7.2485,space,5.5034,0,191,191,287,1,,,6074b929f753216d88c77e88,6437854ebe36cf8b67577e99,2023-04-12_21h43.18.166,PRaM,2021.2.3,Win32,164.9348507,61b8f3437b89212fae0dfade
3,1.9633,space,0.1817,0,192,192,329,1,,,6074b929f753216d88c77e88,6437854ebe36cf8b67577e99,2023-04-12_21h43.18.166,PRaM,2021.2.3,Win32,164.9348507,61b8f3437b89212fae0dfade
2,2.0484,space,0.3399,0,193,193,153,1,,,6074b929f753216d88c77e88,6437854ebe36cf8b67577e99,2023-04-12_21h43.18.166,PRaM,2021.2.3,Win32,164.9348507,61b8f3437b89212fae0dfade
4,1.9023,space,0.218,0,194,194,22,1,,,6074b929f753216d88c77e88,6437854ebe36cf8b67577e99,2023-04-12_21h43.18.166,PRaM,2021.2.3,Win32,164.9348507,61b8f3437b89212fae0dfade
3,1.6309,space,0.7275,0,195,195,210,1,,,6074b929f753216d88c77e88,6437854ebe36cf8b67577e99,2023-04-12_21h43.18.166,PRaM,2021.2.3,Win32,164.9348507,61b8f3437b89212fae0dfade
7,1.9873,space,0.2545,0,196,196,279,1,,,6074b929f753216d88c77e88,6437854ebe36cf8b67577e99,2023-04-12_21h43.18.166,PRaM,2021.2.3,Win32,164.9348507,61b8f3437b89212fae0dfade
2,1.6491,space,0.5943,0,197,197,356,1,,,6074b929f753216d88c77e88,6437854ebe36cf8b67577e99,2023-04-12_21h43.18.166,PRaM,2021.2.3,Win32,164.9348507,61b8f3437b89212fae0dfade
2,1.9149,space,0.2428,0,198,198,286,1,,,6074b929f753216d88c77e88,6437854ebe36cf8b67577e99,2023-04-12_21h43.18.166,PRaM,2021.2.3,Win32,164.9348507,61b8f3437b89212fae0dfade
6,1.6783,space,0.4004,0,199,199,277,1,,,6074b929f753216d88c77e88,6437854ebe36cf8b67577e99,2023-04-12_21h43.18.166,PRaM,2021.2.3,Win32,164.9348507,61b8f3437b89212fae0dfade
3,1.7207,space,0.0003,0,200,200,125,1,,,6074b929f753216d88c77e88,6437854ebe36cf8b67577e99,2023-04-12_21h43.18.166,PRaM,2021.2.3,Win32,164.9348507,61b8f3437b89212fae0dfade
1,2.5249,space,1.0899,0,201,201,253,1,,,6074b929f753216d88c77e88,6437854ebe36cf8b67577e99,2023-04-12_21h43.18.166,PRaM,2021.2.3,Win32,164.9348507,61b8f3437b89212fae0dfade
7,4.3506,space,2.6607,0,202,202,102,1,,,6074b929f753216d88c77e88,6437854ebe36cf8b67577e99,2023-04-12_21h43.18.166,PRaM,2021.2.3,Win32,164.9348507,61b8f3437b89212fae0dfade
2,1.9271,space,0.2428,0,203,203,73,1,,,6074b929f753216d88c77e88,6437854ebe36cf8b67577e99,2023-04-12_21h43.18.166,PRaM,2021.2.3,Win32,164.9348507,61b8f3437b89212fae0dfade
3,2.0974,space,0.4713,0,204,204,263,1,,,6074b929f753216d88c77e88,6437854ebe36cf8b67577e99,2023-04-12_21h43.18.166,PRaM,2021.2.3,Win32,164.9348507,61b8f3437b89212fae0dfade
6,2.1812,space,0.4242,0,205,205,60,1,,,6074b929f753216d88c77e88,6437854ebe36cf8b67577e99,2023-04-12_21h43.18.166,PRaM,2021.2.3,Win32,164.9348507,61b8f3437b89212fae0dfade
5,2.012,space,0.3581,0,206,206,200,1,,,6074b929f753216d88c77e88,6437854ebe36cf8b67577e99,2023-04-12_21h43.18.166,PRaM,2021.2.3,Win32,164.9348507,61b8f3437b89212fae0dfade
4,2.4238,space,0.7892,0,207,207,306,1,,,6074b929f753216d88c77e88,6437854ebe36cf8b67577e99,2023-04-12_21h43.18.166,PRaM,2021.2.3,Win32,164.9348507,61b8f3437b89212fae0dfade
4,2.5139,space,0.8368,0,208,208,294,1,,,6074b929f753216d88c77e88,6437854ebe36cf8b67577e99,2023-04-12_21h43.18.166,PRaM,2021.2.3,Win32,164.9348507,61b8f3437b89212fae0dfade
3,1.9271,space,0.2433,0,209,209,103,1,,,6074b929f753216d88c77e88,6437854ebe36cf8b67577e99,2023-04-12_21h43.18.166,PRaM,2021.2.3,Win32,164.9348507,61b8f3437b89212fae0dfade
8,2.3203,space,0.5942,0,210,210,197,1,,,6074b929f753216d88c77e88,6437854ebe36cf8b67577e99,2023-04-12_21h43.18.166,PRaM,2021.2.3,Win32,164.9348507,61b8f3437b89212fae0dfade
3,3.4958,space,1.8548,0,211,211,49,1,,,6074b929f753216d88c77e88,6437854ebe36cf8b67577e99,2023-04-12_21h43.18.166,PRaM,2021.2.3,Win32,164.9348507,61b8f3437b89212fae0dfade
3,4.7076,space,2.9937,0,212,212,87,1,,,6074b929f753216d88c77e88,6437854ebe36cf8b67577e99,2023-04-12_21h43.18.166,PRaM,2021.2.3,Win32,164.9348507,61b8f3437b89212fae0dfade
3,2.0726,space,0.2666,0,213,213,258,1,,,6074b929f753216d88c77e88,6437854ebe36cf8b67577e99,2023-04-12_21h43.18.166,PRaM,2021.2.3,Win32,164.9348507,61b8f3437b89212fae0dfade
3,2.4663,space,0.728,0,214,214,131,1,,,6074b929f753216d88c77e88,6437854ebe36cf8b67577e99,2023-04-12_21h43.18.166,PRaM,2021.2.3,Win32,164.9348507,61b8f3437b89212fae0dfade
7,25.8874,space,25.1191,0,215,215,285,1,,,6074b929f753216d88c77e88,6437854ebe36cf8b67577e99,2023-04-12_21h43.18.166,PRaM,2021.2.3,Win32,164.9348507,61b8f3437b89212fae0dfade
3,2.9019,space,1.4242,0,216,216,101,1,,,6074b929f753216d88c77e88,6437854ebe36cf8b67577e99,2023-04-12_21h43.18.166,PRaM,2021.2.3,Win32,164.9348507,61b8f3437b89212fae0dfade
4,1.6604,space,0.6427,0,217,217,233,1,,,6074b929f753216d88c77e88,6437854ebe36cf8b67577e99,2023-04-12_21h43.18.166,PRaM,2021.2.3,Win32,164.9348507,61b8f3437b89212fae0dfade
6,7.1566,space,6.0706,0,218,218,16,1,,,6074b929f753216d88c77e88,6437854ebe36cf8b67577e99,2023-04-12_21h43.18.166,PRaM,2021.2.3,Win32,164.9348507,61b8f3437b89212fae0dfade
6,3.5626,space,1.8561,0,219,219,261,1,,,6074b929f753216d88c77e88,6437854ebe36cf8b67577e99,2023-04-12_21h43.18.166,PRaM,2021.2.3,Win32,164.9348507,61b8f3437b89212fae0dfade
3,10.6695,space,8.9933,0,220,220,8,1,,,6074b929f753216d88c77e88,6437854ebe36cf8b67577e99,2023-04-12_21h43.18.166,PRaM,2021.2.3,Win32,164.9348507,61b8f3437b89212fae0dfade
6,2.5208,space,0.8362,0,221,221,213,1,,,6074b929f753216d88c77e88,6437854ebe36cf8b67577e99,2023-04-12_21h43.18.166,PRaM,2021.2.3,Win32,164.9348507,61b8f3437b89212fae0dfade
2,1.8186,space,0.1692,0,222,222,94,1,,,6074b929f753216d88c77e88,6437854ebe36cf8b67577e99,2023-04-12_21h43.18.166,PRaM,2021.2.3,Win32,164.9348507,61b8f3437b89212fae0dfade
3,4.9261,space,3.2231,0,223,223,229,1,,,6074b929f753216d88c77e88,6437854ebe36cf8b67577e99,2023-04-12_21h43.18.166,PRaM,2021.2.3,Win32,164.9348507,61b8f3437b89212fae0dfade
4,2.5693,space,1.0914,0,224,224,340,1,,,6074b929f753216d88c77e88,6437854ebe36cf8b67577e99,2023-04-12_21h43.18.166,PRaM,2021.2.3,Win32,164.9348507,61b8f3437b89212fae0dfade
3,2.2836,space,0.5095,0,225,225,161,1,,,6074b929f753216d88c77e88,6437854ebe36cf8b67577e99,2023-04-12_21h43.18.166,PRaM,2021.2.3,Win32,164.9348507,61b8f3437b89212fae0dfade
2,2.0967,space,0.4249,0,226,226,128,1,,,6074b929f753216d88c77e88,6437854ebe36cf8b67577e99,2023-04-12_21h43.18.166,PRaM,2021.2.3,Win32,164.9348507,61b8f3437b89212fae0dfade
4,2.0478,space,0.3159,0,227,227,256,1,,,6074b929f753216d88c77e88,6437854ebe36cf8b67577e99,2023-04-12_21h43.18.166,PRaM,2021.2.3,Win32,164.9348507,61b8f3437b89212fae0dfade
8,2.8236,space,1.0909,0,228,228,61,1,,,6074b929f753216d88c77e88,6437854ebe36cf8b67577e99,2023-04-12_21h43.18.166,PRaM,2021.2.3,Win32,164.9348507,61b8f3437b89212fae0dfade
6,2.1332,space,2.1329,0,229,229,280,1,,,6074b929f753216d88c77e88,6437854ebe36cf8b67577e99,2023-04-12_21h43.18.166,PRaM,2021.2.3,Win32,164.9348507,61b8f3437b89212fae0dfade
4,2.0601,space,0.2673,0,230,230,96,1,,,6074b929f753216d88c77e88,6437854ebe36cf8b67577e99,2023-04-12_21h43.18.166,PRaM,2021.2.3,Win32,164.9348507,61b8f3437b89212fae0dfade
4,2.4236,space,0.6792,0,231,231,123,1,,,6074b929f753216d88c77e88,6437854ebe36cf8b67577e99,2023-04-12_21h43.18.166,PRaM,2021.2.3,Win32,164.9348507,61b8f3437b89212fae0dfade
6,1.3389,space,0.1103,0,232,232,42,1,,,6074b929f753216d88c77e88,6437854ebe36cf8b67577e99,2023-04-12_21h43.18.166,PRaM,2021.2.3,Win32,164.9348507,61b8f3437b89212fae0dfade
9,3.4652,space,3.7923,0,233,233,207,1,,,6074b929f753216d88c77e88,6437854ebe36cf8b67577e99,2023-04-12_21h43.18.166,PRaM,2021.2.3,Win32,164.9348507,61b8f3437b89212fae0dfade
3,2.3149,space,0.6538,0,234,234,203,1,,,6074b929f753216d88c77e88,6437854ebe36cf8b67577e99,2023-04-12_21h43.18.166,PRaM,2021.2.3,Win32,164.9348507,61b8f3437b89212fae0dfade
7,1.7573,space,0.2663,0,235,235,17,1,,,6074b929f753216d88c77e88,6437854ebe36cf8b67577e99,2023-04-12_21h43.18.166,PRaM,2021.2.3,Win32,164.9348507,61b8f3437b89212fae0dfade
7,2.5572,space,0.8244,0,236,236,328,1,,,6074b929f753216d88c77e88,6437854ebe36cf8b67577e99,2023-04-12_21h43.18.166,PRaM,2021.2.3,Win32,164.9348507,61b8f3437b89212fae0dfade
6,3.2782,space,1.6608,0,237,237,83,1,,,6074b929f753216d88c77e88,6437854ebe36cf8b67577e99,2023-04-12_21h43.18.166,PRaM,2021.2.3,Win32,164.9348507,61b8f3437b89212fae0dfade
4,12.2829,space,11.4522,0,238,238,20,1,,,6074b929f753216d88c77e88,6437854ebe36cf8b67577e99,2023-04-12_21h43.18.166,PRaM,2021.2.3,Win32,164.9348507,61b8f3437b89212fae0dfade
2,11.8721,space,10.2173,0,239,239,41,1,,,6074b929f753216d88c77e88,6437854ebe36cf8b67577e99,2023-04-12_21h43.18.166,PRaM,2021.2.3,Win32,164.9348507,61b8f3437b89212fae0dfade
2,2.6249,space,0.9578,0,240,240,193,1,,,6074b929f753216d88c77e88,6437854ebe36cf8b67577e99,2023-04-12_21h43.18.166,PRaM,2021.2.3,Win32,164.9348507,61b8f3437b89212fae0dfade
4,2.5815,space,0.8252,0,241,241,40,1,,,6074b929f753216d88c77e88,6437854ebe36cf8b67577e99,2023-04-12_21h43.18.166,PRaM,2021.2.3,Win32,164.9348507,61b8f3437b89212fae0dfade
4,1.9084,space,0.5343,0,242,242,181,1,,,6074b929f753216d88c77e88,6437854ebe36cf8b67577e99,2023-04-12_21h43.18.166,PRaM,2021.2.3,Win32,164.9348507,61b8f3437b89212fae0dfade
3,2.3263,space,0.5823,0,243,243,119,1,,,6074b929f753216d88c77e88,6437854ebe36cf8b67577e99,2023-04-12_21h43.18.166,PRaM,2021.2.3,Win32,164.9348507,61b8f3437b89212fae0dfade
2,2.2474,space,0.5093,0,244,244,338,1,,,6074b929f753216d88c77e88,6437854ebe36cf8b67577e99,2023-04-12_21h43.18.166,PRaM,2021.2.3,Win32,164.9348507,61b8f3437b89212fae0dfade
6,5.5752,space,3.8301,0,245,245,75,1,,,6074b929f753216d88c77e88,6437854ebe36cf8b67577e99,2023-04-12_21h43.18.166,PRaM,2021.2.3,Win32,164.9348507,61b8f3437b89212fae0dfade
5,3.1084,space,1.4067,0,246,246,331,1,,,6074b929f753216d88c77e88,6437854ebe36cf8b67577e99,2023-04-12_21h43.18.166,PRaM,2021.2.3,Win32,164.9348507,61b8f3437b89212fae0dfade
4,1.9749,space,0.3155,0,247,247,76,1,,,6074b929f753216d88c77e88,6437854ebe36cf8b67577e99,2023-04-12_21h43.18.166,PRaM,2021.2.3,Win32,164.9348507,61b8f3437b89212fae0dfade
3,3.6895,space,1.9999,0,248,248,189,1,,,6074b929f753216d88c77e88,6437854ebe36cf8b67577e99,2023-04-12_21h43.18.166,PRaM,2021.2.3,Win32,164.9348507,61b8f3437b89212fae0dfade
2,2.339,space,0.6912,0,249,249,34,1,,,6074b929f753216d88c77e88,6437854ebe36cf8b67577e99,2023-04-12_21h43.18.166,PRaM,2021.2.3,Win32,164.9348507,61b8f3437b89212fae0dfade
3,12.1322,space,10.6599,0,250,250,262,1,,,6074b929f753216d88c77e88,6437854ebe36cf8b67577e99,2023-04-12_21h43.18.166,PRaM,2021.2.3,Win32,164.9348507,61b8f3437b89212fae0dfade
2,2.3875,space,0.5703,0,251,251,58,1,,,6074b929f753216d88c77e88,6437854ebe36cf8b67577e99,2023-04-12_21h43.18.166,PRaM,2021.2.3,Win32,164.9348507,61b8f3437b89212fae0dfade
5,2.5332,space,0.8117,0,252,252,99,1,,,6074b929f753216d88c77e88,6437854ebe36cf8b67577e99,2023-04-12_21h43.18.166,PRaM,2021.2.3,Win32,164.9348507,61b8f3437b89212fae0dfade
3,1.5872,space,0.2553,0,253,253,336,1,,,6074b929f753216d88c77e88,6437854ebe36cf8b67577e99,2023-04-12_21h43.18.166,PRaM,2021.2.3,Win32,164.9348507,61b8f3437b89212fae0dfade
7,2.3752,space,0.5809,0,254,254,366,1,,,6074b929f753216d88c77e88,6437854ebe36cf8b67577e99,2023-04-12_21h43.18.166,PRaM,2021.2.3,Win32,164.9348507,61b8f3437b89212fae0dfade
4,2.236,space,0.4486,0,255,255,226,1,,,6074b929f753216d88c77e88,6437854ebe36cf8b67577e99,2023-04-12_21h43.18.166,PRaM,2021.2.3,Win32,164.9348507,61b8f3437b89212fae0dfade
6,1.7694,space,0.0726,0,256,256,192,1,,,6074b929f753216d88c77e88,6437854ebe36cf8b67577e99,2023-04-12_21h43.18.166,PRaM,2021.2.3,Win32,164.9348507,61b8f3437b89212fae0dfade
3,3.8734,space,2.133,0,257,257,284,1,,,6074b929f753216d88c77e88,6437854ebe36cf8b67577e99,2023-04-12_21h43.18.166,PRaM,2021.2.3,Win32,164.9348507,61b8f3437b89212fae0dfade
4,2.3154,space,0.7392,0,258,258,95,1,,,6074b929f753216d88c77e88,6437854ebe36cf8b67577e99,2023-04-12_21h43.18.166,PRaM,2021.2.3,Win32,164.9348507,61b8f3437b89212fae0dfade
3,2.6182,space,0.8491,0,259,259,162,1,,,6074b929f753216d88c77e88,6437854ebe36cf8b67577e99,2023-04-12_21h43.18.166,PRaM,2021.2.3,Win32,164.9348507,61b8f3437b89212fae0dfade
2,1.8486,space,0.1099,0,260,260,376,1,,,6074b929f753216d88c77e88,6437854ebe36cf8b67577e99,2023-04-12_21h43.18.166,PRaM,2021.2.3,Win32,164.9348507,61b8f3437b89212fae0dfade
4,3.0224,space,1.3335,0,261,261,361,1,,,6074b929f753216d88c77e88,6437854ebe36cf8b67577e99,2023-04-12_21h43.18.166,PRaM,2021.2.3,Win32,164.9348507,61b8f3437b89212fae0dfade
4,1.8671,space,0.1581,0,262,262,38,1,,,6074b929f753216d88c77e88,6437854ebe36cf8b67577e99,2023-04-12_21h43.18.166,PRaM,2021.2.3,Win32,164.9348507,61b8f3437b89212fae0dfade
3,2.1809,space,0.4244,0,263,263,63,1,,,6074b929f753216d88c77e88,6437854ebe36cf8b67577e99,2023-04-12_21h43.18.166,PRaM,2021.2.3,Win32,164.9348507,61b8f3437b89212fae0dfade
6,1.6782,space,0.1806,0,264,264,302,1,,,6074b929f753216d88c77e88,6437854ebe36cf8b67577e99,2023-04-12_21h43.18.166,PRaM,2021.2.3,Win32,164.9348507,61b8f3437b89212fae0dfade
4,1.9515,space,0.255,0,265,265,342,1,,,6074b929f753216d88c77e88,6437854ebe36cf8b67577e99,2023-04-12_21h43.18.166,PRaM,2021.2.3,Win32,164.9348507,61b8f3437b89212fae0dfade
3,1.6844,space,0.0006,0,266,266,157,1,,,6074b929f753216d88c77e88,6437854ebe36cf8b67577e99,2023-04-12_21h43.18.166,PRaM,2021.2.3,Win32,164.9348507,61b8f3437b89212fae0dfade
3,1.7185,space,0.0381,0,267,267,79,1,,,6074b929f753216d88c77e88,6437854ebe36cf8b67577e99,2023-04-12_21h43.18.166,PRaM,2021.2.3,Win32,164.9348507,61b8f3437b89212fae0dfade
3,3.9668,space,2.182,0,268,268,29,1,,,6074b929f753216d88c77e88,6437854ebe36cf8b67577e99,2023-04-12_21h43.18.166,PRaM,2021.2.3,Win32,164.9348507,61b8f3437b89212fae0dfade
4,2.2175,space,0.3879,0,269,269,33,1,,,6074b929f753216d88c77e88,6437854ebe36cf8b67577e99,2023-04-12_21h43.18.166,PRaM,2021.2.3,Win32,164.9348507,61b8f3437b89212fae0dfade
3,2.8897,space,1.0786,0,270,270,174,1,,,6074b929f753216d88c77e88,6437854ebe36cf8b67577e99,2023-04-12_21h43.18.166,PRaM,2021.2.3,Win32,164.9348507,61b8f3437b89212fae0dfade
3,3.5822,space,1.7893,0,271,271,227,1,,,6074b929f753216d88c77e88,6437854ebe36cf8b67577e99,2023-04-12_21h43.18.166,PRaM,2021.2.3,Win32,164.9348507,61b8f3437b89212fae0dfade
6,3.1985,space,2.011,0,272,272,244,1,,,6074b929f753216d88c77e88,6437854ebe36cf8b67577e99,2023-04-12_21h43.18.166,PRaM,2021.2.3,Win32,164.9348507,61b8f3437b89212fae0dfade
3,1.9029,space,0.2065,0,273,273,172,1,,,6074b929f753216d88c77e88,6437854ebe36cf8b67577e99,2023-04-12_21h43.18.166,PRaM,2021.2.3,Win32,164.9348507,61b8f3437b89212fae0dfade
1,3.0185,space,1.3699,0,274,274,318,1,,,6074b929f753216d88c77e88,6437854ebe36cf8b67577e99,2023-04-12_21h43.18.166,PRaM,2021.2.3,Win32,164.9348507,61b8f3437b89212fae0dfade
4,2.3873,space,0.6793,0,275,275,171,1,,,6074b929f753216d88c77e88,6437854ebe36cf8b67577e99,2023-04-12_21h43.18.166,PRaM,2021.2.3,Win32,164.9348507,61b8f3437b89212fae0dfade
6,1.8539,space,0.1228,0,276,276,186,1,,,6074b929f753216d88c77e88,6437854ebe36cf8b67577e99,2023-04-12_21h43.18.166,PRaM,2021.2.3,Win32,164.9348507,61b8f3437b89212fae0dfade
4,2.2768,space,0.5457,0,277,277,175,1,,,6074b929f753216d88c77e88,6437854ebe36cf8b67577e99,2023-04-12_21h43.18.166,PRaM,2021.2.3,Win32,164.9348507,61b8f3437b89212fae0dfade
2,1.745,space,0.4757,0,278,278,195,1,,,6074b929f753216d88c77e88,6437854ebe36cf8b67577e99,2023-04-12_21h43.18.166,PRaM,2021.2.3,Win32,164.9348507,61b8f3437b89212fae0dfade
3,1.4517,space,0.1093,0,279,279,140,1,,,6074b929f753216d88c77e88,6437854ebe36cf8b67577e99,2023-04-12_21h43.18.166,PRaM,2021.2.3,Win32,164.9348507,61b8f3437b89212fae0dfade
3,6.7322,space,4.9091,0,280,280,167,1,,,6074b929f753216d88c77e88,6437854ebe36cf8b67577e99,2023-04-12_21h43.18.166,PRaM,2021.2.3,Win32,164.9348507,61b8f3437b89212fae0dfade
1,2.0966,space,0.4127,0,281,281,65,1,,,6074b929f753216d88c77e88,6437854ebe36cf8b67577e99,2023-04-12_21h43.18.166,PRaM,2021.2.3,Win32,164.9348507,61b8f3437b89212fae0dfade
6,2.5865,space,0.7994,0,282,282,291,1,,,6074b929f753216d88c77e88,6437854ebe36cf8b67577e99,2023-04-12_21h43.18.166,PRaM,2021.2.3,Win32,164.9348507,61b8f3437b89212fae0dfade
7,3.1633,space,1.4542,0,283,283,112,1,,,6074b929f753216d88c77e88,6437854ebe36cf8b67577e99,2023-04-12_21h43.18.166,PRaM,2021.2.3,Win32,164.9348507,61b8f3437b89212fae0dfade
2,1.842,space,0.0576,0,284,284,292,1,,,6074b929f753216d88c77e88,6437854ebe36cf8b67577e99,2023-04-12_21h43.18.166,PRaM,2021.2.3,Win32,164.9348507,61b8f3437b89212fae0dfade
,,space,0.5577,0,285,285,234,1,,,6074b929f753216d88c77e88,6437854ebe36cf8b67577e99,2023-04-12_21h43.18.166,PRaM,2021.2.3,Win32,164.9348507,61b8f3437b89212fae0dfade
2,9.1627,space,7.5147,0,286,286,57,1,,,6074b929f753216d88c77e88,6437854ebe36cf8b67577e99,2023-04-12_21h43.18.166,PRaM,2021.2.3,Win32,164.9348507,61b8f3437b89212fae0dfade
2,3.1462,space,1.5519,0,287,287,339,1,,,6074b929f753216d88c77e88,6437854ebe36cf8b67577e99,2023-04-12_21h43.18.166,PRaM,2021.2.3,Win32,164.9348507,61b8f3437b89212fae0dfade
3,3.296,space,1.6594,0,288,288,148,1,,,6074b929f753216d88c77e88,6437854ebe36cf8b67577e99,2023-04-12_21h43.18.166,PRaM,2021.2.3,Win32,164.9348507,61b8f3437b89212fae0dfade
2,15.125,space,13.3442,0,289,289,264,1,,,6074b929f753216d88c77e88,6437854ebe36cf8b67577e99,2023-04-12_21h43.18.166,PRaM,2021.2.3,Win32,164.9348507,61b8f3437b89212fae0dfade
3,5.1807,space,3.4968,0,290,290,371,1,,,6074b929f753216d88c77e88,6437854ebe36cf8b67577e99,2023-04-12_21h43.18.166,PRaM,2021.2.3,Win32,164.9348507,61b8f3437b89212fae0dfade
5,6.8347,space,5.078,0,291,291,352,1,,,6074b929f753216d88c77e88,6437854ebe36cf8b67577e99,2023-04-12_21h43.18.166,PRaM,2021.2.3,Win32,164.9348507,61b8f3437b89212fae0dfade
3,1.9629,space,0.2912,0,292,292,333,1,,,6074b929f753216d88c77e88,6437854ebe36cf8b67577e99,2023-04-12_21h43.18.166,PRaM,2021.2.3,Win32,164.9348507,61b8f3437b89212fae0dfade
3,3.5387,space,1.8795,0,293,293,364,1,,,6074b929f753216d88c77e88,6437854ebe36cf8b67577e99,2023-04-12_21h43.18.166,PRaM,2021.2.3,Win32,164.9348507,61b8f3437b89212fae0dfade
5,7.4528,space,5.7575,0,294,294,43,1,,,6074b929f753216d88c77e88,6437854ebe36cf8b67577e99,2023-04-12_21h43.18.166,PRaM,2021.2.3,Win32,164.9348507,61b8f3437b89212fae0dfade
3,1.4419,space,0.0634,0,295,295,138,1,,,6074b929f753216d88c77e88,6437854ebe36cf8b67577e99,2023-04-12_21h43.18.166,PRaM,2021.2.3,Win32,164.9348507,61b8f3437b89212fae0dfade
3,2.8456,space,1.0791,0,296,296,224,1,,,6074b929f753216d88c77e88,6437854ebe36cf8b67577e99,2023-04-12_21h43.18.166,PRaM,2021.2.3,Win32,164.9348507,61b8f3437b89212fae0dfade
2,1.8415,space,0.3397,0,297,297,362,1,,,6074b929f753216d88c77e88,6437854ebe36cf8b67577e99,2023-04-12_21h43.18.166,PRaM,2021.2.3,Win32,164.9348507,61b8f3437b89212fae0dfade
4,2.2357,space,0.5819,0,298,298,32,1,,,6074b929f753216d88c77e88,6437854ebe36cf8b67577e99,2023-04-12_21h43.18.166,PRaM,2021.2.3,Win32,164.9348507,61b8f3437b89212fae0dfade
6,4.2962,space,2.6664,0,299,299,69,1,,,6074b929f753216d88c77e88,6437854ebe36cf8b67577e99,2023-04-12_21h43.18.166,PRaM,2021.2.3,Win32,164.9348507,61b8f3437b89212fae0dfade
2,1.879,space,0.1333,0,300,300,309,1,,,6074b929f753216d88c77e88,6437854ebe36cf8b67577e99,2023-04-12_21h43.18.166,PRaM,2021.2.3,Win32,164.9348507,61b8f3437b89212fae0dfade
3,2.3145,space,0.5938,0,301,301,110,1,,,6074b929f753216d88c77e88,6437854ebe36cf8b67577e99,2023-04-12_21h43.18.166,PRaM,2021.2.3,Win32,164.9348507,61b8f3437b89212fae0dfade
3,2.3081,space,0.6546,0,302,302,107,1,,,6074b929f753216d88c77e88,6437854ebe36cf8b67577e99,2023-04-12_21h43.18.166,PRaM,2021.2.3,Win32,164.9348507,61b8f3437b89212fae0dfade
6,2.1575,space,0.3389,0,303,303,114,1,,,6074b929f753216d88c77e88,6437854ebe36cf8b67577e99,2023-04-12_21h43.18.166,PRaM,2021.2.3,Win32,164.9348507,61b8f3437b89212fae0dfade
8,2.3755,space,0.7279,0,304,304,347,1,,,6074b929f753216d88c77e88,6437854ebe36cf8b67577e99,2023-04-12_21h43.18.166,PRaM,2021.2.3,Win32,164.9348507,61b8f3437b89212fae0dfade
7,3.4905,space,1.7455,0,305,305,334,1,,,6074b929f753216d88c77e88,6437854ebe36cf8b67577e99,2023-04-12_21h43.18.166,PRaM,2021.2.3,Win32,164.9348507,61b8f3437b89212fae0dfade
2,1.7942,space,0.1093,0,306,306,315,1,,,6074b929f753216d88c77e88,6437854ebe36cf8b67577e99,2023-04-12_21h43.18.166,PRaM,2021.2.3,Win32,164.9348507,61b8f3437b89212fae0dfade
6,9.0772,space,7.4296,0,307,307,59,1,,,6074b929f753216d88c77e88,6437854ebe36cf8b67577e99,2023-04-12_21h43.18.166,PRaM,2021.2.3,Win32,164.9348507,61b8f3437b89212fae0dfade
3,12.8465,space,11.1871,0,308,308,305,1,,,6074b929f753216d88c77e88,6437854ebe36cf8b67577e99,2023-04-12_21h43.18.166,PRaM,2021.2.3,Win32,164.9348507,61b8f3437b89212fae0dfade
5,5.3503,space,3.6242,0,309,309,365,1,,,6074b929f753216d88c77e88,6437854ebe36cf8b67577e99,2023-04-12_21h43.18.166,PRaM,2021.2.3,Win32,164.9348507,61b8f3437b89212fae0dfade
2,2.3217,space,0.6063,0,310,310,311,1,,,6074b929f753216d88c77e88,6437854ebe36cf8b67577e99,2023-04-12_21h43.18.166,PRaM,2021.2.3,Win32,164.9348507,61b8f3437b89212fae0dfade
1,3.2236,space,1.6242,0,311,311,345,1,,,6074b929f753216d88c77e88,6437854ebe36cf8b67577e99,2023-04-12_21h43.18.166,PRaM,2021.2.3,Win32,164.9348507,61b8f3437b89212fae0dfade
6,2.6239,space,0.922,0,312,312,307,1,,,6074b929f753216d88c77e88,6437854ebe36cf8b67577e99,2023-04-12_21h43.18.166,PRaM,2021.2.3,Win32,164.9348507,61b8f3437b89212fae0dfade
3,3.7744,space,2.1581,0,313,313,26,1,,,6074b929f753216d88c77e88,6437854ebe36cf8b67577e99,2023-04-12_21h43.18.166,PRaM,2021.2.3,Win32,164.9348507,61b8f3437b89212fae0dfade
3,2.6298,space,0.861,0,314,314,357,1,,,6074b929f753216d88c77e88,6437854ebe36cf8b67577e99,2023-04-12_21h43.18.166,PRaM,2021.2.3,Win32,164.9348507,61b8f3437b89212fae0dfade
2,4.6358,space,2.9814,0,315,315,217,1,,,6074b929f753216d88c77e88,6437854ebe36cf8b67577e99,2023-04-12_21h43.18.166,PRaM,2021.2.3,Win32,164.9348507,61b8f3437b89212fae0dfade
3,2.2909,space,0.6182,0,316,316,260,1,,,6074b929f753216d88c77e88,6437854ebe36cf8b67577e99,2023-04-12_21h43.18.166,PRaM,2021.2.3,Win32,164.9348507,61b8f3437b89212fae0dfade
2,1.7101,space,0.0124,0,317,317,341,1,,,6074b929f753216d88c77e88,6437854ebe36cf8b67577e99,2023-04-12_21h43.18.166,PRaM,2021.2.3,Win32,164.9348507,61b8f3437b89212fae0dfade
6,3.2778,space,1.6369,0,318,318,19,1,,,6074b929f753216d88c77e88,6437854ebe36cf8b67577e99,2023-04-12_21h43.18.166,PRaM,2021.2.3,Win32,164.9348507,61b8f3437b89212fae0dfade
3,2.1084,space,0.498,0,319,319,106,1,,,6074b929f753216d88c77e88,6437854ebe36cf8b67577e99,2023-04-12_21h43.18.166,PRaM,2021.2.3,Win32,164.9348507,61b8f3437b89212fae0dfade
5,2.3191,space,0.5819,0,320,320,132,1,,,6074b929f753216d88c77e88,6437854ebe36cf8b67577e99,2023-04-12_21h43.18.166,PRaM,2021.2.3,Win32,164.9348507,61b8f3437b89212fae0dfade
3,6.8896,space,5.3828,0,321,321,11,1,,,6074b929f753216d88c77e88,6437854ebe36cf8b67577e99,2023-04-12_21h43.18.166,PRaM,2021.2.3,Win32,164.9348507,61b8f3437b89212fae0dfade
3,5.1672,space,3.611,0,322,322,121,1,,,6074b929f753216d88c77e88,6437854ebe36cf8b67577e99,2023-04-12_21h43.18.166,PRaM,2021.2.3,Win32,164.9348507,61b8f3437b89212fae0dfade
1,2.2537,space,0.5577,0,323,323,89,1,,,6074b929f753216d88c77e88,6437854ebe36cf8b67577e99,2023-04-12_21h43.18.166,PRaM,2021.2.3,Win32,164.9348507,61b8f3437b89212fae0dfade
4,4.1266,space,2.5092,0,324,324,282,1,,,6074b929f753216d88c77e88,6437854ebe36cf8b67577e99,2023-04-12_21h43.18.166,PRaM,2021.2.3,Win32,164.9348507,61b8f3437b89212fae0dfade
5,3.042,space,1.3578,0,325,325,337,1,,,6074b929f753216d88c77e88,6437854ebe36cf8b67577e99,2023-04-12_21h43.18.166,PRaM,2021.2.3,Win32,164.9348507,61b8f3437b89212fae0dfade
1,2.5144,space,0.8247,0,326,326,312,1,,,6074b929f753216d88c77e88,6437854ebe36cf8b67577e99,2023-04-12_21h43.18.166,PRaM,2021.2.3,Win32,164.9348507,61b8f3437b89212fae0dfade
6,2.8839,space,1.3454,0,327,327,7,1,,,6074b929f753216d88c77e88,6437854ebe36cf8b67577e99,2023-04-12_21h43.18.166,PRaM,2021.2.3,Win32,164.9348507,61b8f3437b89212fae0dfade
7,2.6718,space,0.9823,0,328,328,66,1,,,6074b929f753216d88c77e88,6437854ebe36cf8b67577e99,2023-04-12_21h43.18.166,PRaM,2021.2.3,Win32,164.9348507,61b8f3437b89212fae0dfade
2,2.4853,space,0.8124,0,329,329,218,1,,,6074b929f753216d88c77e88,6437854ebe36cf8b67577e99,2023-04-12_21h43.18.166,PRaM,2021.2.3,Win32,164.9348507,61b8f3437b89212fae0dfade
1,3.187,space,1.4188,0,330,330,266,1,,,6074b929f753216d88c77e88,6437854ebe36cf8b67577e99,2023-04-12_21h43.18.166,PRaM,2021.2.3,Win32,164.9348507,61b8f3437b89212fae0dfade
6,2.1202,space,0.4496,0,331,331,255,1,,,6074b929f753216d88c77e88,6437854ebe36cf8b67577e99,2023-04-12_21h43.18.166,PRaM,2021.2.3,Win32,164.9348507,61b8f3437b89212fae0dfade
1,1.9501,space,0.304,0,332,332,68,1,,,6074b929f753216d88c77e88,6437854ebe36cf8b67577e99,2023-04-12_21h43.18.166,PRaM,2021.2.3,Win32,164.9348507,61b8f3437b89212fae0dfade
3,4.4224,space,2.6847,0,333,333,252,1,,,6074b929f753216d88c77e88,6437854ebe36cf8b67577e99,2023-04-12_21h43.18.166,PRaM,2021.2.3,Win32,164.9348507,61b8f3437b89212fae0dfade
2,2.291,space,0.5938,0,334,334,113,1,,,6074b929f753216d88c77e88,6437854ebe36cf8b67577e99,2023-04-12_21h43.18.166,PRaM,2021.2.3,Win32,164.9348507,61b8f3437b89212fae0dfade
5,4.3385,space,2.5939,0,335,335,304,1,,,6074b929f753216d88c77e88,6437854ebe36cf8b67577e99,2023-04-12_21h43.18.166,PRaM,2021.2.3,Win32,164.9348507,61b8f3437b89212fae0dfade
3,2.3391,space,0.9699,0,336,336,129,1,,,6074b929f753216d88c77e88,6437854ebe36cf8b67577e99,2023-04-12_21h43.18.166,PRaM,2021.2.3,Win32,164.9348507,61b8f3437b89212fae0dfade
3,2.3509,space,0.6544,0,337,337,31,1,,,6074b929f753216d88c77e88,6437854ebe36cf8b67577e99,2023-04-12_21h43.18.166,PRaM,2021.2.3,Win32,164.9348507,61b8f3437b89212fae0dfade
3,4.7445,space,3.0786,0,338,338,37,1,,,6074b929f753216d88c77e88,6437854ebe36cf8b67577e99,2023-04-12_21h43.18.166,PRaM,2021.2.3,Win32,164.9348507,61b8f3437b89212fae0dfade
2,1.7937,space,0.1083,0,339,339,374,1,,,6074b929f753216d88c77e88,6437854ebe36cf8b67577e99,2023-04-12_21h43.18.166,PRaM,2021.2.3,Win32,164.9348507,61b8f3437b89212fae0dfade
1,4.2473,space,2.5574,0,340,340,108,1,,,6074b929f753216d88c77e88,6437854ebe36cf8b67577e99,2023-04-12_21h43.18.166,PRaM,2021.2.3,Win32,164.9348507,61b8f3437b89212fae0dfade
2,1.8178,space,0.1096,0,341,341,257,1,,,6074b929f753216d88c77e88,6437854ebe36cf8b67577e99,2023-04-12_21h43.18.166,PRaM,2021.2.3,Win32,164.9348507,61b8f3437b89212fae0dfade
2,5.3379,space,3.8174,0,342,342,67,1,,,6074b929f753216d88c77e88,6437854ebe36cf8b67577e99,2023-04-12_21h43.18.166,PRaM,2021.2.3,Win32,164.9348507,61b8f3437b89212fae0dfade
6,3.0539,space,1.3698,0,343,343,270,1,,,6074b929f753216d88c77e88,6437854ebe36cf8b67577e99,2023-04-12_21h43.18.166,PRaM,2021.2.3,Win32,164.9348507,61b8f3437b89212fae0dfade
3,2.9196,space,1.0911,0,344,344,133,1,,,6074b929f753216d88c77e88,6437854ebe36cf8b67577e99,2023-04-12_21h43.18.166,PRaM,2021.2.3,Win32,164.9348507,61b8f3437b89212fae0dfade
2,2.4239,space,0.5702,0,345,345,377,1,,,6074b929f753216d88c77e88,6437854ebe36cf8b67577e99,2023-04-12_21h43.18.166,PRaM,2021.2.3,Win32,164.9348507,61b8f3437b89212fae0dfade
5,4.5383,space,3.0898,0,346,346,147,1,,,6074b929f753216d88c77e88,6437854ebe36cf8b67577e99,2023-04-12_21h43.18.166,PRaM,2021.2.3,Win32,164.9348507,61b8f3437b89212fae0dfade
4,4.2362,space,2.4852,0,347,347,39,1,,,6074b929f753216d88c77e88,6437854ebe36cf8b67577e99,2023-04-12_21h43.18.166,PRaM,2021.2.3,Win32,164.9348507,61b8f3437b89212fae0dfade
6,3.4971,space,1.7453,0,348,348,165,1,,,6074b929f753216d88c77e88,6437854ebe36cf8b67577e99,2023-04-12_21h43.18.166,PRaM,2021.2.3,Win32,164.9348507,61b8f3437b89212fae0dfade
3,2.7281,space,1.0545,0,349,349,155,1,,,6074b929f753216d88c77e88,6437854ebe36cf8b67577e99,2023-04-12_21h43.18.166,PRaM,2021.2.3,Win32,164.9348507,61b8f3437b89212fae0dfade
3,2.1323,space,1.0304,0,350,350,191,1,,,6074b929f753216d88c77e88,6437854ebe36cf8b67577e99,2023-04-12_21h43.18.166,PRaM,2021.2.3,Win32,164.9348507,61b8f3437b89212fae0dfade
3,3.69,space,1.8299,0,351,351,293,1,,,6074b929f753216d88c77e88,6437854ebe36cf8b67577e99,2023-04-12_21h43.18.166,PRaM,2021.2.3,Win32,164.9348507,61b8f3437b89212fae0dfade
3,2.6722,space,0.854,0,352,352,332,1,,,6074b929f753216d88c77e88,6437854ebe36cf8b67577e99,2023-04-12_21h43.18.166,PRaM,2021.2.3,Win32,164.9348507,61b8f3437b89212fae0dfade
5,2.5203,space,0.703,0,353,353,88,1,,,6074b929f753216d88c77e88,6437854ebe36cf8b67577e99,2023-04-12_21h43.18.166,PRaM,2021.2.3,Win32,164.9348507,61b8f3437b89212fae0dfade
2,2.1696,space,0.376,0,354,354,44,1,,,6074b929f753216d88c77e88,6437854ebe36cf8b67577e99,2023-04-12_21h43.18.166,PRaM,2021.2.3,Win32,164.9348507,61b8f3437b89212fae0dfade
6,2.2663,space,0.6421,0,355,355,127,1,,,6074b929f753216d88c77e88,6437854ebe36cf8b67577e99,2023-04-12_21h43.18.166,PRaM,2021.2.3,Win32,164.9348507,61b8f3437b89212fae0dfade
6,1.9513,space,0.1577,0,356,356,142,1,,,6074b929f753216d88c77e88,6437854ebe36cf8b67577e99,2023-04-12_21h43.18.166,PRaM,2021.2.3,Win32,164.9348507,61b8f3437b89212fae0dfade
5,2.7576,space,1.1999,0,357,357,370,1,,,6074b929f753216d88c77e88,6437854ebe36cf8b67577e99,2023-04-12_21h43.18.166,PRaM,2021.2.3,Win32,164.9348507,61b8f3437b89212fae0dfade
3,2.5699,space,1.6854,0,358,358,317,1,,,6074b929f753216d88c77e88,6437854ebe36cf8b67577e99,2023-04-12_21h43.18.166,PRaM,2021.2.3,Win32,164.9348507,61b8f3437b89212fae0dfade
4,2.8001,space,0.9812,0,359,359,21,1,,,6074b929f753216d88c77e88,6437854ebe36cf8b67577e99,2023-04-12_21h43.18.166,PRaM,2021.2.3,Win32,164.9348507,61b8f3437b89212fae0dfade
3,1.8785,space,0.1091,0,360,360,158,1,,,6074b929f753216d88c77e88,6437854ebe36cf8b67577e99,2023-04-12_21h43.18.166,PRaM,2021.2.3,Win32,164.9348507,61b8f3437b89212fae0dfade
3,13.7746,space,12.0237,0,361,361,201,1,,,6074b929f753216d88c77e88,6437854ebe36cf8b67577e99,2023-04-12_21h43.18.166,PRaM,2021.2.3,Win32,164.9348507,61b8f3437b89212fae0dfade
3,1.7087,space,0.0125,0,362,362,23,1,,,6074b929f753216d88c77e88,6437854ebe36cf8b67577e99,2023-04-12_21h43.18.166,PRaM,2021.2.3,Win32,164.9348507,61b8f3437b89212fae0dfade
2,2.4476,space,0.6552,0,363,363,28,1,,,6074b929f753216d88c77e88,6437854ebe36cf8b67577e99,2023-04-12_21h43.18.166,PRaM,2021.2.3,Win32,164.9348507,61b8f3437b89212fae0dfade
3,2.4296,space,0.6065,0,364,364,46,1,,,6074b929f753216d88c77e88,6437854ebe36cf8b67577e99,2023-04-12_21h43.18.166,PRaM,2021.2.3,Win32,164.9348507,61b8f3437b89212fae0dfade
5,1.8431,space,0.0486,0,365,365,303,1,,,6074b929f753216d88c77e88,6437854ebe36cf8b67577e99,2023-04-12_21h43.18.166,PRaM,2021.2.3,Win32,164.9348507,61b8f3437b89212fae0dfade
6,2.5026,space,0.8244,0,366,366,134,1,,,6074b929f753216d88c77e88,6437854ebe36cf8b67577e99,2023-04-12_21h43.18.166,PRaM,2021.2.3,Win32,164.9348507,61b8f3437b89212fae0dfade
3,1.8058,space,0.0974,0,367,367,52,1,,,6074b929f753216d88c77e88,6437854ebe36cf8b67577e99,2023-04-12_21h43.18.166,PRaM,2021.2.3,Win32,164.9348507,61b8f3437b89212fae0dfade
2,2.3271,space,0.5461,0,368,368,135,1,,,6074b929f753216d88c77e88,6437854ebe36cf8b67577e99,2023-04-12_21h43.18.166,PRaM,2021.2.3,Win32,164.9348507,61b8f3437b89212fae0dfade
3,1.7566,space,0.7138,0,369,369,295,1,,,6074b929f753216d88c77e88,6437854ebe36cf8b67577e99,2023-04-12_21h43.18.166,PRaM,2021.2.3,Win32,164.9348507,61b8f3437b89212fae0dfade
2,2.7027,space,0.9826,0,370,370,1,1,,,6074b929f753216d88c77e88,6437854ebe36cf8b67577e99,2023-04-12_21h43.18.166,PRaM,2021.2.3,Win32,164.9348507,61b8f3437b89212fae0dfade
2,1.7685,space,0.1204,0,371,371,15,1,,,6074b929f753216d88c77e88,6437854ebe36cf8b67577e99,2023-04-12_21h43.18.166,PRaM,2021.2.3,Win32,164.9348507,61b8f3437b89212fae0dfade
5,1.6966,space,0.0731,0,372,372,228,1,,,6074b929f753216d88c77e88,6437854ebe36cf8b67577e99,2023-04-12_21h43.18.166,PRaM,2021.2.3,Win32,164.9348507,61b8f3437b89212fae0dfade
6,3.4594,space,1.7698,0,373,373,281,1,,,6074b929f753216d88c77e88,6437854ebe36cf8b67577e99,2023-04-12_21h43.18.166,PRaM,2021.2.3,Win32,164.9348507,61b8f3437b89212fae0dfade
2,2.7754,space,1.0057,0,374,374,54,1,,,6074b929f753216d88c77e88,6437854ebe36cf8b67577e99,2023-04-12_21h43.18.166,PRaM,2021.2.3,Win32,164.9348507,61b8f3437b89212fae0dfade
7,2.0366,space,0.3628,0,375,375,139,1,,,6074b929f753216d88c77e88,6437854ebe36cf8b67577e99,2023-04-12_21h43.18.166,PRaM,2021.2.3,Win32,164.9348507,61b8f3437b89212fae0dfade
3,1.4787,space,0.7033,0,376,376,72,1,,,6074b929f753216d88c77e88,6437854ebe36cf8b67577e99,2023-04-12_21h43.18.166,PRaM,2021.2.3,Win32,164.9348507,61b8f3437b89212fae0dfade
4,2.6541,space,0.8612,0,377,377,100,1,,,6074b929f753216d88c77e88,6437854ebe36cf8b67577e99,2023-04-12_21h43.18.166,PRaM,2021.2.3,Win32,164.9348507,61b8f3437b89212fae0dfade
