Rating.response,Rating.rt,EndTrial.keys,EndTrial.rt,trials.thisRepN,trials.thisTrialN,trials.thisN,trials.thisIndex,trials.ran,Pos1,Pos2,participant,session,date,expName,psychopyVersion,OS,frameRate,study_id
,,space,5.3736,0,0,0,352,1,,,6087b352bc927336035cb9e0,6437730e73c9257ef9b8d09c,2023-04-13_15h16.06.813,PRaM,2021.2.3,Win32,59.91611744,61b8f3437b89212fae0dfadf
5,12.7352,space,11.1949,0,1,1,75,1,,,6087b352bc927336035cb9e0,6437730e73c9257ef9b8d09c,2023-04-13_15h16.06.813,PRaM,2021.2.3,Win32,59.91611744,61b8f3437b89212fae0dfadf
1,2.2646,space,1.1283,0,2,2,359,1,,,6087b352bc927336035cb9e0,6437730e73c9257ef9b8d09c,2023-04-13_15h16.06.813,PRaM,2021.2.3,Win32,59.91611744,61b8f3437b89212fae0dfadf
2,1.9897,space,0.9282,0,3,3,91,1,,,6087b352bc927336035cb9e0,6437730e73c9257ef9b8d09c,2023-04-13_15h16.06.813,PRaM,2021.2.3,Win32,59.91611744,61b8f3437b89212fae0dfadf
1,1.8482,space,0.3107,0,4,4,106,1,,,6087b352bc927336035cb9e0,6437730e73c9257ef9b8d09c,2023-04-13_15h16.06.813,PRaM,2021.2.3,Win32,59.91611744,61b8f3437b89212fae0dfadf
6,2.0977,space,0.8681,0,5,5,150,1,,,6087b352bc927336035cb9e0,6437730e73c9257ef9b8d09c,2023-04-13_15h16.06.813,PRaM,2021.2.3,Win32,59.91611744,61b8f3437b89212fae0dfadf
2,1.9448,space,0.1061,0,6,6,215,1,,,6087b352bc927336035cb9e0,6437730e73c9257ef9b8d09c,2023-04-13_15h16.06.813,PRaM,2021.2.3,Win32,59.91611744,61b8f3437b89212fae0dfadf
7,2.2262,space,0.395,0,7,7,126,1,,,6087b352bc927336035cb9e0,6437730e73c9257ef9b8d09c,2023-04-13_15h16.06.813,PRaM,2021.2.3,Win32,59.91611744,61b8f3437b89212fae0dfadf
2,2.1286,space,0.5345,0,8,8,184,1,,,6087b352bc927336035cb9e0,6437730e73c9257ef9b8d09c,2023-04-13_15h16.06.813,PRaM,2021.2.3,Win32,59.91611744,61b8f3437b89212fae0dfadf
4,2.2155,space,1.2381,0,9,9,256,1,,,6087b352bc927336035cb9e0,6437730e73c9257ef9b8d09c,2023-04-13_15h16.06.813,PRaM,2021.2.3,Win32,59.91611744,61b8f3437b89212fae0dfadf
8,2.1075,space,0.4512,0,10,10,274,1,,,6087b352bc927336035cb9e0,6437730e73c9257ef9b8d09c,2023-04-13_15h16.06.813,PRaM,2021.2.3,Win32,59.91611744,61b8f3437b89212fae0dfadf
8,1.4735,space,0.9353,0,11,11,140,1,,,6087b352bc927336035cb9e0,6437730e73c9257ef9b8d09c,2023-04-13_15h16.06.813,PRaM,2021.2.3,Win32,59.91611744,61b8f3437b89212fae0dfadf
8,1.8136,space,0.3706,0,12,12,19,1,,,6087b352bc927336035cb9e0,6437730e73c9257ef9b8d09c,2023-04-13_15h16.06.813,PRaM,2021.2.3,Win32,59.91611744,61b8f3437b89212fae0dfadf
5,2.2759,space,0.4725,0,13,13,345,1,,,6087b352bc927336035cb9e0,6437730e73c9257ef9b8d09c,2023-04-13_15h16.06.813,PRaM,2021.2.3,Win32,59.91611744,61b8f3437b89212fae0dfadf
5,2.412,space,0.8914,0,14,14,328,1,,,6087b352bc927336035cb9e0,6437730e73c9257ef9b8d09c,2023-04-13_15h16.06.813,PRaM,2021.2.3,Win32,59.91611744,61b8f3437b89212fae0dfadf
6,3.3755,space,1.7526,0,15,15,86,1,,,6087b352bc927336035cb9e0,6437730e73c9257ef9b8d09c,2023-04-13_15h16.06.813,PRaM,2021.2.3,Win32,59.91611744,61b8f3437b89212fae0dfadf
2,3.1421,space,1.6015,0,16,16,250,1,,,6087b352bc927336035cb9e0,6437730e73c9257ef9b8d09c,2023-04-13_15h16.06.813,PRaM,2021.2.3,Win32,59.91611744,61b8f3437b89212fae0dfadf
7,2.0579,space,0.5108,0,17,17,110,1,,,6087b352bc927336035cb9e0,6437730e73c9257ef9b8d09c,2023-04-13_15h16.06.813,PRaM,2021.2.3,Win32,59.91611744,61b8f3437b89212fae0dfadf
7,1.9618,space,0.4632,0,18,18,216,1,,,6087b352bc927336035cb9e0,6437730e73c9257ef9b8d09c,2023-04-13_15h16.06.813,PRaM,2021.2.3,Win32,59.91611744,61b8f3437b89212fae0dfadf
2,2.1744,space,0.5014,0,19,19,234,1,,,6087b352bc927336035cb9e0,6437730e73c9257ef9b8d09c,2023-04-13_15h16.06.813,PRaM,2021.2.3,Win32,59.91611744,61b8f3437b89212fae0dfadf
7,2.2823,space,0.6737,0,20,20,301,1,,,6087b352bc927336035cb9e0,6437730e73c9257ef9b8d09c,2023-04-13_15h16.06.813,PRaM,2021.2.3,Win32,59.91611744,61b8f3437b89212fae0dfadf
2,1.961,space,0.1129,0,21,21,338,1,,,6087b352bc927336035cb9e0,6437730e73c9257ef9b8d09c,2023-04-13_15h16.06.813,PRaM,2021.2.3,Win32,59.91611744,61b8f3437b89212fae0dfadf
7,2.077,space,0.4583,0,22,22,192,1,,,6087b352bc927336035cb9e0,6437730e73c9257ef9b8d09c,2023-04-13_15h16.06.813,PRaM,2021.2.3,Win32,59.91611744,61b8f3437b89212fae0dfadf
6,2.4096,space,1.403,0,23,23,213,1,,,6087b352bc927336035cb9e0,6437730e73c9257ef9b8d09c,2023-04-13_15h16.06.813,PRaM,2021.2.3,Win32,59.91611744,61b8f3437b89212fae0dfadf
6,1.5751,space,2.1761,0,24,24,209,1,,,6087b352bc927336035cb9e0,6437730e73c9257ef9b8d09c,2023-04-13_15h16.06.813,PRaM,2021.2.3,Win32,59.91611744,61b8f3437b89212fae0dfadf
8,2.2187,space,0.7742,0,25,25,51,1,,,6087b352bc927336035cb9e0,6437730e73c9257ef9b8d09c,2023-04-13_15h16.06.813,PRaM,2021.2.3,Win32,59.91611744,61b8f3437b89212fae0dfadf
5,2.4566,space,0.8104,0,26,26,167,1,,,6087b352bc927336035cb9e0,6437730e73c9257ef9b8d09c,2023-04-13_15h16.06.813,PRaM,2021.2.3,Win32,59.91611744,61b8f3437b89212fae0dfadf
3,1.8985,space,0.3527,0,27,27,11,1,,,6087b352bc927336035cb9e0,6437730e73c9257ef9b8d09c,2023-04-13_15h16.06.813,PRaM,2021.2.3,Win32,59.91611744,61b8f3437b89212fae0dfadf
5,2.28,space,0.5049,0,28,28,349,1,,,6087b352bc927336035cb9e0,6437730e73c9257ef9b8d09c,2023-04-13_15h16.06.813,PRaM,2021.2.3,Win32,59.91611744,61b8f3437b89212fae0dfadf
7,1.7417,space,0.1909,0,29,29,280,1,,,6087b352bc927336035cb9e0,6437730e73c9257ef9b8d09c,2023-04-13_15h16.06.813,PRaM,2021.2.3,Win32,59.91611744,61b8f3437b89212fae0dfadf
2,2.2275,space,0.4565,0,30,30,214,1,,,6087b352bc927336035cb9e0,6437730e73c9257ef9b8d09c,2023-04-13_15h16.06.813,PRaM,2021.2.3,Win32,59.91611744,61b8f3437b89212fae0dfadf
4,2.7387,space,1.1435,0,31,31,351,1,,,6087b352bc927336035cb9e0,6437730e73c9257ef9b8d09c,2023-04-13_15h16.06.813,PRaM,2021.2.3,Win32,59.91611744,61b8f3437b89212fae0dfadf
7,2.2835,space,0.7559,0,32,32,90,1,,,6087b352bc927336035cb9e0,6437730e73c9257ef9b8d09c,2023-04-13_15h16.06.813,PRaM,2021.2.3,Win32,59.91611744,61b8f3437b89212fae0dfadf
2,2.6918,space,1.1058,0,33,33,50,1,,,6087b352bc927336035cb9e0,6437730e73c9257ef9b8d09c,2023-04-13_15h16.06.813,PRaM,2021.2.3,Win32,59.91611744,61b8f3437b89212fae0dfadf
8,3.3379,space,1.8033,0,34,34,225,1,,,6087b352bc927336035cb9e0,6437730e73c9257ef9b8d09c,2023-04-13_15h16.06.813,PRaM,2021.2.3,Win32,59.91611744,61b8f3437b89212fae0dfadf
8,1.7235,space,0.2003,0,35,35,102,1,,,6087b352bc927336035cb9e0,6437730e73c9257ef9b8d09c,2023-04-13_15h16.06.813,PRaM,2021.2.3,Win32,59.91611744,61b8f3437b89212fae0dfadf
5,1.8238,space,0.035,0,36,36,72,1,,,6087b352bc927336035cb9e0,6437730e73c9257ef9b8d09c,2023-04-13_15h16.06.813,PRaM,2021.2.3,Win32,59.91611744,61b8f3437b89212fae0dfadf
6,2.7828,space,1.1917,0,37,37,314,1,,,6087b352bc927336035cb9e0,6437730e73c9257ef9b8d09c,2023-04-13_15h16.06.813,PRaM,2021.2.3,Win32,59.91611744,61b8f3437b89212fae0dfadf
7,1.7608,space,1.2594,0,38,38,83,1,,,6087b352bc927336035cb9e0,6437730e73c9257ef9b8d09c,2023-04-13_15h16.06.813,PRaM,2021.2.3,Win32,59.91611744,61b8f3437b89212fae0dfadf
7,2.9899,space,1.3645,0,39,39,363,1,,,6087b352bc927336035cb9e0,6437730e73c9257ef9b8d09c,2023-04-13_15h16.06.813,PRaM,2021.2.3,Win32,59.91611744,61b8f3437b89212fae0dfadf
2,2.8077,space,1.2007,0,40,40,122,1,,,6087b352bc927336035cb9e0,6437730e73c9257ef9b8d09c,2023-04-13_15h16.06.813,PRaM,2021.2.3,Win32,59.91611744,61b8f3437b89212fae0dfadf
4,1.8742,space,0.4387,0,41,41,219,1,,,6087b352bc927336035cb9e0,6437730e73c9257ef9b8d09c,2023-04-13_15h16.06.813,PRaM,2021.2.3,Win32,59.91611744,61b8f3437b89212fae0dfadf
6,6.7677,space,5.1558,0,42,42,80,1,,,6087b352bc927336035cb9e0,6437730e73c9257ef9b8d09c,2023-04-13_15h16.06.813,PRaM,2021.2.3,Win32,59.91611744,61b8f3437b89212fae0dfadf
8,1.6578,space,0.0508,0,43,43,118,1,,,6087b352bc927336035cb9e0,6437730e73c9257ef9b8d09c,2023-04-13_15h16.06.813,PRaM,2021.2.3,Win32,59.91611744,61b8f3437b89212fae0dfadf
7,2.3908,space,0.8234,0,44,44,104,1,,,6087b352bc927336035cb9e0,6437730e73c9257ef9b8d09c,2023-04-13_15h16.06.813,PRaM,2021.2.3,Win32,59.91611744,61b8f3437b89212fae0dfadf
8,1.8906,space,0.3512,0,45,45,331,1,,,6087b352bc927336035cb9e0,6437730e73c9257ef9b8d09c,2023-04-13_15h16.06.813,PRaM,2021.2.3,Win32,59.91611744,61b8f3437b89212fae0dfadf
8,2.2083,space,0.7759,0,46,46,168,1,,,6087b352bc927336035cb9e0,6437730e73c9257ef9b8d09c,2023-04-13_15h16.06.813,PRaM,2021.2.3,Win32,59.91611744,61b8f3437b89212fae0dfadf
7,1.6793,space,0.1344,0,47,47,29,1,,,6087b352bc927336035cb9e0,6437730e73c9257ef9b8d09c,2023-04-13_15h16.06.813,PRaM,2021.2.3,Win32,59.91611744,61b8f3437b89212fae0dfadf
7,1.2101,space,0.4766,0,48,48,20,1,,,6087b352bc927336035cb9e0,6437730e73c9257ef9b8d09c,2023-04-13_15h16.06.813,PRaM,2021.2.3,Win32,59.91611744,61b8f3437b89212fae0dfadf
2,2.2907,space,0.7684,0,49,49,108,1,,,6087b352bc927336035cb9e0,6437730e73c9257ef9b8d09c,2023-04-13_15h16.06.813,PRaM,2021.2.3,Win32,59.91611744,61b8f3437b89212fae0dfadf
7,1.9967,space,0.3583,0,50,50,0,1,,,6087b352bc927336035cb9e0,6437730e73c9257ef9b8d09c,2023-04-13_15h16.06.813,PRaM,2021.2.3,Win32,59.91611744,61b8f3437b89212fae0dfadf
1,3.5387,space,1.9781,0,51,51,107,1,,,6087b352bc927336035cb9e0,6437730e73c9257ef9b8d09c,2023-04-13_15h16.06.813,PRaM,2021.2.3,Win32,59.91611744,61b8f3437b89212fae0dfadf
7,1.8577,space,0.2389,0,52,52,139,1,,,6087b352bc927336035cb9e0,6437730e73c9257ef9b8d09c,2023-04-13_15h16.06.813,PRaM,2021.2.3,Win32,59.91611744,61b8f3437b89212fae0dfadf
3,1.7909,space,0.2025,0,53,53,109,1,,,6087b352bc927336035cb9e0,6437730e73c9257ef9b8d09c,2023-04-13_15h16.06.813,PRaM,2021.2.3,Win32,59.91611744,61b8f3437b89212fae0dfadf
5,1.8437,space,0.1359,0,54,54,257,1,,,6087b352bc927336035cb9e0,6437730e73c9257ef9b8d09c,2023-04-13_15h16.06.813,PRaM,2021.2.3,Win32,59.91611744,61b8f3437b89212fae0dfadf
7,2.026,space,0.4413,0,55,55,56,1,,,6087b352bc927336035cb9e0,6437730e73c9257ef9b8d09c,2023-04-13_15h16.06.813,PRaM,2021.2.3,Win32,59.91611744,61b8f3437b89212fae0dfadf
2,2.6114,space,0.9979,0,56,56,229,1,,,6087b352bc927336035cb9e0,6437730e73c9257ef9b8d09c,2023-04-13_15h16.06.813,PRaM,2021.2.3,Win32,59.91611744,61b8f3437b89212fae0dfadf
8,2.3747,space,0.8013,0,57,57,186,1,,,6087b352bc927336035cb9e0,6437730e73c9257ef9b8d09c,2023-04-13_15h16.06.813,PRaM,2021.2.3,Win32,59.91611744,61b8f3437b89212fae0dfadf
7,2.1307,space,0.589,0,58,58,7,1,,,6087b352bc927336035cb9e0,6437730e73c9257ef9b8d09c,2023-04-13_15h16.06.813,PRaM,2021.2.3,Win32,59.91611744,61b8f3437b89212fae0dfadf
6,2.3617,space,0.7719,0,59,59,271,1,,,6087b352bc927336035cb9e0,6437730e73c9257ef9b8d09c,2023-04-13_15h16.06.813,PRaM,2021.2.3,Win32,59.91611744,61b8f3437b89212fae0dfadf
1,2.2102,space,0.5636,0,60,60,54,1,,,6087b352bc927336035cb9e0,6437730e73c9257ef9b8d09c,2023-04-13_15h16.06.813,PRaM,2021.2.3,Win32,59.91611744,61b8f3437b89212fae0dfadf
8,2.4057,space,0.7866,0,61,61,48,1,,,6087b352bc927336035cb9e0,6437730e73c9257ef9b8d09c,2023-04-13_15h16.06.813,PRaM,2021.2.3,Win32,59.91611744,61b8f3437b89212fae0dfadf
2,2.0127,space,0.3694,0,62,62,212,1,,,6087b352bc927336035cb9e0,6437730e73c9257ef9b8d09c,2023-04-13_15h16.06.813,PRaM,2021.2.3,Win32,59.91611744,61b8f3437b89212fae0dfadf
3,3.2409,space,1.67,0,63,63,73,1,,,6087b352bc927336035cb9e0,6437730e73c9257ef9b8d09c,2023-04-13_15h16.06.813,PRaM,2021.2.3,Win32,59.91611744,61b8f3437b89212fae0dfadf
3,9.2637,space,7.5092,0,64,64,164,1,,,6087b352bc927336035cb9e0,6437730e73c9257ef9b8d09c,2023-04-13_15h16.06.813,PRaM,2021.2.3,Win32,59.91611744,61b8f3437b89212fae0dfadf
4,2.3905,space,0.7531,0,65,65,58,1,,,6087b352bc927336035cb9e0,6437730e73c9257ef9b8d09c,2023-04-13_15h16.06.813,PRaM,2021.2.3,Win32,59.91611744,61b8f3437b89212fae0dfadf
8,2.2401,space,0.7907,0,66,66,16,1,,,6087b352bc927336035cb9e0,6437730e73c9257ef9b8d09c,2023-04-13_15h16.06.813,PRaM,2021.2.3,Win32,59.91611744,61b8f3437b89212fae0dfadf
2,2.3135,space,0.7514,0,67,67,169,1,,,6087b352bc927336035cb9e0,6437730e73c9257ef9b8d09c,2023-04-13_15h16.06.813,PRaM,2021.2.3,Win32,59.91611744,61b8f3437b89212fae0dfadf
7,1.5491,space,3.2717,0,68,68,117,1,,,6087b352bc927336035cb9e0,6437730e73c9257ef9b8d09c,2023-04-13_15h16.06.813,PRaM,2021.2.3,Win32,59.91611744,61b8f3437b89212fae0dfadf
2,1.9989,space,0.3526,0,69,69,360,1,,,6087b352bc927336035cb9e0,6437730e73c9257ef9b8d09c,2023-04-13_15h16.06.813,PRaM,2021.2.3,Win32,59.91611744,61b8f3437b89212fae0dfadf
7,1.7096,space,0.2178,0,70,70,32,1,,,6087b352bc927336035cb9e0,6437730e73c9257ef9b8d09c,2023-04-13_15h16.06.813,PRaM,2021.2.3,Win32,59.91611744,61b8f3437b89212fae0dfadf
3,1.8797,space,0.569,0,71,71,13,1,,,6087b352bc927336035cb9e0,6437730e73c9257ef9b8d09c,2023-04-13_15h16.06.813,PRaM,2021.2.3,Win32,59.91611744,61b8f3437b89212fae0dfadf
6,2.6734,space,1.1689,0,72,72,120,1,,,6087b352bc927336035cb9e0,6437730e73c9257ef9b8d09c,2023-04-13_15h16.06.813,PRaM,2021.2.3,Win32,59.91611744,61b8f3437b89212fae0dfadf
7,1.9158,space,0.3197,0,73,73,178,1,,,6087b352bc927336035cb9e0,6437730e73c9257ef9b8d09c,2023-04-13_15h16.06.813,PRaM,2021.2.3,Win32,59.91611744,61b8f3437b89212fae0dfadf
7,1.5426,space,0.0511,0,74,74,105,1,,,6087b352bc927336035cb9e0,6437730e73c9257ef9b8d09c,2023-04-13_15h16.06.813,PRaM,2021.2.3,Win32,59.91611744,61b8f3437b89212fae0dfadf
2,3.1941,space,1.5573,0,75,75,185,1,,,6087b352bc927336035cb9e0,6437730e73c9257ef9b8d09c,2023-04-13_15h16.06.813,PRaM,2021.2.3,Win32,59.91611744,61b8f3437b89212fae0dfadf
8,1.5737,space,0.0101,0,76,76,340,1,,,6087b352bc927336035cb9e0,6437730e73c9257ef9b8d09c,2023-04-13_15h16.06.813,PRaM,2021.2.3,Win32,59.91611744,61b8f3437b89212fae0dfadf
2,1.8324,space,0.2731,0,77,77,128,1,,,6087b352bc927336035cb9e0,6437730e73c9257ef9b8d09c,2023-04-13_15h16.06.813,PRaM,2021.2.3,Win32,59.91611744,61b8f3437b89212fae0dfadf
7,1.4966,space,1.2203,0,78,78,282,1,,,6087b352bc927336035cb9e0,6437730e73c9257ef9b8d09c,2023-04-13_15h16.06.813,PRaM,2021.2.3,Win32,59.91611744,61b8f3437b89212fae0dfadf
3,2.6675,space,0.8921,0,79,79,116,1,,,6087b352bc927336035cb9e0,6437730e73c9257ef9b8d09c,2023-04-13_15h16.06.813,PRaM,2021.2.3,Win32,59.91611744,61b8f3437b89212fae0dfadf
3,2.0245,space,0.472,0,80,80,133,1,,,6087b352bc927336035cb9e0,6437730e73c9257ef9b8d09c,2023-04-13_15h16.06.813,PRaM,2021.2.3,Win32,59.91611744,61b8f3437b89212fae0dfadf
5,1.74,space,0.7663,0,81,81,371,1,,,6087b352bc927336035cb9e0,6437730e73c9257ef9b8d09c,2023-04-13_15h16.06.813,PRaM,2021.2.3,Win32,59.91611744,61b8f3437b89212fae0dfadf
5,2.429,space,0.7096,0,82,82,344,1,,,6087b352bc927336035cb9e0,6437730e73c9257ef9b8d09c,2023-04-13_15h16.06.813,PRaM,2021.2.3,Win32,59.91611744,61b8f3437b89212fae0dfadf
2,1.945,space,0.2787,0,83,83,248,1,,,6087b352bc927336035cb9e0,6437730e73c9257ef9b8d09c,2023-04-13_15h16.06.813,PRaM,2021.2.3,Win32,59.91611744,61b8f3437b89212fae0dfadf
5,3.1421,space,1.6027,0,84,84,348,1,,,6087b352bc927336035cb9e0,6437730e73c9257ef9b8d09c,2023-04-13_15h16.06.813,PRaM,2021.2.3,Win32,59.91611744,61b8f3437b89212fae0dfadf
3,11.57,space,9.8787,0,85,85,353,1,,,6087b352bc927336035cb9e0,6437730e73c9257ef9b8d09c,2023-04-13_15h16.06.813,PRaM,2021.2.3,Win32,59.91611744,61b8f3437b89212fae0dfadf
7,3.195,space,1.554,0,86,86,37,1,,,6087b352bc927336035cb9e0,6437730e73c9257ef9b8d09c,2023-04-13_15h16.06.813,PRaM,2021.2.3,Win32,59.91611744,61b8f3437b89212fae0dfadf
5,2.5768,space,1.2198,0,87,87,356,1,,,6087b352bc927336035cb9e0,6437730e73c9257ef9b8d09c,2023-04-13_15h16.06.813,PRaM,2021.2.3,Win32,59.91611744,61b8f3437b89212fae0dfadf
6,2.6074,space,1.039,0,88,88,357,1,,,6087b352bc927336035cb9e0,6437730e73c9257ef9b8d09c,2023-04-13_15h16.06.813,PRaM,2021.2.3,Win32,59.91611744,61b8f3437b89212fae0dfadf
5,2.6239,space,0.9445,0,89,89,317,1,,,6087b352bc927336035cb9e0,6437730e73c9257ef9b8d09c,2023-04-13_15h16.06.813,PRaM,2021.2.3,Win32,59.91611744,61b8f3437b89212fae0dfadf
2,1.7232,space,0.1835,0,90,90,9,1,,,6087b352bc927336035cb9e0,6437730e73c9257ef9b8d09c,2023-04-13_15h16.06.813,PRaM,2021.2.3,Win32,59.91611744,61b8f3437b89212fae0dfadf
7,1.9123,space,0.3697,0,91,91,153,1,,,6087b352bc927336035cb9e0,6437730e73c9257ef9b8d09c,2023-04-13_15h16.06.813,PRaM,2021.2.3,Win32,59.91611744,61b8f3437b89212fae0dfadf
8,2.031,space,0.4052,0,92,92,270,1,,,6087b352bc927336035cb9e0,6437730e73c9257ef9b8d09c,2023-04-13_15h16.06.813,PRaM,2021.2.3,Win32,59.91611744,61b8f3437b89212fae0dfadf
5,1.3238,space,0.7693,0,93,93,376,1,,,6087b352bc927336035cb9e0,6437730e73c9257ef9b8d09c,2023-04-13_15h16.06.813,PRaM,2021.2.3,Win32,59.91611744,61b8f3437b89212fae0dfadf
7,2.4219,space,0.7007,0,94,94,136,1,,,6087b352bc927336035cb9e0,6437730e73c9257ef9b8d09c,2023-04-13_15h16.06.813,PRaM,2021.2.3,Win32,59.91611744,61b8f3437b89212fae0dfadf
4,2.4083,space,0.7892,0,95,95,252,1,,,6087b352bc927336035cb9e0,6437730e73c9257ef9b8d09c,2023-04-13_15h16.06.813,PRaM,2021.2.3,Win32,59.91611744,61b8f3437b89212fae0dfadf
6,2.0965,space,0.487,0,96,96,21,1,,,6087b352bc927336035cb9e0,6437730e73c9257ef9b8d09c,2023-04-13_15h16.06.813,PRaM,2021.2.3,Win32,59.91611744,61b8f3437b89212fae0dfadf
6,3.4327,space,1.8379,0,97,97,260,1,,,6087b352bc927336035cb9e0,6437730e73c9257ef9b8d09c,2023-04-13_15h16.06.813,PRaM,2021.2.3,Win32,59.91611744,61b8f3437b89212fae0dfadf
8,2.0797,space,0.6889,0,98,98,166,1,,,6087b352bc927336035cb9e0,6437730e73c9257ef9b8d09c,2023-04-13_15h16.06.813,PRaM,2021.2.3,Win32,59.91611744,61b8f3437b89212fae0dfadf
3,2.041,space,0.5188,0,99,99,144,1,,,6087b352bc927336035cb9e0,6437730e73c9257ef9b8d09c,2023-04-13_15h16.06.813,PRaM,2021.2.3,Win32,59.91611744,61b8f3437b89212fae0dfadf
1,2.5821,space,0.9626,0,100,100,79,1,,,6087b352bc927336035cb9e0,6437730e73c9257ef9b8d09c,2023-04-13_15h16.06.813,PRaM,2021.2.3,Win32,59.91611744,61b8f3437b89212fae0dfadf
4,1.9821,space,0.2197,0,101,101,289,1,,,6087b352bc927336035cb9e0,6437730e73c9257ef9b8d09c,2023-04-13_15h16.06.813,PRaM,2021.2.3,Win32,59.91611744,61b8f3437b89212fae0dfadf
4,2.2496,space,0.3574,0,102,102,292,1,,,6087b352bc927336035cb9e0,6437730e73c9257ef9b8d09c,2023-04-13_15h16.06.813,PRaM,2021.2.3,Win32,59.91611744,61b8f3437b89212fae0dfadf
3,2.1293,space,0.585,0,103,103,368,1,,,6087b352bc927336035cb9e0,6437730e73c9257ef9b8d09c,2023-04-13_15h16.06.813,PRaM,2021.2.3,Win32,59.91611744,61b8f3437b89212fae0dfadf
4,9.7058,space,8.6165,0,104,104,74,1,,,6087b352bc927336035cb9e0,6437730e73c9257ef9b8d09c,2023-04-13_15h16.06.813,PRaM,2021.2.3,Win32,59.91611744,61b8f3437b89212fae0dfadf
6,2.9383,space,1.4684,0,105,105,88,1,,,6087b352bc927336035cb9e0,6437730e73c9257ef9b8d09c,2023-04-13_15h16.06.813,PRaM,2021.2.3,Win32,59.91611744,61b8f3437b89212fae0dfadf
4,4.3483,space,2.9718,0,106,106,65,1,,,6087b352bc927336035cb9e0,6437730e73c9257ef9b8d09c,2023-04-13_15h16.06.813,PRaM,2021.2.3,Win32,59.91611744,61b8f3437b89212fae0dfadf
6,3.2312,space,1.6393,0,107,107,182,1,,,6087b352bc927336035cb9e0,6437730e73c9257ef9b8d09c,2023-04-13_15h16.06.813,PRaM,2021.2.3,Win32,59.91611744,61b8f3437b89212fae0dfadf
6,1.8238,space,0.2681,0,108,108,327,1,,,6087b352bc927336035cb9e0,6437730e73c9257ef9b8d09c,2023-04-13_15h16.06.813,PRaM,2021.2.3,Win32,59.91611744,61b8f3437b89212fae0dfadf
5,3.1586,space,1.5862,0,109,109,124,1,,,6087b352bc927336035cb9e0,6437730e73c9257ef9b8d09c,2023-04-13_15h16.06.813,PRaM,2021.2.3,Win32,59.91611744,61b8f3437b89212fae0dfadf
6,3.0288,space,1.473,0,110,110,255,1,,,6087b352bc927336035cb9e0,6437730e73c9257ef9b8d09c,2023-04-13_15h16.06.813,PRaM,2021.2.3,Win32,59.91611744,61b8f3437b89212fae0dfadf
7,1.6887,space,0.4856,0,111,111,370,1,,,6087b352bc927336035cb9e0,6437730e73c9257ef9b8d09c,2023-04-13_15h16.06.813,PRaM,2021.2.3,Win32,59.91611744,61b8f3437b89212fae0dfadf
3,1.8226,space,0.0656,0,112,112,373,1,,,6087b352bc927336035cb9e0,6437730e73c9257ef9b8d09c,2023-04-13_15h16.06.813,PRaM,2021.2.3,Win32,59.91611744,61b8f3437b89212fae0dfadf
7,9.7222,space,2.1563,0,113,113,281,1,,,6087b352bc927336035cb9e0,6437730e73c9257ef9b8d09c,2023-04-13_15h16.06.813,PRaM,2021.2.3,Win32,59.91611744,61b8f3437b89212fae0dfadf
3,1.7836,space,0.1674,0,114,114,243,1,,,6087b352bc927336035cb9e0,6437730e73c9257ef9b8d09c,2023-04-13_15h16.06.813,PRaM,2021.2.3,Win32,59.91611744,61b8f3437b89212fae0dfadf
5,1.8915,space,0.1526,0,115,115,241,1,,,6087b352bc927336035cb9e0,6437730e73c9257ef9b8d09c,2023-04-13_15h16.06.813,PRaM,2021.2.3,Win32,59.91611744,61b8f3437b89212fae0dfadf
5,1.642,space,0.5455,0,116,116,364,1,,,6087b352bc927336035cb9e0,6437730e73c9257ef9b8d09c,2023-04-13_15h16.06.813,PRaM,2021.2.3,Win32,59.91611744,61b8f3437b89212fae0dfadf
3,2.3168,space,0.7428,0,117,117,223,1,,,6087b352bc927336035cb9e0,6437730e73c9257ef9b8d09c,2023-04-13_15h16.06.813,PRaM,2021.2.3,Win32,59.91611744,61b8f3437b89212fae0dfadf
7,2.1977,space,0.6007,0,118,118,40,1,,,6087b352bc927336035cb9e0,6437730e73c9257ef9b8d09c,2023-04-13_15h16.06.813,PRaM,2021.2.3,Win32,59.91611744,61b8f3437b89212fae0dfadf
5,8.54,space,7.1393,0,119,119,299,1,,,6087b352bc927336035cb9e0,6437730e73c9257ef9b8d09c,2023-04-13_15h16.06.813,PRaM,2021.2.3,Win32,59.91611744,61b8f3437b89212fae0dfadf
3,4.3161,space,2.6492,0,120,120,163,1,,,6087b352bc927336035cb9e0,6437730e73c9257ef9b8d09c,2023-04-13_15h16.06.813,PRaM,2021.2.3,Win32,59.91611744,61b8f3437b89212fae0dfadf
7,2.4292,space,0.6028,0,121,121,93,1,,,6087b352bc927336035cb9e0,6437730e73c9257ef9b8d09c,2023-04-13_15h16.06.813,PRaM,2021.2.3,Win32,59.91611744,61b8f3437b89212fae0dfadf
3,2.0755,space,0.3177,0,122,122,121,1,,,6087b352bc927336035cb9e0,6437730e73c9257ef9b8d09c,2023-04-13_15h16.06.813,PRaM,2021.2.3,Win32,59.91611744,61b8f3437b89212fae0dfadf
6,2.1228,space,0.292,0,123,123,298,1,,,6087b352bc927336035cb9e0,6437730e73c9257ef9b8d09c,2023-04-13_15h16.06.813,PRaM,2021.2.3,Win32,59.91611744,61b8f3437b89212fae0dfadf
6,3.533,space,1.8717,0,124,124,226,1,,,6087b352bc927336035cb9e0,6437730e73c9257ef9b8d09c,2023-04-13_15h16.06.813,PRaM,2021.2.3,Win32,59.91611744,61b8f3437b89212fae0dfadf
8,1.8756,space,0.2703,0,125,125,197,1,,,6087b352bc927336035cb9e0,6437730e73c9257ef9b8d09c,2023-04-13_15h16.06.813,PRaM,2021.2.3,Win32,59.91611744,61b8f3437b89212fae0dfadf
4,2.2752,space,0.672,0,126,126,237,1,,,6087b352bc927336035cb9e0,6437730e73c9257ef9b8d09c,2023-04-13_15h16.06.813,PRaM,2021.2.3,Win32,59.91611744,61b8f3437b89212fae0dfadf
3,3.3419,space,1.7868,0,127,127,329,1,,,6087b352bc927336035cb9e0,6437730e73c9257ef9b8d09c,2023-04-13_15h16.06.813,PRaM,2021.2.3,Win32,59.91611744,61b8f3437b89212fae0dfadf
3,1.696,space,0.5587,0,128,128,339,1,,,6087b352bc927336035cb9e0,6437730e73c9257ef9b8d09c,2023-04-13_15h16.06.813,PRaM,2021.2.3,Win32,59.91611744,61b8f3437b89212fae0dfadf
6,1.9665,space,0.277,0,129,129,259,1,,,6087b352bc927336035cb9e0,6437730e73c9257ef9b8d09c,2023-04-13_15h16.06.813,PRaM,2021.2.3,Win32,59.91611744,61b8f3437b89212fae0dfadf
7,1.8172,space,0.0957,0,130,130,305,1,,,6087b352bc927336035cb9e0,6437730e73c9257ef9b8d09c,2023-04-13_15h16.06.813,PRaM,2021.2.3,Win32,59.91611744,61b8f3437b89212fae0dfadf
7,1.7472,space,1.6021,0,131,131,249,1,,,6087b352bc927336035cb9e0,6437730e73c9257ef9b8d09c,2023-04-13_15h16.06.813,PRaM,2021.2.3,Win32,59.91611744,61b8f3437b89212fae0dfadf
6,3.4317,space,1.8301,0,132,132,347,1,,,6087b352bc927336035cb9e0,6437730e73c9257ef9b8d09c,2023-04-13_15h16.06.813,PRaM,2021.2.3,Win32,59.91611744,61b8f3437b89212fae0dfadf
6,1.7671,space,0.1215,0,133,133,208,1,,,6087b352bc927336035cb9e0,6437730e73c9257ef9b8d09c,2023-04-13_15h16.06.813,PRaM,2021.2.3,Win32,59.91611744,61b8f3437b89212fae0dfadf
3,1.9095,space,0.1604,0,134,134,330,1,,,6087b352bc927336035cb9e0,6437730e73c9257ef9b8d09c,2023-04-13_15h16.06.813,PRaM,2021.2.3,Win32,59.91611744,61b8f3437b89212fae0dfadf
7,1.9575,space,0.2508,0,135,135,123,1,,,6087b352bc927336035cb9e0,6437730e73c9257ef9b8d09c,2023-04-13_15h16.06.813,PRaM,2021.2.3,Win32,59.91611744,61b8f3437b89212fae0dfadf
7,1.28,space,0.7017,0,136,136,141,1,,,6087b352bc927336035cb9e0,6437730e73c9257ef9b8d09c,2023-04-13_15h16.06.813,PRaM,2021.2.3,Win32,59.91611744,61b8f3437b89212fae0dfadf
5,2.2887,space,0.7559,0,137,137,224,1,,,6087b352bc927336035cb9e0,6437730e73c9257ef9b8d09c,2023-04-13_15h16.06.813,PRaM,2021.2.3,Win32,59.91611744,61b8f3437b89212fae0dfadf
6,4.1894,space,2.6187,0,138,138,174,1,,,6087b352bc927336035cb9e0,6437730e73c9257ef9b8d09c,2023-04-13_15h16.06.813,PRaM,2021.2.3,Win32,59.91611744,61b8f3437b89212fae0dfadf
5,1.8311,space,0.1178,0,139,139,311,1,,,6087b352bc927336035cb9e0,6437730e73c9257ef9b8d09c,2023-04-13_15h16.06.813,PRaM,2021.2.3,Win32,59.91611744,61b8f3437b89212fae0dfadf
6,1.8572,space,0.1952,0,140,140,303,1,,,6087b352bc927336035cb9e0,6437730e73c9257ef9b8d09c,2023-04-13_15h16.06.813,PRaM,2021.2.3,Win32,59.91611744,61b8f3437b89212fae0dfadf
8,2.0333,space,0.4842,0,141,141,66,1,,,6087b352bc927336035cb9e0,6437730e73c9257ef9b8d09c,2023-04-13_15h16.06.813,PRaM,2021.2.3,Win32,59.91611744,61b8f3437b89212fae0dfadf
7,1.5893,space,0.5512,0,142,142,30,1,,,6087b352bc927336035cb9e0,6437730e73c9257ef9b8d09c,2023-04-13_15h16.06.813,PRaM,2021.2.3,Win32,59.91611744,61b8f3437b89212fae0dfadf
7,3.1237,space,1.8903,0,143,143,14,1,,,6087b352bc927336035cb9e0,6437730e73c9257ef9b8d09c,2023-04-13_15h16.06.813,PRaM,2021.2.3,Win32,59.91611744,61b8f3437b89212fae0dfadf
2,6.4611,space,5.0234,0,144,144,34,1,,,6087b352bc927336035cb9e0,6437730e73c9257ef9b8d09c,2023-04-13_15h16.06.813,PRaM,2021.2.3,Win32,59.91611744,61b8f3437b89212fae0dfadf
6,1.888,space,0.2026,0,145,145,254,1,,,6087b352bc927336035cb9e0,6437730e73c9257ef9b8d09c,2023-04-13_15h16.06.813,PRaM,2021.2.3,Win32,59.91611744,61b8f3437b89212fae0dfadf
7,2.0768,space,1.6478,0,146,146,264,1,,,6087b352bc927336035cb9e0,6437730e73c9257ef9b8d09c,2023-04-13_15h16.06.813,PRaM,2021.2.3,Win32,59.91611744,61b8f3437b89212fae0dfadf
6,1.4969,space,0.3064,0,147,147,119,1,,,6087b352bc927336035cb9e0,6437730e73c9257ef9b8d09c,2023-04-13_15h16.06.813,PRaM,2021.2.3,Win32,59.91611744,61b8f3437b89212fae0dfadf
5,1.4598,space,0.5066,0,148,148,374,1,,,6087b352bc927336035cb9e0,6437730e73c9257ef9b8d09c,2023-04-13_15h16.06.813,PRaM,2021.2.3,Win32,59.91611744,61b8f3437b89212fae0dfadf
6,2.3554,space,0.6283,0,149,149,172,1,,,6087b352bc927336035cb9e0,6437730e73c9257ef9b8d09c,2023-04-13_15h16.06.813,PRaM,2021.2.3,Win32,59.91611744,61b8f3437b89212fae0dfadf
6,2.0143,space,0.3754,0,150,150,294,1,,,6087b352bc927336035cb9e0,6437730e73c9257ef9b8d09c,2023-04-13_15h16.06.813,PRaM,2021.2.3,Win32,59.91611744,61b8f3437b89212fae0dfadf
4,2.4058,space,0.8026,0,151,151,113,1,,,6087b352bc927336035cb9e0,6437730e73c9257ef9b8d09c,2023-04-13_15h16.06.813,PRaM,2021.2.3,Win32,59.91611744,61b8f3437b89212fae0dfadf
5,1.1867,space,0.6671,0,152,152,206,1,,,6087b352bc927336035cb9e0,6437730e73c9257ef9b8d09c,2023-04-13_15h16.06.813,PRaM,2021.2.3,Win32,59.91611744,61b8f3437b89212fae0dfadf
6,1.8318,space,0.1183,0,153,153,200,1,,,6087b352bc927336035cb9e0,6437730e73c9257ef9b8d09c,2023-04-13_15h16.06.813,PRaM,2021.2.3,Win32,59.91611744,61b8f3437b89212fae0dfadf
4,2.9572,space,1.3566,0,154,154,171,1,,,6087b352bc927336035cb9e0,6437730e73c9257ef9b8d09c,2023-04-13_15h16.06.813,PRaM,2021.2.3,Win32,59.91611744,61b8f3437b89212fae0dfadf
5,1.6099,space,0.3234,0,155,155,52,1,,,6087b352bc927336035cb9e0,6437730e73c9257ef9b8d09c,2023-04-13_15h16.06.813,PRaM,2021.2.3,Win32,59.91611744,61b8f3437b89212fae0dfadf
4,3.6083,space,1.9634,0,156,156,342,1,,,6087b352bc927336035cb9e0,6437730e73c9257ef9b8d09c,2023-04-13_15h16.06.813,PRaM,2021.2.3,Win32,59.91611744,61b8f3437b89212fae0dfadf
2,2.4401,space,0.8684,0,157,157,70,1,,,6087b352bc927336035cb9e0,6437730e73c9257ef9b8d09c,2023-04-13_15h16.06.813,PRaM,2021.2.3,Win32,59.91611744,61b8f3437b89212fae0dfadf
3,1.572,space,0.0027,0,158,158,31,1,,,6087b352bc927336035cb9e0,6437730e73c9257ef9b8d09c,2023-04-13_15h16.06.813,PRaM,2021.2.3,Win32,59.91611744,61b8f3437b89212fae0dfadf
7,2.0909,space,0.3047,0,159,159,279,1,,,6087b352bc927336035cb9e0,6437730e73c9257ef9b8d09c,2023-04-13_15h16.06.813,PRaM,2021.2.3,Win32,59.91611744,61b8f3437b89212fae0dfadf
5,1.9317,space,0.3456,0,160,160,362,1,,,6087b352bc927336035cb9e0,6437730e73c9257ef9b8d09c,2023-04-13_15h16.06.813,PRaM,2021.2.3,Win32,59.91611744,61b8f3437b89212fae0dfadf
5,3.8101,space,2.0719,0,161,161,85,1,,,6087b352bc927336035cb9e0,6437730e73c9257ef9b8d09c,2023-04-13_15h16.06.813,PRaM,2021.2.3,Win32,59.91611744,61b8f3437b89212fae0dfadf
5,1.6748,space,0.6507,0,162,162,332,1,,,6087b352bc927336035cb9e0,6437730e73c9257ef9b8d09c,2023-04-13_15h16.06.813,PRaM,2021.2.3,Win32,59.91611744,61b8f3437b89212fae0dfadf
4,2.4505,space,0.651,0,163,163,236,1,,,6087b352bc927336035cb9e0,6437730e73c9257ef9b8d09c,2023-04-13_15h16.06.813,PRaM,2021.2.3,Win32,59.91611744,61b8f3437b89212fae0dfadf
6,2.8296,space,1.2012,0,164,164,372,1,,,6087b352bc927336035cb9e0,6437730e73c9257ef9b8d09c,2023-04-13_15h16.06.813,PRaM,2021.2.3,Win32,59.91611744,61b8f3437b89212fae0dfadf
7,17.0141,space,15.4348,0,165,165,288,1,,,6087b352bc927336035cb9e0,6437730e73c9257ef9b8d09c,2023-04-13_15h16.06.813,PRaM,2021.2.3,Win32,59.91611744,61b8f3437b89212fae0dfadf
7,1.5663,space,1.0191,0,166,166,43,1,,,6087b352bc927336035cb9e0,6437730e73c9257ef9b8d09c,2023-04-13_15h16.06.813,PRaM,2021.2.3,Win32,59.91611744,61b8f3437b89212fae0dfadf
7,1.1948,space,0.1948,0,167,167,6,1,,,6087b352bc927336035cb9e0,6437730e73c9257ef9b8d09c,2023-04-13_15h16.06.813,PRaM,2021.2.3,Win32,59.91611744,61b8f3437b89212fae0dfadf
8,2.6738,space,1.1215,0,168,168,285,1,,,6087b352bc927336035cb9e0,6437730e73c9257ef9b8d09c,2023-04-13_15h16.06.813,PRaM,2021.2.3,Win32,59.91611744,61b8f3437b89212fae0dfadf
3,1.9318,space,0.3699,0,169,169,247,1,,,6087b352bc927336035cb9e0,6437730e73c9257ef9b8d09c,2023-04-13_15h16.06.813,PRaM,2021.2.3,Win32,59.91611744,61b8f3437b89212fae0dfadf
6,2.3241,space,1.8545,0,170,170,221,1,,,6087b352bc927336035cb9e0,6437730e73c9257ef9b8d09c,2023-04-13_15h16.06.813,PRaM,2021.2.3,Win32,59.91611744,61b8f3437b89212fae0dfadf
2,1.9785,space,0.3848,0,171,171,97,1,,,6087b352bc927336035cb9e0,6437730e73c9257ef9b8d09c,2023-04-13_15h16.06.813,PRaM,2021.2.3,Win32,59.91611744,61b8f3437b89212fae0dfadf
6,3.0401,space,1.6942,0,172,172,207,1,,,6087b352bc927336035cb9e0,6437730e73c9257ef9b8d09c,2023-04-13_15h16.06.813,PRaM,2021.2.3,Win32,59.91611744,61b8f3437b89212fae0dfadf
4,2.1499,space,0.4633,0,173,173,365,1,,,6087b352bc927336035cb9e0,6437730e73c9257ef9b8d09c,2023-04-13_15h16.06.813,PRaM,2021.2.3,Win32,59.91611744,61b8f3437b89212fae0dfadf
6,2.8162,space,1.2349,0,174,174,202,1,,,6087b352bc927336035cb9e0,6437730e73c9257ef9b8d09c,2023-04-13_15h16.06.813,PRaM,2021.2.3,Win32,59.91611744,61b8f3437b89212fae0dfadf
3,3.0635,space,1.762,0,175,175,68,1,,,6087b352bc927336035cb9e0,6437730e73c9257ef9b8d09c,2023-04-13_15h16.06.813,PRaM,2021.2.3,Win32,59.91611744,61b8f3437b89212fae0dfadf
7,2.5612,space,0.8258,0,176,176,59,1,,,6087b352bc927336035cb9e0,6437730e73c9257ef9b8d09c,2023-04-13_15h16.06.813,PRaM,2021.2.3,Win32,59.91611744,61b8f3437b89212fae0dfadf
2,1.8505,space,0.2934,0,177,177,55,1,,,6087b352bc927336035cb9e0,6437730e73c9257ef9b8d09c,2023-04-13_15h16.06.813,PRaM,2021.2.3,Win32,59.91611744,61b8f3437b89212fae0dfadf
5,1.8254,space,1.7524,0,178,178,258,1,,,6087b352bc927336035cb9e0,6437730e73c9257ef9b8d09c,2023-04-13_15h16.06.813,PRaM,2021.2.3,Win32,59.91611744,61b8f3437b89212fae0dfadf
4,14.1921,space,12.8964,0,179,179,130,1,,,6087b352bc927336035cb9e0,6437730e73c9257ef9b8d09c,2023-04-13_15h16.06.813,PRaM,2021.2.3,Win32,59.91611744,61b8f3437b89212fae0dfadf
3,1.6387,space,0.0258,0,180,180,71,1,,,6087b352bc927336035cb9e0,6437730e73c9257ef9b8d09c,2023-04-13_15h16.06.813,PRaM,2021.2.3,Win32,59.91611744,61b8f3437b89212fae0dfadf
4,1.5591,space,1.12,0,181,181,154,1,,,6087b352bc927336035cb9e0,6437730e73c9257ef9b8d09c,2023-04-13_15h16.06.813,PRaM,2021.2.3,Win32,59.91611744,61b8f3437b89212fae0dfadf
6,33.0407,space,31.4155,0,182,182,165,1,,,6087b352bc927336035cb9e0,6437730e73c9257ef9b8d09c,2023-04-13_15h16.06.813,PRaM,2021.2.3,Win32,59.91611744,61b8f3437b89212fae0dfadf
3,1.9761,space,0.3842,0,183,183,343,1,,,6087b352bc927336035cb9e0,6437730e73c9257ef9b8d09c,2023-04-13_15h16.06.813,PRaM,2021.2.3,Win32,59.91611744,61b8f3437b89212fae0dfadf
7,1.9212,space,0.3221,0,184,184,183,1,,,6087b352bc927336035cb9e0,6437730e73c9257ef9b8d09c,2023-04-13_15h16.06.813,PRaM,2021.2.3,Win32,59.91611744,61b8f3437b89212fae0dfadf
3,1.6053,space,0.4327,0,185,185,148,1,,,6087b352bc927336035cb9e0,6437730e73c9257ef9b8d09c,2023-04-13_15h16.06.813,PRaM,2021.2.3,Win32,59.91611744,61b8f3437b89212fae0dfadf
3,2.0074,space,0.4012,0,186,186,375,1,,,6087b352bc927336035cb9e0,6437730e73c9257ef9b8d09c,2023-04-13_15h16.06.813,PRaM,2021.2.3,Win32,59.91611744,61b8f3437b89212fae0dfadf
2,5.096,space,3.4749,0,187,187,354,1,,,6087b352bc927336035cb9e0,6437730e73c9257ef9b8d09c,2023-04-13_15h16.06.813,PRaM,2021.2.3,Win32,59.91611744,61b8f3437b89212fae0dfadf
7,4.2952,space,2.7331,0,188,188,177,1,,,6087b352bc927336035cb9e0,6437730e73c9257ef9b8d09c,2023-04-13_15h16.06.813,PRaM,2021.2.3,Win32,59.91611744,61b8f3437b89212fae0dfadf
7,1.2377,space,0.0189,0,189,189,47,1,,,6087b352bc927336035cb9e0,6437730e73c9257ef9b8d09c,2023-04-13_15h16.06.813,PRaM,2021.2.3,Win32,59.91611744,61b8f3437b89212fae0dfadf
7,1.9723,space,0.5359,0,190,190,42,1,,,6087b352bc927336035cb9e0,6437730e73c9257ef9b8d09c,2023-04-13_15h16.06.813,PRaM,2021.2.3,Win32,59.91611744,61b8f3437b89212fae0dfadf
7,1.8422,space,0.2208,0,191,191,33,1,,,6087b352bc927336035cb9e0,6437730e73c9257ef9b8d09c,2023-04-13_15h16.06.813,PRaM,2021.2.3,Win32,59.91611744,61b8f3437b89212fae0dfadf
4,1.9066,space,0.2859,0,192,192,290,1,,,6087b352bc927336035cb9e0,6437730e73c9257ef9b8d09c,2023-04-13_15h16.06.813,PRaM,2021.2.3,Win32,59.91611744,61b8f3437b89212fae0dfadf
6,2.3715,space,0.7372,0,193,193,269,1,,,6087b352bc927336035cb9e0,6437730e73c9257ef9b8d09c,2023-04-13_15h16.06.813,PRaM,2021.2.3,Win32,59.91611744,61b8f3437b89212fae0dfadf
1,1.9562,space,0.362,0,194,194,315,1,,,6087b352bc927336035cb9e0,6437730e73c9257ef9b8d09c,2023-04-13_15h16.06.813,PRaM,2021.2.3,Win32,59.91611744,61b8f3437b89212fae0dfadf
3,1.6476,space,0.2404,0,195,195,2,1,,,6087b352bc927336035cb9e0,6437730e73c9257ef9b8d09c,2023-04-13_15h16.06.813,PRaM,2021.2.3,Win32,59.91611744,61b8f3437b89212fae0dfadf
6,1.5595,space,0.569,0,196,196,196,1,,,6087b352bc927336035cb9e0,6437730e73c9257ef9b8d09c,2023-04-13_15h16.06.813,PRaM,2021.2.3,Win32,59.91611744,61b8f3437b89212fae0dfadf
6,1.8757,space,0.3343,0,197,197,25,1,,,6087b352bc927336035cb9e0,6437730e73c9257ef9b8d09c,2023-04-13_15h16.06.813,PRaM,2021.2.3,Win32,59.91611744,61b8f3437b89212fae0dfadf
3,2.2308,space,0.6181,0,198,198,295,1,,,6087b352bc927336035cb9e0,6437730e73c9257ef9b8d09c,2023-04-13_15h16.06.813,PRaM,2021.2.3,Win32,59.91611744,61b8f3437b89212fae0dfadf
3,2.1562,space,0.5594,0,199,199,28,1,,,6087b352bc927336035cb9e0,6437730e73c9257ef9b8d09c,2023-04-13_15h16.06.813,PRaM,2021.2.3,Win32,59.91611744,61b8f3437b89212fae0dfadf
3,7.9806,space,6.5163,0,200,200,49,1,,,6087b352bc927336035cb9e0,6437730e73c9257ef9b8d09c,2023-04-13_15h16.06.813,PRaM,2021.2.3,Win32,59.91611744,61b8f3437b89212fae0dfadf
7,2.967,space,1.4798,0,201,201,244,1,,,6087b352bc927336035cb9e0,6437730e73c9257ef9b8d09c,2023-04-13_15h16.06.813,PRaM,2021.2.3,Win32,59.91611744,61b8f3437b89212fae0dfadf
5,2.3892,space,1.1288,0,202,202,146,1,,,6087b352bc927336035cb9e0,6437730e73c9257ef9b8d09c,2023-04-13_15h16.06.813,PRaM,2021.2.3,Win32,59.91611744,61b8f3437b89212fae0dfadf
2,4.5473,space,2.9129,0,203,203,318,1,,,6087b352bc927336035cb9e0,6437730e73c9257ef9b8d09c,2023-04-13_15h16.06.813,PRaM,2021.2.3,Win32,59.91611744,61b8f3437b89212fae0dfadf
7,1.6959,space,0.1563,0,204,204,181,1,,,6087b352bc927336035cb9e0,6437730e73c9257ef9b8d09c,2023-04-13_15h16.06.813,PRaM,2021.2.3,Win32,59.91611744,61b8f3437b89212fae0dfadf
7,6.6767,space,5.056,0,205,205,180,1,,,6087b352bc927336035cb9e0,6437730e73c9257ef9b8d09c,2023-04-13_15h16.06.813,PRaM,2021.2.3,Win32,59.91611744,61b8f3437b89212fae0dfadf
2,1.7232,space,0.0529,0,206,206,240,1,,,6087b352bc927336035cb9e0,6437730e73c9257ef9b8d09c,2023-04-13_15h16.06.813,PRaM,2021.2.3,Win32,59.91611744,61b8f3437b89212fae0dfadf
4,2.8122,space,1.3355,0,207,207,179,1,,,6087b352bc927336035cb9e0,6437730e73c9257ef9b8d09c,2023-04-13_15h16.06.813,PRaM,2021.2.3,Win32,59.91611744,61b8f3437b89212fae0dfadf
7,1.6092,space,0.3099,0,208,208,46,1,,,6087b352bc927336035cb9e0,6437730e73c9257ef9b8d09c,2023-04-13_15h16.06.813,PRaM,2021.2.3,Win32,59.91611744,61b8f3437b89212fae0dfadf
7,1.1589,space,0.2183,0,209,209,127,1,,,6087b352bc927336035cb9e0,6437730e73c9257ef9b8d09c,2023-04-13_15h16.06.813,PRaM,2021.2.3,Win32,59.91611744,61b8f3437b89212fae0dfadf
3,1.6101,space,0.0366,0,210,210,147,1,,,6087b352bc927336035cb9e0,6437730e73c9257ef9b8d09c,2023-04-13_15h16.06.813,PRaM,2021.2.3,Win32,59.91611744,61b8f3437b89212fae0dfadf
3,8.3998,space,6.8635,0,211,211,111,1,,,6087b352bc927336035cb9e0,6437730e73c9257ef9b8d09c,2023-04-13_15h16.06.813,PRaM,2021.2.3,Win32,59.91611744,61b8f3437b89212fae0dfadf
6,4.9788,space,3.6205,0,212,212,100,1,,,6087b352bc927336035cb9e0,6437730e73c9257ef9b8d09c,2023-04-13_15h16.06.813,PRaM,2021.2.3,Win32,59.91611744,61b8f3437b89212fae0dfadf
3,5.1638,space,3.5656,0,213,213,8,1,,,6087b352bc927336035cb9e0,6437730e73c9257ef9b8d09c,2023-04-13_15h16.06.813,PRaM,2021.2.3,Win32,59.91611744,61b8f3437b89212fae0dfadf
2,2.9086,space,1.2796,0,214,214,321,1,,,6087b352bc927336035cb9e0,6437730e73c9257ef9b8d09c,2023-04-13_15h16.06.813,PRaM,2021.2.3,Win32,59.91611744,61b8f3437b89212fae0dfadf
3,1.7481,space,0.0839,0,215,215,92,1,,,6087b352bc927336035cb9e0,6437730e73c9257ef9b8d09c,2023-04-13_15h16.06.813,PRaM,2021.2.3,Win32,59.91611744,61b8f3437b89212fae0dfadf
2,2.8062,space,1.2688,0,216,216,283,1,,,6087b352bc927336035cb9e0,6437730e73c9257ef9b8d09c,2023-04-13_15h16.06.813,PRaM,2021.2.3,Win32,59.91611744,61b8f3437b89212fae0dfadf
7,7.3158,space,7.912,0,217,217,361,1,,,6087b352bc927336035cb9e0,6437730e73c9257ef9b8d09c,2023-04-13_15h16.06.813,PRaM,2021.2.3,Win32,59.91611744,61b8f3437b89212fae0dfadf
3,2.0429,space,0.3271,0,218,218,63,1,,,6087b352bc927336035cb9e0,6437730e73c9257ef9b8d09c,2023-04-13_15h16.06.813,PRaM,2021.2.3,Win32,59.91611744,61b8f3437b89212fae0dfadf
5,2.0574,space,0.4725,0,219,219,286,1,,,6087b352bc927336035cb9e0,6437730e73c9257ef9b8d09c,2023-04-13_15h16.06.813,PRaM,2021.2.3,Win32,59.91611744,61b8f3437b89212fae0dfadf
7,1.8324,space,0.2219,0,220,220,134,1,,,6087b352bc927336035cb9e0,6437730e73c9257ef9b8d09c,2023-04-13_15h16.06.813,PRaM,2021.2.3,Win32,59.91611744,61b8f3437b89212fae0dfadf
6,17.2927,space,15.6685,0,221,221,205,1,,,6087b352bc927336035cb9e0,6437730e73c9257ef9b8d09c,2023-04-13_15h16.06.813,PRaM,2021.2.3,Win32,59.91611744,61b8f3437b89212fae0dfadf
6,11.2547,space,9.8005,0,222,222,131,1,,,6087b352bc927336035cb9e0,6437730e73c9257ef9b8d09c,2023-04-13_15h16.06.813,PRaM,2021.2.3,Win32,59.91611744,61b8f3437b89212fae0dfadf
3,20.7075,space,19.0614,0,223,223,287,1,,,6087b352bc927336035cb9e0,6437730e73c9257ef9b8d09c,2023-04-13_15h16.06.813,PRaM,2021.2.3,Win32,59.91611744,61b8f3437b89212fae0dfadf
3,6.5445,space,5.1574,0,224,224,1,1,,,6087b352bc927336035cb9e0,6437730e73c9257ef9b8d09c,2023-04-13_15h16.06.813,PRaM,2021.2.3,Win32,59.91611744,61b8f3437b89212fae0dfadf
3,3.923,space,2.2406,0,225,225,67,1,,,6087b352bc927336035cb9e0,6437730e73c9257ef9b8d09c,2023-04-13_15h16.06.813,PRaM,2021.2.3,Win32,59.91611744,61b8f3437b89212fae0dfadf
2,1.7442,space,0.1386,0,226,226,308,1,,,6087b352bc927336035cb9e0,6437730e73c9257ef9b8d09c,2023-04-13_15h16.06.813,PRaM,2021.2.3,Win32,59.91611744,61b8f3437b89212fae0dfadf
4,2.1891,space,0.6272,0,227,227,89,1,,,6087b352bc927336035cb9e0,6437730e73c9257ef9b8d09c,2023-04-13_15h16.06.813,PRaM,2021.2.3,Win32,59.91611744,61b8f3437b89212fae0dfadf
5,1.872,space,0.1029,0,228,228,341,1,,,6087b352bc927336035cb9e0,6437730e73c9257ef9b8d09c,2023-04-13_15h16.06.813,PRaM,2021.2.3,Win32,59.91611744,61b8f3437b89212fae0dfadf
5,2.8908,space,1.2035,0,229,229,367,1,,,6087b352bc927336035cb9e0,6437730e73c9257ef9b8d09c,2023-04-13_15h16.06.813,PRaM,2021.2.3,Win32,59.91611744,61b8f3437b89212fae0dfadf
3,1.9301,space,0.2042,0,230,230,94,1,,,6087b352bc927336035cb9e0,6437730e73c9257ef9b8d09c,2023-04-13_15h16.06.813,PRaM,2021.2.3,Win32,59.91611744,61b8f3437b89212fae0dfadf
6,2.3894,space,0.7365,0,231,231,297,1,,,6087b352bc927336035cb9e0,6437730e73c9257ef9b8d09c,2023-04-13_15h16.06.813,PRaM,2021.2.3,Win32,59.91611744,61b8f3437b89212fae0dfadf
6,1.9097,space,0.143,0,232,232,319,1,,,6087b352bc927336035cb9e0,6437730e73c9257ef9b8d09c,2023-04-13_15h16.06.813,PRaM,2021.2.3,Win32,59.91611744,61b8f3437b89212fae0dfadf
5,1.3042,space,0.8029,0,233,233,322,1,,,6087b352bc927336035cb9e0,6437730e73c9257ef9b8d09c,2023-04-13_15h16.06.813,PRaM,2021.2.3,Win32,59.91611744,61b8f3437b89212fae0dfadf
7,2.0272,space,0.4284,0,234,234,201,1,,,6087b352bc927336035cb9e0,6437730e73c9257ef9b8d09c,2023-04-13_15h16.06.813,PRaM,2021.2.3,Win32,59.91611744,61b8f3437b89212fae0dfadf
8,1.2415,space,0.1622,0,235,235,277,1,,,6087b352bc927336035cb9e0,6437730e73c9257ef9b8d09c,2023-04-13_15h16.06.813,PRaM,2021.2.3,Win32,59.91611744,61b8f3437b89212fae0dfadf
3,1.8446,space,1.513,0,236,236,235,1,,,6087b352bc927336035cb9e0,6437730e73c9257ef9b8d09c,2023-04-13_15h16.06.813,PRaM,2021.2.3,Win32,59.91611744,61b8f3437b89212fae0dfadf
6,34.3266,space,33.2072,0,237,237,336,1,,,6087b352bc927336035cb9e0,6437730e73c9257ef9b8d09c,2023-04-13_15h16.06.813,PRaM,2021.2.3,Win32,59.91611744,61b8f3437b89212fae0dfadf
2,4.5237,space,2.9565,0,238,238,313,1,,,6087b352bc927336035cb9e0,6437730e73c9257ef9b8d09c,2023-04-13_15h16.06.813,PRaM,2021.2.3,Win32,59.91611744,61b8f3437b89212fae0dfadf
5,4.0237,space,2.4864,0,239,239,268,1,,,6087b352bc927336035cb9e0,6437730e73c9257ef9b8d09c,2023-04-13_15h16.06.813,PRaM,2021.2.3,Win32,59.91611744,61b8f3437b89212fae0dfadf
3,7.3924,space,6.8089,0,240,240,39,1,,,6087b352bc927336035cb9e0,6437730e73c9257ef9b8d09c,2023-04-13_15h16.06.813,PRaM,2021.2.3,Win32,59.91611744,61b8f3437b89212fae0dfadf
7,1.4711,space,0.872,0,241,241,334,1,,,6087b352bc927336035cb9e0,6437730e73c9257ef9b8d09c,2023-04-13_15h16.06.813,PRaM,2021.2.3,Win32,59.91611744,61b8f3437b89212fae0dfadf
5,2.0378,space,0.3369,0,242,242,230,1,,,6087b352bc927336035cb9e0,6437730e73c9257ef9b8d09c,2023-04-13_15h16.06.813,PRaM,2021.2.3,Win32,59.91611744,61b8f3437b89212fae0dfadf
6,1.5332,space,1.2886,0,243,243,261,1,,,6087b352bc927336035cb9e0,6437730e73c9257ef9b8d09c,2023-04-13_15h16.06.813,PRaM,2021.2.3,Win32,59.91611744,61b8f3437b89212fae0dfadf
7,26.1332,space,24.5436,0,244,244,61,1,,,6087b352bc927336035cb9e0,6437730e73c9257ef9b8d09c,2023-04-13_15h16.06.813,PRaM,2021.2.3,Win32,59.91611744,61b8f3437b89212fae0dfadf
3,2.6412,space,1.1762,0,245,245,273,1,,,6087b352bc927336035cb9e0,6437730e73c9257ef9b8d09c,2023-04-13_15h16.06.813,PRaM,2021.2.3,Win32,59.91611744,61b8f3437b89212fae0dfadf
1,1.9583,space,0.3749,0,246,246,41,1,,,6087b352bc927336035cb9e0,6437730e73c9257ef9b8d09c,2023-04-13_15h16.06.813,PRaM,2021.2.3,Win32,59.91611744,61b8f3437b89212fae0dfadf
2,2.0814,space,0.4612,0,247,247,27,1,,,6087b352bc927336035cb9e0,6437730e73c9257ef9b8d09c,2023-04-13_15h16.06.813,PRaM,2021.2.3,Win32,59.91611744,61b8f3437b89212fae0dfadf
4,1.7095,space,0.4023,0,248,248,204,1,,,6087b352bc927336035cb9e0,6437730e73c9257ef9b8d09c,2023-04-13_15h16.06.813,PRaM,2021.2.3,Win32,59.91611744,61b8f3437b89212fae0dfadf
7,1.6228,space,0.0469,0,249,249,161,1,,,6087b352bc927336035cb9e0,6437730e73c9257ef9b8d09c,2023-04-13_15h16.06.813,PRaM,2021.2.3,Win32,59.91611744,61b8f3437b89212fae0dfadf
7,2.4482,space,0.8366,0,250,250,304,1,,,6087b352bc927336035cb9e0,6437730e73c9257ef9b8d09c,2023-04-13_15h16.06.813,PRaM,2021.2.3,Win32,59.91611744,61b8f3437b89212fae0dfadf
7,2.7649,space,1.1363,0,251,251,84,1,,,6087b352bc927336035cb9e0,6437730e73c9257ef9b8d09c,2023-04-13_15h16.06.813,PRaM,2021.2.3,Win32,59.91611744,61b8f3437b89212fae0dfadf
3,1.8511,space,0.1513,0,252,252,81,1,,,6087b352bc927336035cb9e0,6437730e73c9257ef9b8d09c,2023-04-13_15h16.06.813,PRaM,2021.2.3,Win32,59.91611744,61b8f3437b89212fae0dfadf
6,1.9253,space,0.3353,0,253,253,239,1,,,6087b352bc927336035cb9e0,6437730e73c9257ef9b8d09c,2023-04-13_15h16.06.813,PRaM,2021.2.3,Win32,59.91611744,61b8f3437b89212fae0dfadf
7,4.7323,space,3.0822,0,254,254,276,1,,,6087b352bc927336035cb9e0,6437730e73c9257ef9b8d09c,2023-04-13_15h16.06.813,PRaM,2021.2.3,Win32,59.91611744,61b8f3437b89212fae0dfadf
3,1.5425,space,0.3813,0,255,255,10,1,,,6087b352bc927336035cb9e0,6437730e73c9257ef9b8d09c,2023-04-13_15h16.06.813,PRaM,2021.2.3,Win32,59.91611744,61b8f3437b89212fae0dfadf
7,2.7785,space,1.1292,0,256,256,233,1,,,6087b352bc927336035cb9e0,6437730e73c9257ef9b8d09c,2023-04-13_15h16.06.813,PRaM,2021.2.3,Win32,59.91611744,61b8f3437b89212fae0dfadf
7,1.1877,space,0.0223,0,257,257,238,1,,,6087b352bc927336035cb9e0,6437730e73c9257ef9b8d09c,2023-04-13_15h16.06.813,PRaM,2021.2.3,Win32,59.91611744,61b8f3437b89212fae0dfadf
8,2.3455,space,0.7511,0,258,258,326,1,,,6087b352bc927336035cb9e0,6437730e73c9257ef9b8d09c,2023-04-13_15h16.06.813,PRaM,2021.2.3,Win32,59.91611744,61b8f3437b89212fae0dfadf
6,1.8565,space,0.1069,0,259,259,267,1,,,6087b352bc927336035cb9e0,6437730e73c9257ef9b8d09c,2023-04-13_15h16.06.813,PRaM,2021.2.3,Win32,59.91611744,61b8f3437b89212fae0dfadf
6,2.0076,space,0.3623,0,260,260,76,1,,,6087b352bc927336035cb9e0,6437730e73c9257ef9b8d09c,2023-04-13_15h16.06.813,PRaM,2021.2.3,Win32,59.91611744,61b8f3437b89212fae0dfadf
7,1.6104,space,0.3945,0,261,261,60,1,,,6087b352bc927336035cb9e0,6437730e73c9257ef9b8d09c,2023-04-13_15h16.06.813,PRaM,2021.2.3,Win32,59.91611744,61b8f3437b89212fae0dfadf
2,1.9779,space,0.3643,0,262,262,245,1,,,6087b352bc927336035cb9e0,6437730e73c9257ef9b8d09c,2023-04-13_15h16.06.813,PRaM,2021.2.3,Win32,59.91611744,61b8f3437b89212fae0dfadf
2,2.7799,space,1.2206,0,263,263,275,1,,,6087b352bc927336035cb9e0,6437730e73c9257ef9b8d09c,2023-04-13_15h16.06.813,PRaM,2021.2.3,Win32,59.91611744,61b8f3437b89212fae0dfadf
5,1.9794,space,0.4685,0,264,264,26,1,,,6087b352bc927336035cb9e0,6437730e73c9257ef9b8d09c,2023-04-13_15h16.06.813,PRaM,2021.2.3,Win32,59.91611744,61b8f3437b89212fae0dfadf
3,1.7567,space,0.1339,0,265,265,324,1,,,6087b352bc927336035cb9e0,6437730e73c9257ef9b8d09c,2023-04-13_15h16.06.813,PRaM,2021.2.3,Win32,59.91611744,61b8f3437b89212fae0dfadf
3,1.7571,space,0.1723,0,266,266,95,1,,,6087b352bc927336035cb9e0,6437730e73c9257ef9b8d09c,2023-04-13_15h16.06.813,PRaM,2021.2.3,Win32,59.91611744,61b8f3437b89212fae0dfadf
6,2.6414,space,1.3719,0,267,267,159,1,,,6087b352bc927336035cb9e0,6437730e73c9257ef9b8d09c,2023-04-13_15h16.06.813,PRaM,2021.2.3,Win32,59.91611744,61b8f3437b89212fae0dfadf
4,4.5926,space,2.8407,0,268,268,5,1,,,6087b352bc927336035cb9e0,6437730e73c9257ef9b8d09c,2023-04-13_15h16.06.813,PRaM,2021.2.3,Win32,59.91611744,61b8f3437b89212fae0dfadf
1,2.8064,space,1.2383,0,269,269,312,1,,,6087b352bc927336035cb9e0,6437730e73c9257ef9b8d09c,2023-04-13_15h16.06.813,PRaM,2021.2.3,Win32,59.91611744,61b8f3437b89212fae0dfadf
3,1.9948,space,0.443,0,270,270,35,1,,,6087b352bc927336035cb9e0,6437730e73c9257ef9b8d09c,2023-04-13_15h16.06.813,PRaM,2021.2.3,Win32,59.91611744,61b8f3437b89212fae0dfadf
4,2.7318,space,1.1244,0,271,271,149,1,,,6087b352bc927336035cb9e0,6437730e73c9257ef9b8d09c,2023-04-13_15h16.06.813,PRaM,2021.2.3,Win32,59.91611744,61b8f3437b89212fae0dfadf
6,2.0541,space,0.4427,0,272,272,222,1,,,6087b352bc927336035cb9e0,6437730e73c9257ef9b8d09c,2023-04-13_15h16.06.813,PRaM,2021.2.3,Win32,59.91611744,61b8f3437b89212fae0dfadf
7,1.3554,space,0.1735,0,273,273,335,1,,,6087b352bc927336035cb9e0,6437730e73c9257ef9b8d09c,2023-04-13_15h16.06.813,PRaM,2021.2.3,Win32,59.91611744,61b8f3437b89212fae0dfadf
3,2.4658,space,0.8229,0,274,274,191,1,,,6087b352bc927336035cb9e0,6437730e73c9257ef9b8d09c,2023-04-13_15h16.06.813,PRaM,2021.2.3,Win32,59.91611744,61b8f3437b89212fae0dfadf
4,5.2461,space,3.4897,0,275,275,265,1,,,6087b352bc927336035cb9e0,6437730e73c9257ef9b8d09c,2023-04-13_15h16.06.813,PRaM,2021.2.3,Win32,59.91611744,61b8f3437b89212fae0dfadf
3,2.4912,space,0.8946,0,276,276,155,1,,,6087b352bc927336035cb9e0,6437730e73c9257ef9b8d09c,2023-04-13_15h16.06.813,PRaM,2021.2.3,Win32,59.91611744,61b8f3437b89212fae0dfadf
7,1.6887,space,0.1257,0,277,277,45,1,,,6087b352bc927336035cb9e0,6437730e73c9257ef9b8d09c,2023-04-13_15h16.06.813,PRaM,2021.2.3,Win32,59.91611744,61b8f3437b89212fae0dfadf
7,1.1519,space,0.0346,0,278,278,157,1,,,6087b352bc927336035cb9e0,6437730e73c9257ef9b8d09c,2023-04-13_15h16.06.813,PRaM,2021.2.3,Win32,59.91611744,61b8f3437b89212fae0dfadf
3,2.3363,space,0.9193,0,279,279,23,1,,,6087b352bc927336035cb9e0,6437730e73c9257ef9b8d09c,2023-04-13_15h16.06.813,PRaM,2021.2.3,Win32,59.91611744,61b8f3437b89212fae0dfadf
2,3.2448,space,4.4985,0,280,280,170,1,,,6087b352bc927336035cb9e0,6437730e73c9257ef9b8d09c,2023-04-13_15h16.06.813,PRaM,2021.2.3,Win32,59.91611744,61b8f3437b89212fae0dfadf
2,1.6985,space,0.1484,0,281,281,231,1,,,6087b352bc927336035cb9e0,6437730e73c9257ef9b8d09c,2023-04-13_15h16.06.813,PRaM,2021.2.3,Win32,59.91611744,61b8f3437b89212fae0dfadf
2,1.9403,space,0.3007,0,282,282,217,1,,,6087b352bc927336035cb9e0,6437730e73c9257ef9b8d09c,2023-04-13_15h16.06.813,PRaM,2021.2.3,Win32,59.91611744,61b8f3437b89212fae0dfadf
7,2.3783,space,0.7365,0,283,283,3,1,,,6087b352bc927336035cb9e0,6437730e73c9257ef9b8d09c,2023-04-13_15h16.06.813,PRaM,2021.2.3,Win32,59.91611744,61b8f3437b89212fae0dfadf
5,2.9921,space,1.2905,0,284,284,198,1,,,6087b352bc927336035cb9e0,6437730e73c9257ef9b8d09c,2023-04-13_15h16.06.813,PRaM,2021.2.3,Win32,59.91611744,61b8f3437b89212fae0dfadf
2,1.7152,space,0.0011,0,285,285,227,1,,,6087b352bc927336035cb9e0,6437730e73c9257ef9b8d09c,2023-04-13_15h16.06.813,PRaM,2021.2.3,Win32,59.91611744,61b8f3437b89212fae0dfadf
2,1.6572,space,0.3411,0,286,286,203,1,,,6087b352bc927336035cb9e0,6437730e73c9257ef9b8d09c,2023-04-13_15h16.06.813,PRaM,2021.2.3,Win32,59.91611744,61b8f3437b89212fae0dfadf
8,1.5437,space,0.1723,0,287,287,137,1,,,6087b352bc927336035cb9e0,6437730e73c9257ef9b8d09c,2023-04-13_15h16.06.813,PRaM,2021.2.3,Win32,59.91611744,61b8f3437b89212fae0dfadf
5,2.0204,space,0.4184,0,288,288,77,1,,,6087b352bc927336035cb9e0,6437730e73c9257ef9b8d09c,2023-04-13_15h16.06.813,PRaM,2021.2.3,Win32,59.91611744,61b8f3437b89212fae0dfadf
5,2.1979,space,0.6841,0,289,289,160,1,,,6087b352bc927336035cb9e0,6437730e73c9257ef9b8d09c,2023-04-13_15h16.06.813,PRaM,2021.2.3,Win32,59.91611744,61b8f3437b89212fae0dfadf
2,2.0669,space,0.5732,0,290,290,129,1,,,6087b352bc927336035cb9e0,6437730e73c9257ef9b8d09c,2023-04-13_15h16.06.813,PRaM,2021.2.3,Win32,59.91611744,61b8f3437b89212fae0dfadf
5,1.5588,space,0.4682,0,291,291,337,1,,,6087b352bc927336035cb9e0,6437730e73c9257ef9b8d09c,2023-04-13_15h16.06.813,PRaM,2021.2.3,Win32,59.91611744,61b8f3437b89212fae0dfadf
7,1.9698,space,0.4515,0,292,292,114,1,,,6087b352bc927336035cb9e0,6437730e73c9257ef9b8d09c,2023-04-13_15h16.06.813,PRaM,2021.2.3,Win32,59.91611744,61b8f3437b89212fae0dfadf
2,1.787,space,0.2504,0,293,293,284,1,,,6087b352bc927336035cb9e0,6437730e73c9257ef9b8d09c,2023-04-13_15h16.06.813,PRaM,2021.2.3,Win32,59.91611744,61b8f3437b89212fae0dfadf
7,2.7295,space,1.1252,0,294,294,62,1,,,6087b352bc927336035cb9e0,6437730e73c9257ef9b8d09c,2023-04-13_15h16.06.813,PRaM,2021.2.3,Win32,59.91611744,61b8f3437b89212fae0dfadf
6,1.5263,space,0.0013,0,295,295,22,1,,,6087b352bc927336035cb9e0,6437730e73c9257ef9b8d09c,2023-04-13_15h16.06.813,PRaM,2021.2.3,Win32,59.91611744,61b8f3437b89212fae0dfadf
5,2.9859,space,1.3713,0,296,296,96,1,,,6087b352bc927336035cb9e0,6437730e73c9257ef9b8d09c,2023-04-13_15h16.06.813,PRaM,2021.2.3,Win32,59.91611744,61b8f3437b89212fae0dfadf
8,1.9868,space,0.4677,0,297,297,320,1,,,6087b352bc927336035cb9e0,6437730e73c9257ef9b8d09c,2023-04-13_15h16.06.813,PRaM,2021.2.3,Win32,59.91611744,61b8f3437b89212fae0dfadf
7,2.1017,space,0.543,0,298,298,350,1,,,6087b352bc927336035cb9e0,6437730e73c9257ef9b8d09c,2023-04-13_15h16.06.813,PRaM,2021.2.3,Win32,59.91611744,61b8f3437b89212fae0dfadf
7,0.9956,space,1.1031,0,299,299,115,1,,,6087b352bc927336035cb9e0,6437730e73c9257ef9b8d09c,2023-04-13_15h16.06.813,PRaM,2021.2.3,Win32,59.91611744,61b8f3437b89212fae0dfadf
7,1.0504,space,0.7365,0,300,300,145,1,,,6087b352bc927336035cb9e0,6437730e73c9257ef9b8d09c,2023-04-13_15h16.06.813,PRaM,2021.2.3,Win32,59.91611744,61b8f3437b89212fae0dfadf
3,1.8663,space,0.2167,0,301,301,188,1,,,6087b352bc927336035cb9e0,6437730e73c9257ef9b8d09c,2023-04-13_15h16.06.813,PRaM,2021.2.3,Win32,59.91611744,61b8f3437b89212fae0dfadf
3,2.2544,space,0.7139,0,302,302,293,1,,,6087b352bc927336035cb9e0,6437730e73c9257ef9b8d09c,2023-04-13_15h16.06.813,PRaM,2021.2.3,Win32,59.91611744,61b8f3437b89212fae0dfadf
7,1.7847,space,0.1197,0,303,303,156,1,,,6087b352bc927336035cb9e0,6437730e73c9257ef9b8d09c,2023-04-13_15h16.06.813,PRaM,2021.2.3,Win32,59.91611744,61b8f3437b89212fae0dfadf
7,1.3208,space,0.167,0,304,304,325,1,,,6087b352bc927336035cb9e0,6437730e73c9257ef9b8d09c,2023-04-13_15h16.06.813,PRaM,2021.2.3,Win32,59.91611744,61b8f3437b89212fae0dfadf
5,1.7741,space,0.1683,0,305,305,272,1,,,6087b352bc927336035cb9e0,6437730e73c9257ef9b8d09c,2023-04-13_15h16.06.813,PRaM,2021.2.3,Win32,59.91611744,61b8f3437b89212fae0dfadf
3,1.8941,space,0.1504,0,306,306,36,1,,,6087b352bc927336035cb9e0,6437730e73c9257ef9b8d09c,2023-04-13_15h16.06.813,PRaM,2021.2.3,Win32,59.91611744,61b8f3437b89212fae0dfadf
6,1.736,space,0.0108,0,307,307,355,1,,,6087b352bc927336035cb9e0,6437730e73c9257ef9b8d09c,2023-04-13_15h16.06.813,PRaM,2021.2.3,Win32,59.91611744,61b8f3437b89212fae0dfadf
7,2.1976,space,0.5978,0,308,308,346,1,,,6087b352bc927336035cb9e0,6437730e73c9257ef9b8d09c,2023-04-13_15h16.06.813,PRaM,2021.2.3,Win32,59.91611744,61b8f3437b89212fae0dfadf
4,5.5719,space,3.953,0,309,309,176,1,,,6087b352bc927336035cb9e0,6437730e73c9257ef9b8d09c,2023-04-13_15h16.06.813,PRaM,2021.2.3,Win32,59.91611744,61b8f3437b89212fae0dfadf
6,1.6824,space,0.0895,0,310,310,278,1,,,6087b352bc927336035cb9e0,6437730e73c9257ef9b8d09c,2023-04-13_15h16.06.813,PRaM,2021.2.3,Win32,59.91611744,61b8f3437b89212fae0dfadf
6,1.8726,space,0.4867,0,311,311,291,1,,,6087b352bc927336035cb9e0,6437730e73c9257ef9b8d09c,2023-04-13_15h16.06.813,PRaM,2021.2.3,Win32,59.91611744,61b8f3437b89212fae0dfadf
4,16.9917,space,15.4566,0,312,312,125,1,,,6087b352bc927336035cb9e0,6437730e73c9257ef9b8d09c,2023-04-13_15h16.06.813,PRaM,2021.2.3,Win32,59.91611744,61b8f3437b89212fae0dfadf
7,15.5939,space,13.8806,0,313,313,307,1,,,6087b352bc927336035cb9e0,6437730e73c9257ef9b8d09c,2023-04-13_15h16.06.813,PRaM,2021.2.3,Win32,59.91611744,61b8f3437b89212fae0dfadf
3,1.3585,space,0.2117,0,314,314,211,1,,,6087b352bc927336035cb9e0,6437730e73c9257ef9b8d09c,2023-04-13_15h16.06.813,PRaM,2021.2.3,Win32,59.91611744,61b8f3437b89212fae0dfadf
3,2.573,space,1.0533,0,315,315,210,1,,,6087b352bc927336035cb9e0,6437730e73c9257ef9b8d09c,2023-04-13_15h16.06.813,PRaM,2021.2.3,Win32,59.91611744,61b8f3437b89212fae0dfadf
8,3.2545,space,1.6507,0,316,316,302,1,,,6087b352bc927336035cb9e0,6437730e73c9257ef9b8d09c,2023-04-13_15h16.06.813,PRaM,2021.2.3,Win32,59.91611744,61b8f3437b89212fae0dfadf
6,1.6837,space,0.1007,0,317,317,263,1,,,6087b352bc927336035cb9e0,6437730e73c9257ef9b8d09c,2023-04-13_15h16.06.813,PRaM,2021.2.3,Win32,59.91611744,61b8f3437b89212fae0dfadf
6,1.6478,space,0.451,0,318,318,194,1,,,6087b352bc927336035cb9e0,6437730e73c9257ef9b8d09c,2023-04-13_15h16.06.813,PRaM,2021.2.3,Win32,59.91611744,61b8f3437b89212fae0dfadf
4,1.5989,space,0.8175,0,319,319,57,1,,,6087b352bc927336035cb9e0,6437730e73c9257ef9b8d09c,2023-04-13_15h16.06.813,PRaM,2021.2.3,Win32,59.91611744,61b8f3437b89212fae0dfadf
4,2.1769,space,0.4172,0,320,320,103,1,,,6087b352bc927336035cb9e0,6437730e73c9257ef9b8d09c,2023-04-13_15h16.06.813,PRaM,2021.2.3,Win32,59.91611744,61b8f3437b89212fae0dfadf
6,1.5328,space,0.3396,0,321,321,175,1,,,6087b352bc927336035cb9e0,6437730e73c9257ef9b8d09c,2023-04-13_15h16.06.813,PRaM,2021.2.3,Win32,59.91611744,61b8f3437b89212fae0dfadf
6,1.4564,space,0.1863,0,322,322,158,1,,,6087b352bc927336035cb9e0,6437730e73c9257ef9b8d09c,2023-04-13_15h16.06.813,PRaM,2021.2.3,Win32,59.91611744,61b8f3437b89212fae0dfadf
3,2.3775,space,0.6847,0,323,323,253,1,,,6087b352bc927336035cb9e0,6437730e73c9257ef9b8d09c,2023-04-13_15h16.06.813,PRaM,2021.2.3,Win32,59.91611744,61b8f3437b89212fae0dfadf
6,1.3757,space,0.1717,0,324,324,306,1,,,6087b352bc927336035cb9e0,6437730e73c9257ef9b8d09c,2023-04-13_15h16.06.813,PRaM,2021.2.3,Win32,59.91611744,61b8f3437b89212fae0dfadf
5,1.3055,space,0.0425,0,325,325,377,1,,,6087b352bc927336035cb9e0,6437730e73c9257ef9b8d09c,2023-04-13_15h16.06.813,PRaM,2021.2.3,Win32,59.91611744,61b8f3437b89212fae0dfadf
6,2.0344,space,1.4701,0,326,326,162,1,,,6087b352bc927336035cb9e0,6437730e73c9257ef9b8d09c,2023-04-13_15h16.06.813,PRaM,2021.2.3,Win32,59.91611744,61b8f3437b89212fae0dfadf
4,1.7338,space,0.1109,0,327,327,266,1,,,6087b352bc927336035cb9e0,6437730e73c9257ef9b8d09c,2023-04-13_15h16.06.813,PRaM,2021.2.3,Win32,59.91611744,61b8f3437b89212fae0dfadf
7,1.8423,space,0.184,0,328,328,17,1,,,6087b352bc927336035cb9e0,6437730e73c9257ef9b8d09c,2023-04-13_15h16.06.813,PRaM,2021.2.3,Win32,59.91611744,61b8f3437b89212fae0dfadf
4,1.6501,space,9.1675,0,329,329,309,1,,,6087b352bc927336035cb9e0,6437730e73c9257ef9b8d09c,2023-04-13_15h16.06.813,PRaM,2021.2.3,Win32,59.91611744,61b8f3437b89212fae0dfadf
4,1.7125,space,0.1558,0,330,330,218,1,,,6087b352bc927336035cb9e0,6437730e73c9257ef9b8d09c,2023-04-13_15h16.06.813,PRaM,2021.2.3,Win32,59.91611744,61b8f3437b89212fae0dfadf
6,1.6403,space,0.301,0,331,331,151,1,,,6087b352bc927336035cb9e0,6437730e73c9257ef9b8d09c,2023-04-13_15h16.06.813,PRaM,2021.2.3,Win32,59.91611744,61b8f3437b89212fae0dfadf
6,1.214,space,0.0586,0,332,332,152,1,,,6087b352bc927336035cb9e0,6437730e73c9257ef9b8d09c,2023-04-13_15h16.06.813,PRaM,2021.2.3,Win32,59.91611744,61b8f3437b89212fae0dfadf
6,2.4251,space,0.887,0,333,333,135,1,,,6087b352bc927336035cb9e0,6437730e73c9257ef9b8d09c,2023-04-13_15h16.06.813,PRaM,2021.2.3,Win32,59.91611744,61b8f3437b89212fae0dfadf
4,1.8147,space,0.1362,0,334,334,316,1,,,6087b352bc927336035cb9e0,6437730e73c9257ef9b8d09c,2023-04-13_15h16.06.813,PRaM,2021.2.3,Win32,59.91611744,61b8f3437b89212fae0dfadf
7,1.8235,space,0.2083,0,335,335,173,1,,,6087b352bc927336035cb9e0,6437730e73c9257ef9b8d09c,2023-04-13_15h16.06.813,PRaM,2021.2.3,Win32,59.91611744,61b8f3437b89212fae0dfadf
7,1.2736,space,0.0007,0,336,336,53,1,,,6087b352bc927336035cb9e0,6437730e73c9257ef9b8d09c,2023-04-13_15h16.06.813,PRaM,2021.2.3,Win32,59.91611744,61b8f3437b89212fae0dfadf
7,2.3496,space,0.6854,0,337,337,333,1,,,6087b352bc927336035cb9e0,6437730e73c9257ef9b8d09c,2023-04-13_15h16.06.813,PRaM,2021.2.3,Win32,59.91611744,61b8f3437b89212fae0dfadf
4,2.2412,space,0.6786,0,338,338,232,1,,,6087b352bc927336035cb9e0,6437730e73c9257ef9b8d09c,2023-04-13_15h16.06.813,PRaM,2021.2.3,Win32,59.91611744,61b8f3437b89212fae0dfadf
5,3.2138,space,1.6274,0,339,339,138,1,,,6087b352bc927336035cb9e0,6437730e73c9257ef9b8d09c,2023-04-13_15h16.06.813,PRaM,2021.2.3,Win32,59.91611744,61b8f3437b89212fae0dfadf
7,1.668,space,0.0672,0,340,340,310,1,,,6087b352bc927336035cb9e0,6437730e73c9257ef9b8d09c,2023-04-13_15h16.06.813,PRaM,2021.2.3,Win32,59.91611744,61b8f3437b89212fae0dfadf
6,1.8122,space,0.2193,0,341,341,262,1,,,6087b352bc927336035cb9e0,6437730e73c9257ef9b8d09c,2023-04-13_15h16.06.813,PRaM,2021.2.3,Win32,59.91611744,61b8f3437b89212fae0dfadf
4,3.9219,space,2.3356,0,342,342,87,1,,,6087b352bc927336035cb9e0,6437730e73c9257ef9b8d09c,2023-04-13_15h16.06.813,PRaM,2021.2.3,Win32,59.91611744,61b8f3437b89212fae0dfadf
4,1.9139,space,0.3512,0,343,343,220,1,,,6087b352bc927336035cb9e0,6437730e73c9257ef9b8d09c,2023-04-13_15h16.06.813,PRaM,2021.2.3,Win32,59.91611744,61b8f3437b89212fae0dfadf
6,1.8903,space,0.3514,0,344,344,142,1,,,6087b352bc927336035cb9e0,6437730e73c9257ef9b8d09c,2023-04-13_15h16.06.813,PRaM,2021.2.3,Win32,59.91611744,61b8f3437b89212fae0dfadf
6,1.8492,space,0.242,0,345,345,132,1,,,6087b352bc927336035cb9e0,6437730e73c9257ef9b8d09c,2023-04-13_15h16.06.813,PRaM,2021.2.3,Win32,59.91611744,61b8f3437b89212fae0dfadf
5,1.723,space,0.1187,0,346,346,187,1,,,6087b352bc927336035cb9e0,6437730e73c9257ef9b8d09c,2023-04-13_15h16.06.813,PRaM,2021.2.3,Win32,59.91611744,61b8f3437b89212fae0dfadf
6,3.0156,space,1.3602,0,347,347,69,1,,,6087b352bc927336035cb9e0,6437730e73c9257ef9b8d09c,2023-04-13_15h16.06.813,PRaM,2021.2.3,Win32,59.91611744,61b8f3437b89212fae0dfadf
7,2.2438,space,0.6617,0,348,348,38,1,,,6087b352bc927336035cb9e0,6437730e73c9257ef9b8d09c,2023-04-13_15h16.06.813,PRaM,2021.2.3,Win32,59.91611744,61b8f3437b89212fae0dfadf
7,0.9544,space,0.4177,0,349,349,4,1,,,6087b352bc927336035cb9e0,6437730e73c9257ef9b8d09c,2023-04-13_15h16.06.813,PRaM,2021.2.3,Win32,59.91611744,61b8f3437b89212fae0dfadf
7,1.3948,space,0.301,0,350,350,199,1,,,6087b352bc927336035cb9e0,6437730e73c9257ef9b8d09c,2023-04-13_15h16.06.813,PRaM,2021.2.3,Win32,59.91611744,61b8f3437b89212fae0dfadf
6,1.7612,space,0.1576,0,351,351,193,1,,,6087b352bc927336035cb9e0,6437730e73c9257ef9b8d09c,2023-04-13_15h16.06.813,PRaM,2021.2.3,Win32,59.91611744,61b8f3437b89212fae0dfadf
4,1.9414,space,0.3879,0,352,352,24,1,,,6087b352bc927336035cb9e0,6437730e73c9257ef9b8d09c,2023-04-13_15h16.06.813,PRaM,2021.2.3,Win32,59.91611744,61b8f3437b89212fae0dfadf
7,1.8082,space,0.2675,0,353,353,242,1,,,6087b352bc927336035cb9e0,6437730e73c9257ef9b8d09c,2023-04-13_15h16.06.813,PRaM,2021.2.3,Win32,59.91611744,61b8f3437b89212fae0dfadf
2,2.9573,space,1.4677,0,354,354,190,1,,,6087b352bc927336035cb9e0,6437730e73c9257ef9b8d09c,2023-04-13_15h16.06.813,PRaM,2021.2.3,Win32,59.91611744,61b8f3437b89212fae0dfadf
7,1.927,space,0.358,0,355,355,366,1,,,6087b352bc927336035cb9e0,6437730e73c9257ef9b8d09c,2023-04-13_15h16.06.813,PRaM,2021.2.3,Win32,59.91611744,61b8f3437b89212fae0dfadf
6,2.5443,space,0.9372,0,356,356,44,1,,,6087b352bc927336035cb9e0,6437730e73c9257ef9b8d09c,2023-04-13_15h16.06.813,PRaM,2021.2.3,Win32,59.91611744,61b8f3437b89212fae0dfadf
5,5.2512,space,3.7321,0,357,357,296,1,,,6087b352bc927336035cb9e0,6437730e73c9257ef9b8d09c,2023-04-13_15h16.06.813,PRaM,2021.2.3,Win32,59.91611744,61b8f3437b89212fae0dfadf
6,1.523,space,0.4011,0,358,358,246,1,,,6087b352bc927336035cb9e0,6437730e73c9257ef9b8d09c,2023-04-13_15h16.06.813,PRaM,2021.2.3,Win32,59.91611744,61b8f3437b89212fae0dfadf
4,2.1232,space,0.5195,0,359,359,18,1,,,6087b352bc927336035cb9e0,6437730e73c9257ef9b8d09c,2023-04-13_15h16.06.813,PRaM,2021.2.3,Win32,59.91611744,61b8f3437b89212fae0dfadf
4,1.4736,space,0.7178,0,360,360,143,1,,,6087b352bc927336035cb9e0,6437730e73c9257ef9b8d09c,2023-04-13_15h16.06.813,PRaM,2021.2.3,Win32,59.91611744,61b8f3437b89212fae0dfadf
7,2.9416,space,1.4027,0,361,361,12,1,,,6087b352bc927336035cb9e0,6437730e73c9257ef9b8d09c,2023-04-13_15h16.06.813,PRaM,2021.2.3,Win32,59.91611744,61b8f3437b89212fae0dfadf
7,1.3472,space,0.1181,0,362,362,228,1,,,6087b352bc927336035cb9e0,6437730e73c9257ef9b8d09c,2023-04-13_15h16.06.813,PRaM,2021.2.3,Win32,59.91611744,61b8f3437b89212fae0dfadf
3,2.9325,space,1.4267,0,363,363,15,1,,,6087b352bc927336035cb9e0,6437730e73c9257ef9b8d09c,2023-04-13_15h16.06.813,PRaM,2021.2.3,Win32,59.91611744,61b8f3437b89212fae0dfadf
7,5.9051,space,4.4381,0,364,364,64,1,,,6087b352bc927336035cb9e0,6437730e73c9257ef9b8d09c,2023-04-13_15h16.06.813,PRaM,2021.2.3,Win32,59.91611744,61b8f3437b89212fae0dfadf
7,1.5805,space,0.3895,0,365,365,112,1,,,6087b352bc927336035cb9e0,6437730e73c9257ef9b8d09c,2023-04-13_15h16.06.813,PRaM,2021.2.3,Win32,59.91611744,61b8f3437b89212fae0dfadf
7,1.0061,space,0.3506,0,366,366,323,1,,,6087b352bc927336035cb9e0,6437730e73c9257ef9b8d09c,2023-04-13_15h16.06.813,PRaM,2021.2.3,Win32,59.91611744,61b8f3437b89212fae0dfadf
5,2.1571,space,0.6417,0,367,367,98,1,,,6087b352bc927336035cb9e0,6437730e73c9257ef9b8d09c,2023-04-13_15h16.06.813,PRaM,2021.2.3,Win32,59.91611744,61b8f3437b89212fae0dfadf
2,3.7247,space,2.2143,0,368,368,78,1,,,6087b352bc927336035cb9e0,6437730e73c9257ef9b8d09c,2023-04-13_15h16.06.813,PRaM,2021.2.3,Win32,59.91611744,61b8f3437b89212fae0dfadf
2,1.9458,space,0.329,0,369,369,195,1,,,6087b352bc927336035cb9e0,6437730e73c9257ef9b8d09c,2023-04-13_15h16.06.813,PRaM,2021.2.3,Win32,59.91611744,61b8f3437b89212fae0dfadf
6,1.5819,space,0.3203,0,370,370,358,1,,,6087b352bc927336035cb9e0,6437730e73c9257ef9b8d09c,2023-04-13_15h16.06.813,PRaM,2021.2.3,Win32,59.91611744,61b8f3437b89212fae0dfadf
3,2.5909,space,0.8891,0,371,371,300,1,,,6087b352bc927336035cb9e0,6437730e73c9257ef9b8d09c,2023-04-13_15h16.06.813,PRaM,2021.2.3,Win32,59.91611744,61b8f3437b89212fae0dfadf
3,2.6415,space,0.9935,0,372,372,82,1,,,6087b352bc927336035cb9e0,6437730e73c9257ef9b8d09c,2023-04-13_15h16.06.813,PRaM,2021.2.3,Win32,59.91611744,61b8f3437b89212fae0dfadf
4,3.4249,space,1.8545,0,373,373,369,1,,,6087b352bc927336035cb9e0,6437730e73c9257ef9b8d09c,2023-04-13_15h16.06.813,PRaM,2021.2.3,Win32,59.91611744,61b8f3437b89212fae0dfadf
5,1.7756,space,0.2011,0,374,374,101,1,,,6087b352bc927336035cb9e0,6437730e73c9257ef9b8d09c,2023-04-13_15h16.06.813,PRaM,2021.2.3,Win32,59.91611744,61b8f3437b89212fae0dfadf
3,2.3605,space,0.8004,0,375,375,189,1,,,6087b352bc927336035cb9e0,6437730e73c9257ef9b8d09c,2023-04-13_15h16.06.813,PRaM,2021.2.3,Win32,59.91611744,61b8f3437b89212fae0dfadf
6,1.7563,space,0.1697,0,376,376,99,1,,,6087b352bc927336035cb9e0,6437730e73c9257ef9b8d09c,2023-04-13_15h16.06.813,PRaM,2021.2.3,Win32,59.91611744,61b8f3437b89212fae0dfadf
3,2.2071,space,0.6883,0,377,377,251,1,,,6087b352bc927336035cb9e0,6437730e73c9257ef9b8d09c,2023-04-13_15h16.06.813,PRaM,2021.2.3,Win32,59.91611744,61b8f3437b89212fae0dfadf
