Rating.response,Rating.rt,EndTrial.keys,EndTrial.rt,trials.thisRepN,trials.thisTrialN,trials.thisN,trials.thisIndex,trials.ran,Pos1,Pos2,participant,session,date,expName,psychopyVersion,OS,frameRate,study_id
3,14.5976,space,13.2292,0,0,0,8,1,,,60a142ecc64d11f4ed537cb5,643773139deb637e8358b232,2023-04-13_05h14.42.997,PRaM,2021.2.3,Win32,61.02770658,61b8f3437b89212fae0dfadf
7,3.3814,space,2.9311,0,1,1,326,1,,,60a142ecc64d11f4ed537cb5,643773139deb637e8358b232,2023-04-13_05h14.42.997,PRaM,2021.2.3,Win32,61.02770658,61b8f3437b89212fae0dfadf
5,5.717,space,5.1995,0,2,2,155,1,,,60a142ecc64d11f4ed537cb5,643773139deb637e8358b232,2023-04-13_05h14.42.997,PRaM,2021.2.3,Win32,61.02770658,61b8f3437b89212fae0dfadf
6,3.2297,space,1.7357,0,3,3,132,1,,,60a142ecc64d11f4ed537cb5,643773139deb637e8358b232,2023-04-13_05h14.42.997,PRaM,2021.2.3,Win32,61.02770658,61b8f3437b89212fae0dfadf
2,2.7539,space,1.4689,0,4,4,243,1,,,60a142ecc64d11f4ed537cb5,643773139deb637e8358b232,2023-04-13_05h14.42.997,PRaM,2021.2.3,Win32,61.02770658,61b8f3437b89212fae0dfadf
6,4.3627,space,4.1473,0,5,5,164,1,,,60a142ecc64d11f4ed537cb5,643773139deb637e8358b232,2023-04-13_05h14.42.997,PRaM,2021.2.3,Win32,61.02770658,61b8f3437b89212fae0dfadf
8,2.8334,space,2.014,0,6,6,331,1,,,60a142ecc64d11f4ed537cb5,643773139deb637e8358b232,2023-04-13_05h14.42.997,PRaM,2021.2.3,Win32,61.02770658,61b8f3437b89212fae0dfadf
2,3.1608,space,1.8829,0,7,7,283,1,,,60a142ecc64d11f4ed537cb5,643773139deb637e8358b232,2023-04-13_05h14.42.997,PRaM,2021.2.3,Win32,61.02770658,61b8f3437b89212fae0dfadf
6,5.1769,space,4.1177,0,8,8,221,1,,,60a142ecc64d11f4ed537cb5,643773139deb637e8358b232,2023-04-13_05h14.42.997,PRaM,2021.2.3,Win32,61.02770658,61b8f3437b89212fae0dfadf
5,2.7435,space,1.466,0,9,9,224,1,,,60a142ecc64d11f4ed537cb5,643773139deb637e8358b232,2023-04-13_05h14.42.997,PRaM,2021.2.3,Win32,61.02770658,61b8f3437b89212fae0dfadf
7,4.0304,space,3.7208,0,10,10,17,1,,,60a142ecc64d11f4ed537cb5,643773139deb637e8358b232,2023-04-13_05h14.42.997,PRaM,2021.2.3,Win32,61.02770658,61b8f3437b89212fae0dfadf
3,4.2513,space,2.8507,0,11,11,294,1,,,60a142ecc64d11f4ed537cb5,643773139deb637e8358b232,2023-04-13_05h14.42.997,PRaM,2021.2.3,Win32,61.02770658,61b8f3437b89212fae0dfadf
3,2.4171,space,0.899,0,12,12,329,1,,,60a142ecc64d11f4ed537cb5,643773139deb637e8358b232,2023-04-13_05h14.42.997,PRaM,2021.2.3,Win32,61.02770658,61b8f3437b89212fae0dfadf
6,2.5623,space,1.1119,0,13,13,259,1,,,60a142ecc64d11f4ed537cb5,643773139deb637e8358b232,2023-04-13_05h14.42.997,PRaM,2021.2.3,Win32,61.02770658,61b8f3437b89212fae0dfadf
8,4.9179,space,3.6637,0,14,14,207,1,,,60a142ecc64d11f4ed537cb5,643773139deb637e8358b232,2023-04-13_05h14.42.997,PRaM,2021.2.3,Win32,61.02770658,61b8f3437b89212fae0dfadf
2,2.6393,space,2.2164,0,15,15,210,1,,,60a142ecc64d11f4ed537cb5,643773139deb637e8358b232,2023-04-13_05h14.42.997,PRaM,2021.2.3,Win32,61.02770658,61b8f3437b89212fae0dfadf
7,5.7223,space,7.5939,0,16,16,114,1,,,60a142ecc64d11f4ed537cb5,643773139deb637e8358b232,2023-04-13_05h14.42.997,PRaM,2021.2.3,Win32,61.02770658,61b8f3437b89212fae0dfadf
2,2.3185,space,0.9314,0,17,17,91,1,,,60a142ecc64d11f4ed537cb5,643773139deb637e8358b232,2023-04-13_05h14.42.997,PRaM,2021.2.3,Win32,61.02770658,61b8f3437b89212fae0dfadf
1,6.3794,space,5.1574,0,18,18,218,1,,,60a142ecc64d11f4ed537cb5,643773139deb637e8358b232,2023-04-13_05h14.42.997,PRaM,2021.2.3,Win32,61.02770658,61b8f3437b89212fae0dfadf
5,2.4069,space,1.318,0,19,19,261,1,,,60a142ecc64d11f4ed537cb5,643773139deb637e8358b232,2023-04-13_05h14.42.997,PRaM,2021.2.3,Win32,61.02770658,61b8f3437b89212fae0dfadf
7,2.8193,space,2.5007,0,20,20,51,1,,,60a142ecc64d11f4ed537cb5,643773139deb637e8358b232,2023-04-13_05h14.42.997,PRaM,2021.2.3,Win32,61.02770658,61b8f3437b89212fae0dfadf
4,2.4044,space,1.1517,0,21,21,286,1,,,60a142ecc64d11f4ed537cb5,643773139deb637e8358b232,2023-04-13_05h14.42.997,PRaM,2021.2.3,Win32,61.02770658,61b8f3437b89212fae0dfadf
1,2.8409,space,1.5996,0,22,22,130,1,,,60a142ecc64d11f4ed537cb5,643773139deb637e8358b232,2023-04-13_05h14.42.997,PRaM,2021.2.3,Win32,61.02770658,61b8f3437b89212fae0dfadf
3,4.8353,space,5.1464,0,23,23,92,1,,,60a142ecc64d11f4ed537cb5,643773139deb637e8358b232,2023-04-13_05h14.42.997,PRaM,2021.2.3,Win32,61.02770658,61b8f3437b89212fae0dfadf
5,4.3509,space,2.7688,0,24,24,160,1,,,60a142ecc64d11f4ed537cb5,643773139deb637e8358b232,2023-04-13_05h14.42.997,PRaM,2021.2.3,Win32,61.02770658,61b8f3437b89212fae0dfadf
6,2.2376,space,0.9821,0,25,25,196,1,,,60a142ecc64d11f4ed537cb5,643773139deb637e8358b232,2023-04-13_05h14.42.997,PRaM,2021.2.3,Win32,61.02770658,61b8f3437b89212fae0dfadf
3,3.1038,space,1.5965,0,26,26,15,1,,,60a142ecc64d11f4ed537cb5,643773139deb637e8358b232,2023-04-13_05h14.42.997,PRaM,2021.2.3,Win32,61.02770658,61b8f3437b89212fae0dfadf
5,4.1017,space,3.0589,0,27,27,139,1,,,60a142ecc64d11f4ed537cb5,643773139deb637e8358b232,2023-04-13_05h14.42.997,PRaM,2021.2.3,Win32,61.02770658,61b8f3437b89212fae0dfadf
3,12.3243,space,10.8601,0,28,28,146,1,,,60a142ecc64d11f4ed537cb5,643773139deb637e8358b232,2023-04-13_05h14.42.997,PRaM,2021.2.3,Win32,61.02770658,61b8f3437b89212fae0dfadf
5,2.3872,space,1.0871,0,29,29,230,1,,,60a142ecc64d11f4ed537cb5,643773139deb637e8358b232,2023-04-13_05h14.42.997,PRaM,2021.2.3,Win32,61.02770658,61b8f3437b89212fae0dfadf
6,2.4053,space,0.8533,0,30,30,105,1,,,60a142ecc64d11f4ed537cb5,643773139deb637e8358b232,2023-04-13_05h14.42.997,PRaM,2021.2.3,Win32,61.02770658,61b8f3437b89212fae0dfadf
3,4.0754,space,2.5009,0,31,31,23,1,,,60a142ecc64d11f4ed537cb5,643773139deb637e8358b232,2023-04-13_05h14.42.997,PRaM,2021.2.3,Win32,61.02770658,61b8f3437b89212fae0dfadf
7,3.0885,space,2.5532,0,32,32,357,1,,,60a142ecc64d11f4ed537cb5,643773139deb637e8358b232,2023-04-13_05h14.42.997,PRaM,2021.2.3,Win32,61.02770658,61b8f3437b89212fae0dfadf
7,2.206,space,0.6858,0,33,33,104,1,,,60a142ecc64d11f4ed537cb5,643773139deb637e8358b232,2023-04-13_05h14.42.997,PRaM,2021.2.3,Win32,61.02770658,61b8f3437b89212fae0dfadf
9,3.3326,space,2.4392,0,34,34,320,1,,,60a142ecc64d11f4ed537cb5,643773139deb637e8358b232,2023-04-13_05h14.42.997,PRaM,2021.2.3,Win32,61.02770658,61b8f3437b89212fae0dfadf
4,8.3462,space,6.9125,0,35,35,76,1,,,60a142ecc64d11f4ed537cb5,643773139deb637e8358b232,2023-04-13_05h14.42.997,PRaM,2021.2.3,Win32,61.02770658,61b8f3437b89212fae0dfadf
5,3.4879,space,1.9854,0,36,36,33,1,,,60a142ecc64d11f4ed537cb5,643773139deb637e8358b232,2023-04-13_05h14.42.997,PRaM,2021.2.3,Win32,61.02770658,61b8f3437b89212fae0dfadf
5,4.2384,space,2.7145,0,37,37,367,1,,,60a142ecc64d11f4ed537cb5,643773139deb637e8358b232,2023-04-13_05h14.42.997,PRaM,2021.2.3,Win32,61.02770658,61b8f3437b89212fae0dfadf
6,3.3106,space,1.7563,0,38,38,187,1,,,60a142ecc64d11f4ed537cb5,643773139deb637e8358b232,2023-04-13_05h14.42.997,PRaM,2021.2.3,Win32,61.02770658,61b8f3437b89212fae0dfadf
1,4.3584,space,3.5141,0,39,39,312,1,,,60a142ecc64d11f4ed537cb5,643773139deb637e8358b232,2023-04-13_05h14.42.997,PRaM,2021.2.3,Win32,61.02770658,61b8f3437b89212fae0dfadf
7,15.054,space,13.6605,0,40,40,285,1,,,60a142ecc64d11f4ed537cb5,643773139deb637e8358b232,2023-04-13_05h14.42.997,PRaM,2021.2.3,Win32,61.02770658,61b8f3437b89212fae0dfadf
3,2.8532,space,1.1897,0,41,41,321,1,,,60a142ecc64d11f4ed537cb5,643773139deb637e8358b232,2023-04-13_05h14.42.997,PRaM,2021.2.3,Win32,61.02770658,61b8f3437b89212fae0dfadf
3,3.4228,space,1.8416,0,42,42,95,1,,,60a142ecc64d11f4ed537cb5,643773139deb637e8358b232,2023-04-13_05h14.42.997,PRaM,2021.2.3,Win32,61.02770658,61b8f3437b89212fae0dfadf
4,2.7544,space,1.2794,0,43,43,161,1,,,60a142ecc64d11f4ed537cb5,643773139deb637e8358b232,2023-04-13_05h14.42.997,PRaM,2021.2.3,Win32,61.02770658,61b8f3437b89212fae0dfadf
7,3.1127,space,1.617,0,44,44,270,1,,,60a142ecc64d11f4ed537cb5,643773139deb637e8358b232,2023-04-13_05h14.42.997,PRaM,2021.2.3,Win32,61.02770658,61b8f3437b89212fae0dfadf
5,4.6725,space,4.1792,0,45,45,303,1,,,60a142ecc64d11f4ed537cb5,643773139deb637e8358b232,2023-04-13_05h14.42.997,PRaM,2021.2.3,Win32,61.02770658,61b8f3437b89212fae0dfadf
3,2.6092,space,1.1717,0,46,46,121,1,,,60a142ecc64d11f4ed537cb5,643773139deb637e8358b232,2023-04-13_05h14.42.997,PRaM,2021.2.3,Win32,61.02770658,61b8f3437b89212fae0dfadf
7,3.5538,space,1.9308,0,47,47,304,1,,,60a142ecc64d11f4ed537cb5,643773139deb637e8358b232,2023-04-13_05h14.42.997,PRaM,2021.2.3,Win32,61.02770658,61b8f3437b89212fae0dfadf
7,2.7107,space,2.3345,0,48,48,110,1,,,60a142ecc64d11f4ed537cb5,643773139deb637e8358b232,2023-04-13_05h14.42.997,PRaM,2021.2.3,Win32,61.02770658,61b8f3437b89212fae0dfadf
4,3.5171,space,1.9076,0,49,49,322,1,,,60a142ecc64d11f4ed537cb5,643773139deb637e8358b232,2023-04-13_05h14.42.997,PRaM,2021.2.3,Win32,61.02770658,61b8f3437b89212fae0dfadf
6,2.3543,space,1.0192,0,50,50,45,1,,,60a142ecc64d11f4ed537cb5,643773139deb637e8358b232,2023-04-13_05h14.42.997,PRaM,2021.2.3,Win32,61.02770658,61b8f3437b89212fae0dfadf
3,2.77,space,1.1942,0,51,51,373,1,,,60a142ecc64d11f4ed537cb5,643773139deb637e8358b232,2023-04-13_05h14.42.997,PRaM,2021.2.3,Win32,61.02770658,61b8f3437b89212fae0dfadf
4,4.9447,space,3.3928,0,52,52,174,1,,,60a142ecc64d11f4ed537cb5,643773139deb637e8358b232,2023-04-13_05h14.42.997,PRaM,2021.2.3,Win32,61.02770658,61b8f3437b89212fae0dfadf
2,2.9897,space,1.5653,0,53,53,260,1,,,60a142ecc64d11f4ed537cb5,643773139deb637e8358b232,2023-04-13_05h14.42.997,PRaM,2021.2.3,Win32,61.02770658,61b8f3437b89212fae0dfadf
6,4.2955,space,2.8362,0,54,54,288,1,,,60a142ecc64d11f4ed537cb5,643773139deb637e8358b232,2023-04-13_05h14.42.997,PRaM,2021.2.3,Win32,61.02770658,61b8f3437b89212fae0dfadf
6,3.3008,space,1.6694,0,55,55,271,1,,,60a142ecc64d11f4ed537cb5,643773139deb637e8358b232,2023-04-13_05h14.42.997,PRaM,2021.2.3,Win32,61.02770658,61b8f3437b89212fae0dfadf
2,3.5064,space,1.8831,0,56,56,55,1,,,60a142ecc64d11f4ed537cb5,643773139deb637e8358b232,2023-04-13_05h14.42.997,PRaM,2021.2.3,Win32,61.02770658,61b8f3437b89212fae0dfadf
2,2.6787,space,1.0419,0,57,57,71,1,,,60a142ecc64d11f4ed537cb5,643773139deb637e8358b232,2023-04-13_05h14.42.997,PRaM,2021.2.3,Win32,61.02770658,61b8f3437b89212fae0dfadf
4,7.7439,space,6.2643,0,58,58,101,1,,,60a142ecc64d11f4ed537cb5,643773139deb637e8358b232,2023-04-13_05h14.42.997,PRaM,2021.2.3,Win32,61.02770658,61b8f3437b89212fae0dfadf
1,5.3085,space,4.0259,0,59,59,10,1,,,60a142ecc64d11f4ed537cb5,643773139deb637e8358b232,2023-04-13_05h14.42.997,PRaM,2021.2.3,Win32,61.02770658,61b8f3437b89212fae0dfadf
1,4.4271,space,3.6277,0,60,60,107,1,,,60a142ecc64d11f4ed537cb5,643773139deb637e8358b232,2023-04-13_05h14.42.997,PRaM,2021.2.3,Win32,61.02770658,61b8f3437b89212fae0dfadf
7,3.7029,space,2.3952,0,61,61,297,1,,,60a142ecc64d11f4ed537cb5,643773139deb637e8358b232,2023-04-13_05h14.42.997,PRaM,2021.2.3,Win32,61.02770658,61b8f3437b89212fae0dfadf
4,2.0724,space,0.5389,0,62,62,376,1,,,60a142ecc64d11f4ed537cb5,643773139deb637e8358b232,2023-04-13_05h14.42.997,PRaM,2021.2.3,Win32,61.02770658,61b8f3437b89212fae0dfadf
7,3.1386,space,1.6011,0,63,63,85,1,,,60a142ecc64d11f4ed537cb5,643773139deb637e8358b232,2023-04-13_05h14.42.997,PRaM,2021.2.3,Win32,61.02770658,61b8f3437b89212fae0dfadf
1,2.6256,space,1.2004,0,64,64,235,1,,,60a142ecc64d11f4ed537cb5,643773139deb637e8358b232,2023-04-13_05h14.42.997,PRaM,2021.2.3,Win32,61.02770658,61b8f3437b89212fae0dfadf
5,2.3394,space,0.7688,0,65,65,353,1,,,60a142ecc64d11f4ed537cb5,643773139deb637e8358b232,2023-04-13_05h14.42.997,PRaM,2021.2.3,Win32,61.02770658,61b8f3437b89212fae0dfadf
6,2.4727,space,0.856,0,66,66,165,1,,,60a142ecc64d11f4ed537cb5,643773139deb637e8358b232,2023-04-13_05h14.42.997,PRaM,2021.2.3,Win32,61.02770658,61b8f3437b89212fae0dfadf
2,2.8962,space,1.5173,0,67,67,245,1,,,60a142ecc64d11f4ed537cb5,643773139deb637e8358b232,2023-04-13_05h14.42.997,PRaM,2021.2.3,Win32,61.02770658,61b8f3437b89212fae0dfadf
5,3.687,space,2.1837,0,68,68,370,1,,,60a142ecc64d11f4ed537cb5,643773139deb637e8358b232,2023-04-13_05h14.42.997,PRaM,2021.2.3,Win32,61.02770658,61b8f3437b89212fae0dfadf
7,2.2092,space,0.5029,0,69,69,102,1,,,60a142ecc64d11f4ed537cb5,643773139deb637e8358b232,2023-04-13_05h14.42.997,PRaM,2021.2.3,Win32,61.02770658,61b8f3437b89212fae0dfadf
5,2.6023,space,0.9671,0,70,70,198,1,,,60a142ecc64d11f4ed537cb5,643773139deb637e8358b232,2023-04-13_05h14.42.997,PRaM,2021.2.3,Win32,61.02770658,61b8f3437b89212fae0dfadf
2,2.4736,space,1.0471,0,71,71,65,1,,,60a142ecc64d11f4ed537cb5,643773139deb637e8358b232,2023-04-13_05h14.42.997,PRaM,2021.2.3,Win32,61.02770658,61b8f3437b89212fae0dfadf
2,2.5456,space,0.9903,0,72,72,63,1,,,60a142ecc64d11f4ed537cb5,643773139deb637e8358b232,2023-04-13_05h14.42.997,PRaM,2021.2.3,Win32,61.02770658,61b8f3437b89212fae0dfadf
5,3.4903,space,1.901,0,73,73,200,1,,,60a142ecc64d11f4ed537cb5,643773139deb637e8358b232,2023-04-13_05h14.42.997,PRaM,2021.2.3,Win32,61.02770658,61b8f3437b89212fae0dfadf
7,3.0327,space,1.7311,0,74,74,348,1,,,60a142ecc64d11f4ed537cb5,643773139deb637e8358b232,2023-04-13_05h14.42.997,PRaM,2021.2.3,Win32,61.02770658,61b8f3437b89212fae0dfadf
4,2.2311,space,0.7045,0,75,75,26,1,,,60a142ecc64d11f4ed537cb5,643773139deb637e8358b232,2023-04-13_05h14.42.997,PRaM,2021.2.3,Win32,61.02770658,61b8f3437b89212fae0dfadf
5,2.5217,space,0.8697,0,76,76,265,1,,,60a142ecc64d11f4ed537cb5,643773139deb637e8358b232,2023-04-13_05h14.42.997,PRaM,2021.2.3,Win32,61.02770658,61b8f3437b89212fae0dfadf
8,5.0081,space,3.8867,0,77,77,62,1,,,60a142ecc64d11f4ed537cb5,643773139deb637e8358b232,2023-04-13_05h14.42.997,PRaM,2021.2.3,Win32,61.02770658,61b8f3437b89212fae0dfadf
1,9.0675,space,7.8947,0,78,78,162,1,,,60a142ecc64d11f4ed537cb5,643773139deb637e8358b232,2023-04-13_05h14.42.997,PRaM,2021.2.3,Win32,61.02770658,61b8f3437b89212fae0dfadf
7,2.7727,space,1.4521,0,79,79,115,1,,,60a142ecc64d11f4ed537cb5,643773139deb637e8358b232,2023-04-13_05h14.42.997,PRaM,2021.2.3,Win32,61.02770658,61b8f3437b89212fae0dfadf
5,4.618,space,3.1351,0,80,80,167,1,,,60a142ecc64d11f4ed537cb5,643773139deb637e8358b232,2023-04-13_05h14.42.997,PRaM,2021.2.3,Win32,61.02770658,61b8f3437b89212fae0dfadf
6,3.8353,space,2.6307,0,81,81,313,1,,,60a142ecc64d11f4ed537cb5,643773139deb637e8358b232,2023-04-13_05h14.42.997,PRaM,2021.2.3,Win32,61.02770658,61b8f3437b89212fae0dfadf
2,5.985,space,4.3516,0,82,82,212,1,,,60a142ecc64d11f4ed537cb5,643773139deb637e8358b232,2023-04-13_05h14.42.997,PRaM,2021.2.3,Win32,61.02770658,61b8f3437b89212fae0dfadf
3,3.7923,space,2.2145,0,83,83,257,1,,,60a142ecc64d11f4ed537cb5,643773139deb637e8358b232,2023-04-13_05h14.42.997,PRaM,2021.2.3,Win32,61.02770658,61b8f3437b89212fae0dfadf
5,2.4228,space,0.8169,0,84,84,351,1,,,60a142ecc64d11f4ed537cb5,643773139deb637e8358b232,2023-04-13_05h14.42.997,PRaM,2021.2.3,Win32,61.02770658,61b8f3437b89212fae0dfadf
2,3.3973,space,1.75,0,85,85,122,1,,,60a142ecc64d11f4ed537cb5,643773139deb637e8358b232,2023-04-13_05h14.42.997,PRaM,2021.2.3,Win32,61.02770658,61b8f3437b89212fae0dfadf
4,6.0905,space,4.6804,0,86,86,263,1,,,60a142ecc64d11f4ed537cb5,643773139deb637e8358b232,2023-04-13_05h14.42.997,PRaM,2021.2.3,Win32,61.02770658,61b8f3437b89212fae0dfadf
3,4.8214,space,4.1974,0,87,87,153,1,,,60a142ecc64d11f4ed537cb5,643773139deb637e8358b232,2023-04-13_05h14.42.997,PRaM,2021.2.3,Win32,61.02770658,61b8f3437b89212fae0dfadf
3,2.8788,space,1.3504,0,88,88,131,1,,,60a142ecc64d11f4ed537cb5,643773139deb637e8358b232,2023-04-13_05h14.42.997,PRaM,2021.2.3,Win32,61.02770658,61b8f3437b89212fae0dfadf
1,2.8154,space,1.4507,0,89,89,41,1,,,60a142ecc64d11f4ed537cb5,643773139deb637e8358b232,2023-04-13_05h14.42.997,PRaM,2021.2.3,Win32,61.02770658,61b8f3437b89212fae0dfadf
5,3.2784,space,1.6326,0,90,90,99,1,,,60a142ecc64d11f4ed537cb5,643773139deb637e8358b232,2023-04-13_05h14.42.997,PRaM,2021.2.3,Win32,61.02770658,61b8f3437b89212fae0dfadf
4,4.4341,space,2.9197,0,91,91,163,1,,,60a142ecc64d11f4ed537cb5,643773139deb637e8358b232,2023-04-13_05h14.42.997,PRaM,2021.2.3,Win32,61.02770658,61b8f3437b89212fae0dfadf
1,5.0963,space,3.8639,0,92,92,275,1,,,60a142ecc64d11f4ed537cb5,643773139deb637e8358b232,2023-04-13_05h14.42.997,PRaM,2021.2.3,Win32,61.02770658,61b8f3437b89212fae0dfadf
4,3.1347,space,1.5512,0,93,93,299,1,,,60a142ecc64d11f4ed537cb5,643773139deb637e8358b232,2023-04-13_05h14.42.997,PRaM,2021.2.3,Win32,61.02770658,61b8f3437b89212fae0dfadf
2,3.7844,space,2.1957,0,94,94,360,1,,,60a142ecc64d11f4ed537cb5,643773139deb637e8358b232,2023-04-13_05h14.42.997,PRaM,2021.2.3,Win32,61.02770658,61b8f3437b89212fae0dfadf
5,4.337,space,2.9301,0,95,95,350,1,,,60a142ecc64d11f4ed537cb5,643773139deb637e8358b232,2023-04-13_05h14.42.997,PRaM,2021.2.3,Win32,61.02770658,61b8f3437b89212fae0dfadf
5,5.9434,space,5.1425,0,96,96,237,1,,,60a142ecc64d11f4ed537cb5,643773139deb637e8358b232,2023-04-13_05h14.42.997,PRaM,2021.2.3,Win32,61.02770658,61b8f3437b89212fae0dfadf
6,2.8481,space,1.3773,0,97,97,149,1,,,60a142ecc64d11f4ed537cb5,643773139deb637e8358b232,2023-04-13_05h14.42.997,PRaM,2021.2.3,Win32,61.02770658,61b8f3437b89212fae0dfadf
4,5.2928,space,5.321,0,98,98,151,1,,,60a142ecc64d11f4ed537cb5,643773139deb637e8358b232,2023-04-13_05h14.42.997,PRaM,2021.2.3,Win32,61.02770658,61b8f3437b89212fae0dfadf
2,2.9208,space,1.4366,0,99,99,49,1,,,60a142ecc64d11f4ed537cb5,643773139deb637e8358b232,2023-04-13_05h14.42.997,PRaM,2021.2.3,Win32,61.02770658,61b8f3437b89212fae0dfadf
5,4.9516,space,3.3551,0,100,100,172,1,,,60a142ecc64d11f4ed537cb5,643773139deb637e8358b232,2023-04-13_05h14.42.997,PRaM,2021.2.3,Win32,61.02770658,61b8f3437b89212fae0dfadf
7,2.8089,space,1.0848,0,101,101,134,1,,,60a142ecc64d11f4ed537cb5,643773139deb637e8358b232,2023-04-13_05h14.42.997,PRaM,2021.2.3,Win32,61.02770658,61b8f3437b89212fae0dfadf
2,4.2075,space,2.7011,0,102,102,37,1,,,60a142ecc64d11f4ed537cb5,643773139deb637e8358b232,2023-04-13_05h14.42.997,PRaM,2021.2.3,Win32,61.02770658,61b8f3437b89212fae0dfadf
7,2.6298,space,0.9823,0,103,103,166,1,,,60a142ecc64d11f4ed537cb5,643773139deb637e8358b232,2023-04-13_05h14.42.997,PRaM,2021.2.3,Win32,61.02770658,61b8f3437b89212fae0dfadf
6,3.8273,space,2.1277,0,104,104,21,1,,,60a142ecc64d11f4ed537cb5,643773139deb637e8358b232,2023-04-13_05h14.42.997,PRaM,2021.2.3,Win32,61.02770658,61b8f3437b89212fae0dfadf
5,13.2075,space,11.6105,0,105,105,129,1,,,60a142ecc64d11f4ed537cb5,643773139deb637e8358b232,2023-04-13_05h14.42.997,PRaM,2021.2.3,Win32,61.02770658,61b8f3437b89212fae0dfadf
1,4.8982,space,3.8972,0,106,106,106,1,,,60a142ecc64d11f4ed537cb5,643773139deb637e8358b232,2023-04-13_05h14.42.997,PRaM,2021.2.3,Win32,61.02770658,61b8f3437b89212fae0dfadf
6,2.5742,space,2.096,0,107,107,141,1,,,60a142ecc64d11f4ed537cb5,643773139deb637e8358b232,2023-04-13_05h14.42.997,PRaM,2021.2.3,Win32,61.02770658,61b8f3437b89212fae0dfadf
5,3.3619,space,1.7564,0,108,108,215,1,,,60a142ecc64d11f4ed537cb5,643773139deb637e8358b232,2023-04-13_05h14.42.997,PRaM,2021.2.3,Win32,61.02770658,61b8f3437b89212fae0dfadf
1,2.4987,space,1.1664,0,109,109,27,1,,,60a142ecc64d11f4ed537cb5,643773139deb637e8358b232,2023-04-13_05h14.42.997,PRaM,2021.2.3,Win32,61.02770658,61b8f3437b89212fae0dfadf
5,3.2993,space,1.6413,0,110,110,205,1,,,60a142ecc64d11f4ed537cb5,643773139deb637e8358b232,2023-04-13_05h14.42.997,PRaM,2021.2.3,Win32,61.02770658,61b8f3437b89212fae0dfadf
2,2.9631,space,2.9501,0,111,111,250,1,,,60a142ecc64d11f4ed537cb5,643773139deb637e8358b232,2023-04-13_05h14.42.997,PRaM,2021.2.3,Win32,61.02770658,61b8f3437b89212fae0dfadf
5,3.0783,space,2.6514,0,112,112,97,1,,,60a142ecc64d11f4ed537cb5,643773139deb637e8358b232,2023-04-13_05h14.42.997,PRaM,2021.2.3,Win32,61.02770658,61b8f3437b89212fae0dfadf
6,3.6059,space,2.2021,0,113,113,361,1,,,60a142ecc64d11f4ed537cb5,643773139deb637e8358b232,2023-04-13_05h14.42.997,PRaM,2021.2.3,Win32,61.02770658,61b8f3437b89212fae0dfadf
6,15.4929,space,13.8771,0,114,114,69,1,,,60a142ecc64d11f4ed537cb5,643773139deb637e8358b232,2023-04-13_05h14.42.997,PRaM,2021.2.3,Win32,61.02770658,61b8f3437b89212fae0dfadf
5,4.5796,space,2.9512,0,115,115,213,1,,,60a142ecc64d11f4ed537cb5,643773139deb637e8358b232,2023-04-13_05h14.42.997,PRaM,2021.2.3,Win32,61.02770658,61b8f3437b89212fae0dfadf
4,2.6008,space,0.963,0,116,116,272,1,,,60a142ecc64d11f4ed537cb5,643773139deb637e8358b232,2023-04-13_05h14.42.997,PRaM,2021.2.3,Win32,61.02770658,61b8f3437b89212fae0dfadf
4,3.6323,space,2.662,0,117,117,255,1,,,60a142ecc64d11f4ed537cb5,643773139deb637e8358b232,2023-04-13_05h14.42.997,PRaM,2021.2.3,Win32,61.02770658,61b8f3437b89212fae0dfadf
6,4.8715,space,3.3,0,118,118,343,1,,,60a142ecc64d11f4ed537cb5,643773139deb637e8358b232,2023-04-13_05h14.42.997,PRaM,2021.2.3,Win32,61.02770658,61b8f3437b89212fae0dfadf
7,8.1195,space,6.597,0,119,119,279,1,,,60a142ecc64d11f4ed537cb5,643773139deb637e8358b232,2023-04-13_05h14.42.997,PRaM,2021.2.3,Win32,61.02770658,61b8f3437b89212fae0dfadf
7,3.0262,space,1.6279,0,120,120,29,1,,,60a142ecc64d11f4ed537cb5,643773139deb637e8358b232,2023-04-13_05h14.42.997,PRaM,2021.2.3,Win32,61.02770658,61b8f3437b89212fae0dfadf
5,2.5518,space,1.0166,0,121,121,191,1,,,60a142ecc64d11f4ed537cb5,643773139deb637e8358b232,2023-04-13_05h14.42.997,PRaM,2021.2.3,Win32,61.02770658,61b8f3437b89212fae0dfadf
7,2.4423,space,0.8153,0,122,122,4,1,,,60a142ecc64d11f4ed537cb5,643773139deb637e8358b232,2023-04-13_05h14.42.997,PRaM,2021.2.3,Win32,61.02770658,61b8f3437b89212fae0dfadf
3,5.1256,space,3.5442,0,123,123,217,1,,,60a142ecc64d11f4ed537cb5,643773139deb637e8358b232,2023-04-13_05h14.42.997,PRaM,2021.2.3,Win32,61.02770658,61b8f3437b89212fae0dfadf
4,9.1642,space,7.4721,0,124,124,98,1,,,60a142ecc64d11f4ed537cb5,643773139deb637e8358b232,2023-04-13_05h14.42.997,PRaM,2021.2.3,Win32,61.02770658,61b8f3437b89212fae0dfadf
5,6.8953,space,5.4482,0,125,125,310,1,,,60a142ecc64d11f4ed537cb5,643773139deb637e8358b232,2023-04-13_05h14.42.997,PRaM,2021.2.3,Win32,61.02770658,61b8f3437b89212fae0dfadf
2,3.9866,space,2.2604,0,126,126,188,1,,,60a142ecc64d11f4ed537cb5,643773139deb637e8358b232,2023-04-13_05h14.42.997,PRaM,2021.2.3,Win32,61.02770658,61b8f3437b89212fae0dfadf
5,3.4846,space,1.9321,0,127,127,364,1,,,60a142ecc64d11f4ed537cb5,643773139deb637e8358b232,2023-04-13_05h14.42.997,PRaM,2021.2.3,Win32,61.02770658,61b8f3437b89212fae0dfadf
4,3.0048,space,1.331,0,128,128,57,1,,,60a142ecc64d11f4ed537cb5,643773139deb637e8358b232,2023-04-13_05h14.42.997,PRaM,2021.2.3,Win32,61.02770658,61b8f3437b89212fae0dfadf
2,3.873,space,2.4174,0,129,129,308,1,,,60a142ecc64d11f4ed537cb5,643773139deb637e8358b232,2023-04-13_05h14.42.997,PRaM,2021.2.3,Win32,61.02770658,61b8f3437b89212fae0dfadf
1,5.0287,space,3.5805,0,130,130,195,1,,,60a142ecc64d11f4ed537cb5,643773139deb637e8358b232,2023-04-13_05h14.42.997,PRaM,2021.2.3,Win32,61.02770658,61b8f3437b89212fae0dfadf
2,26.512,space,25.126,0,131,131,94,1,,,60a142ecc64d11f4ed537cb5,643773139deb637e8358b232,2023-04-13_05h14.42.997,PRaM,2021.2.3,Win32,61.02770658,61b8f3437b89212fae0dfadf
5,3.3021,space,1.8161,0,132,132,211,1,,,60a142ecc64d11f4ed537cb5,643773139deb637e8358b232,2023-04-13_05h14.42.997,PRaM,2021.2.3,Win32,61.02770658,61b8f3437b89212fae0dfadf
6,23.7988,space,22.5684,0,133,133,150,1,,,60a142ecc64d11f4ed537cb5,643773139deb637e8358b232,2023-04-13_05h14.42.997,PRaM,2021.2.3,Win32,61.02770658,61b8f3437b89212fae0dfadf
6,3.6899,space,2.4191,0,134,134,168,1,,,60a142ecc64d11f4ed537cb5,643773139deb637e8358b232,2023-04-13_05h14.42.997,PRaM,2021.2.3,Win32,61.02770658,61b8f3437b89212fae0dfadf
1,2.8883,space,1.5393,0,135,135,330,1,,,60a142ecc64d11f4ed537cb5,643773139deb637e8358b232,2023-04-13_05h14.42.997,PRaM,2021.2.3,Win32,61.02770658,61b8f3437b89212fae0dfadf
5,8.771,space,7.3566,0,136,136,226,1,,,60a142ecc64d11f4ed537cb5,643773139deb637e8358b232,2023-04-13_05h14.42.997,PRaM,2021.2.3,Win32,61.02770658,61b8f3437b89212fae0dfadf
3,10.7827,space,9.3992,0,137,137,369,1,,,60a142ecc64d11f4ed537cb5,643773139deb637e8358b232,2023-04-13_05h14.42.997,PRaM,2021.2.3,Win32,61.02770658,61b8f3437b89212fae0dfadf
4,6.0005,space,4.7018,0,138,138,282,1,,,60a142ecc64d11f4ed537cb5,643773139deb637e8358b232,2023-04-13_05h14.42.997,PRaM,2021.2.3,Win32,61.02770658,61b8f3437b89212fae0dfadf
2,2.9513,space,1.5821,0,139,139,113,1,,,60a142ecc64d11f4ed537cb5,643773139deb637e8358b232,2023-04-13_05h14.42.997,PRaM,2021.2.3,Win32,61.02770658,61b8f3437b89212fae0dfadf
2,2.5253,space,1.2692,0,140,140,169,1,,,60a142ecc64d11f4ed537cb5,643773139deb637e8358b232,2023-04-13_05h14.42.997,PRaM,2021.2.3,Win32,61.02770658,61b8f3437b89212fae0dfadf
5,2.9382,space,1.5163,0,141,141,157,1,,,60a142ecc64d11f4ed537cb5,643773139deb637e8358b232,2023-04-13_05h14.42.997,PRaM,2021.2.3,Win32,61.02770658,61b8f3437b89212fae0dfadf
5,25.6243,space,24.2534,0,142,142,345,1,,,60a142ecc64d11f4ed537cb5,643773139deb637e8358b232,2023-04-13_05h14.42.997,PRaM,2021.2.3,Win32,61.02770658,61b8f3437b89212fae0dfadf
3,7.5572,space,6.2478,0,143,143,229,1,,,60a142ecc64d11f4ed537cb5,643773139deb637e8358b232,2023-04-13_05h14.42.997,PRaM,2021.2.3,Win32,61.02770658,61b8f3437b89212fae0dfadf
1,3.7357,space,2.6477,0,144,144,39,1,,,60a142ecc64d11f4ed537cb5,643773139deb637e8358b232,2023-04-13_05h14.42.997,PRaM,2021.2.3,Win32,61.02770658,61b8f3437b89212fae0dfadf
7,2.9612,space,1.5493,0,145,145,38,1,,,60a142ecc64d11f4ed537cb5,643773139deb637e8358b232,2023-04-13_05h14.42.997,PRaM,2021.2.3,Win32,61.02770658,61b8f3437b89212fae0dfadf
1,5.7386,space,5.5921,0,146,146,67,1,,,60a142ecc64d11f4ed537cb5,643773139deb637e8358b232,2023-04-13_05h14.42.997,PRaM,2021.2.3,Win32,61.02770658,61b8f3437b89212fae0dfadf
6,2.9934,space,1.3331,0,147,147,340,1,,,60a142ecc64d11f4ed537cb5,643773139deb637e8358b232,2023-04-13_05h14.42.997,PRaM,2021.2.3,Win32,61.02770658,61b8f3437b89212fae0dfadf
3,2.9716,space,1.6357,0,148,148,203,1,,,60a142ecc64d11f4ed537cb5,643773139deb637e8358b232,2023-04-13_05h14.42.997,PRaM,2021.2.3,Win32,61.02770658,61b8f3437b89212fae0dfadf
6,3.5913,space,2.0325,0,149,149,327,1,,,60a142ecc64d11f4ed537cb5,643773139deb637e8358b232,2023-04-13_05h14.42.997,PRaM,2021.2.3,Win32,61.02770658,61b8f3437b89212fae0dfadf
5,4.1345,space,2.6009,0,150,150,128,1,,,60a142ecc64d11f4ed537cb5,643773139deb637e8358b232,2023-04-13_05h14.42.997,PRaM,2021.2.3,Win32,61.02770658,61b8f3437b89212fae0dfadf
7,3.192,space,1.6691,0,151,151,323,1,,,60a142ecc64d11f4ed537cb5,643773139deb637e8358b232,2023-04-13_05h14.42.997,PRaM,2021.2.3,Win32,61.02770658,61b8f3437b89212fae0dfadf
7,1.9099,space,0.2558,0,152,152,305,1,,,60a142ecc64d11f4ed537cb5,643773139deb637e8358b232,2023-04-13_05h14.42.997,PRaM,2021.2.3,Win32,61.02770658,61b8f3437b89212fae0dfadf
7,3.6892,space,2.3945,0,153,153,228,1,,,60a142ecc64d11f4ed537cb5,643773139deb637e8358b232,2023-04-13_05h14.42.997,PRaM,2021.2.3,Win32,61.02770658,61b8f3437b89212fae0dfadf
4,2.6896,space,1.7827,0,154,154,268,1,,,60a142ecc64d11f4ed537cb5,643773139deb637e8358b232,2023-04-13_05h14.42.997,PRaM,2021.2.3,Win32,61.02770658,61b8f3437b89212fae0dfadf
5,3.0224,space,1.5124,0,155,155,0,1,,,60a142ecc64d11f4ed537cb5,643773139deb637e8358b232,2023-04-13_05h14.42.997,PRaM,2021.2.3,Win32,61.02770658,61b8f3437b89212fae0dfadf
5,2.7362,space,1.1348,0,156,156,19,1,,,60a142ecc64d11f4ed537cb5,643773139deb637e8358b232,2023-04-13_05h14.42.997,PRaM,2021.2.3,Win32,61.02770658,61b8f3437b89212fae0dfadf
4,3.7149,space,2.3522,0,157,157,124,1,,,60a142ecc64d11f4ed537cb5,643773139deb637e8358b232,2023-04-13_05h14.42.997,PRaM,2021.2.3,Win32,61.02770658,61b8f3437b89212fae0dfadf
6,4.1356,space,3.3153,0,158,158,225,1,,,60a142ecc64d11f4ed537cb5,643773139deb637e8358b232,2023-04-13_05h14.42.997,PRaM,2021.2.3,Win32,61.02770658,61b8f3437b89212fae0dfadf
5,2.8532,space,1.2012,0,159,159,22,1,,,60a142ecc64d11f4ed537cb5,643773139deb637e8358b232,2023-04-13_05h14.42.997,PRaM,2021.2.3,Win32,61.02770658,61b8f3437b89212fae0dfadf
4,10.7421,space,9.1114,0,160,160,219,1,,,60a142ecc64d11f4ed537cb5,643773139deb637e8358b232,2023-04-13_05h14.42.997,PRaM,2021.2.3,Win32,61.02770658,61b8f3437b89212fae0dfadf
5,4.5003,space,3.163,0,161,161,337,1,,,60a142ecc64d11f4ed537cb5,643773139deb637e8358b232,2023-04-13_05h14.42.997,PRaM,2021.2.3,Win32,61.02770658,61b8f3437b89212fae0dfadf
4,13.5049,space,11.9594,0,162,162,96,1,,,60a142ecc64d11f4ed537cb5,643773139deb637e8358b232,2023-04-13_05h14.42.997,PRaM,2021.2.3,Win32,61.02770658,61b8f3437b89212fae0dfadf
8,3.6353,space,2.4513,0,163,163,276,1,,,60a142ecc64d11f4ed537cb5,643773139deb637e8358b232,2023-04-13_05h14.42.997,PRaM,2021.2.3,Win32,61.02770658,61b8f3437b89212fae0dfadf
4,4.3377,space,3.0119,0,164,164,377,1,,,60a142ecc64d11f4ed537cb5,643773139deb637e8358b232,2023-04-13_05h14.42.997,PRaM,2021.2.3,Win32,61.02770658,61b8f3437b89212fae0dfadf
5,5.6729,space,4.1661,0,165,165,6,1,,,60a142ecc64d11f4ed537cb5,643773139deb637e8358b232,2023-04-13_05h14.42.997,PRaM,2021.2.3,Win32,61.02770658,61b8f3437b89212fae0dfadf
2,6.417,space,4.9825,0,166,166,240,1,,,60a142ecc64d11f4ed537cb5,643773139deb637e8358b232,2023-04-13_05h14.42.997,PRaM,2021.2.3,Win32,61.02770658,61b8f3437b89212fae0dfadf
4,2.7285,space,1.5193,0,167,167,241,1,,,60a142ecc64d11f4ed537cb5,643773139deb637e8358b232,2023-04-13_05h14.42.997,PRaM,2021.2.3,Win32,61.02770658,61b8f3437b89212fae0dfadf
6,3.6152,space,2.0454,0,168,168,86,1,,,60a142ecc64d11f4ed537cb5,643773139deb637e8358b232,2023-04-13_05h14.42.997,PRaM,2021.2.3,Win32,61.02770658,61b8f3437b89212fae0dfadf
6,2.4765,space,1.7687,0,169,169,233,1,,,60a142ecc64d11f4ed537cb5,643773139deb637e8358b232,2023-04-13_05h14.42.997,PRaM,2021.2.3,Win32,61.02770658,61b8f3437b89212fae0dfadf
3,3.1576,space,1.5753,0,170,170,375,1,,,60a142ecc64d11f4ed537cb5,643773139deb637e8358b232,2023-04-13_05h14.42.997,PRaM,2021.2.3,Win32,61.02770658,61b8f3437b89212fae0dfadf
3,7.0984,space,5.4378,0,171,171,108,1,,,60a142ecc64d11f4ed537cb5,643773139deb637e8358b232,2023-04-13_05h14.42.997,PRaM,2021.2.3,Win32,61.02770658,61b8f3437b89212fae0dfadf
5,2.8846,space,1.9636,0,172,172,138,1,,,60a142ecc64d11f4ed537cb5,643773139deb637e8358b232,2023-04-13_05h14.42.997,PRaM,2021.2.3,Win32,61.02770658,61b8f3437b89212fae0dfadf
5,4.4055,space,2.8177,0,173,173,355,1,,,60a142ecc64d11f4ed537cb5,643773139deb637e8358b232,2023-04-13_05h14.42.997,PRaM,2021.2.3,Win32,61.02770658,61b8f3437b89212fae0dfadf
7,3.4185,space,1.7981,0,174,174,61,1,,,60a142ecc64d11f4ed537cb5,643773139deb637e8358b232,2023-04-13_05h14.42.997,PRaM,2021.2.3,Win32,61.02770658,61b8f3437b89212fae0dfadf
5,7.9362,space,6.381,0,175,175,267,1,,,60a142ecc64d11f4ed537cb5,643773139deb637e8358b232,2023-04-13_05h14.42.997,PRaM,2021.2.3,Win32,61.02770658,61b8f3437b89212fae0dfadf
4,3.9713,space,2.4642,0,176,176,206,1,,,60a142ecc64d11f4ed537cb5,643773139deb637e8358b232,2023-04-13_05h14.42.997,PRaM,2021.2.3,Win32,61.02770658,61b8f3437b89212fae0dfadf
1,2.8028,space,2.4905,0,177,177,247,1,,,60a142ecc64d11f4ed537cb5,643773139deb637e8358b232,2023-04-13_05h14.42.997,PRaM,2021.2.3,Win32,61.02770658,61b8f3437b89212fae0dfadf
6,3.9235,space,2.7006,0,178,178,156,1,,,60a142ecc64d11f4ed537cb5,643773139deb637e8358b232,2023-04-13_05h14.42.997,PRaM,2021.2.3,Win32,61.02770658,61b8f3437b89212fae0dfadf
6,6.7768,space,5.3419,0,179,179,46,1,,,60a142ecc64d11f4ed537cb5,643773139deb637e8358b232,2023-04-13_05h14.42.997,PRaM,2021.2.3,Win32,61.02770658,61b8f3437b89212fae0dfadf
4,11.6293,space,10.8891,0,180,180,77,1,,,60a142ecc64d11f4ed537cb5,643773139deb637e8358b232,2023-04-13_05h14.42.997,PRaM,2021.2.3,Win32,61.02770658,61b8f3437b89212fae0dfadf
4,1.7807,space,0.4682,0,181,181,311,1,,,60a142ecc64d11f4ed537cb5,643773139deb637e8358b232,2023-04-13_05h14.42.997,PRaM,2021.2.3,Win32,61.02770658,61b8f3437b89212fae0dfadf
4,4.842,space,3.4219,0,182,182,204,1,,,60a142ecc64d11f4ed537cb5,643773139deb637e8358b232,2023-04-13_05h14.42.997,PRaM,2021.2.3,Win32,61.02770658,61b8f3437b89212fae0dfadf
6,4.8094,space,3.9719,0,183,183,152,1,,,60a142ecc64d11f4ed537cb5,643773139deb637e8358b232,2023-04-13_05h14.42.997,PRaM,2021.2.3,Win32,61.02770658,61b8f3437b89212fae0dfadf
2,6.3156,space,4.7018,0,184,184,103,1,,,60a142ecc64d11f4ed537cb5,643773139deb637e8358b232,2023-04-13_05h14.42.997,PRaM,2021.2.3,Win32,61.02770658,61b8f3437b89212fae0dfadf
5,5.102,space,4.0976,0,185,185,194,1,,,60a142ecc64d11f4ed537cb5,643773139deb637e8358b232,2023-04-13_05h14.42.997,PRaM,2021.2.3,Win32,61.02770658,61b8f3437b89212fae0dfadf
6,3.1484,space,1.7776,0,186,186,306,1,,,60a142ecc64d11f4ed537cb5,643773139deb637e8358b232,2023-04-13_05h14.42.997,PRaM,2021.2.3,Win32,61.02770658,61b8f3437b89212fae0dfadf
6,2.5984,space,2.5936,0,187,187,112,1,,,60a142ecc64d11f4ed537cb5,643773139deb637e8358b232,2023-04-13_05h14.42.997,PRaM,2021.2.3,Win32,61.02770658,61b8f3437b89212fae0dfadf
6,2.7539,space,1.169,0,188,188,365,1,,,60a142ecc64d11f4ed537cb5,643773139deb637e8358b232,2023-04-13_05h14.42.997,PRaM,2021.2.3,Win32,61.02770658,61b8f3437b89212fae0dfadf
8,4.3566,space,3.0293,0,189,189,53,1,,,60a142ecc64d11f4ed537cb5,643773139deb637e8358b232,2023-04-13_05h14.42.997,PRaM,2021.2.3,Win32,61.02770658,61b8f3437b89212fae0dfadf
1,3.4511,space,1.91,0,190,190,290,1,,,60a142ecc64d11f4ed537cb5,643773139deb637e8358b232,2023-04-13_05h14.42.997,PRaM,2021.2.3,Win32,61.02770658,61b8f3437b89212fae0dfadf
6,6.1365,space,5.4728,0,191,191,249,1,,,60a142ecc64d11f4ed537cb5,643773139deb637e8358b232,2023-04-13_05h14.42.997,PRaM,2021.2.3,Win32,61.02770658,61b8f3437b89212fae0dfadf
6,3.5452,space,2.1709,0,192,192,328,1,,,60a142ecc64d11f4ed537cb5,643773139deb637e8358b232,2023-04-13_05h14.42.997,PRaM,2021.2.3,Win32,61.02770658,61b8f3437b89212fae0dfadf
7,2.5369,space,0.9778,0,193,193,88,1,,,60a142ecc64d11f4ed537cb5,643773139deb637e8358b232,2023-04-13_05h14.42.997,PRaM,2021.2.3,Win32,61.02770658,61b8f3437b89212fae0dfadf
6,2.9763,space,1.4799,0,194,194,116,1,,,60a142ecc64d11f4ed537cb5,643773139deb637e8358b232,2023-04-13_05h14.42.997,PRaM,2021.2.3,Win32,61.02770658,61b8f3437b89212fae0dfadf
1,2.9555,space,1.6538,0,195,195,292,1,,,60a142ecc64d11f4ed537cb5,643773139deb637e8358b232,2023-04-13_05h14.42.997,PRaM,2021.2.3,Win32,61.02770658,61b8f3437b89212fae0dfadf
5,7.434,space,6.1014,0,196,196,175,1,,,60a142ecc64d11f4ed537cb5,643773139deb637e8358b232,2023-04-13_05h14.42.997,PRaM,2021.2.3,Win32,61.02770658,61b8f3437b89212fae0dfadf
1,15.058,space,13.3927,0,197,197,182,1,,,60a142ecc64d11f4ed537cb5,643773139deb637e8358b232,2023-04-13_05h14.42.997,PRaM,2021.2.3,Win32,61.02770658,61b8f3437b89212fae0dfadf
5,3.3509,space,3.9467,0,198,198,336,1,,,60a142ecc64d11f4ed537cb5,643773139deb637e8358b232,2023-04-13_05h14.42.997,PRaM,2021.2.3,Win32,61.02770658,61b8f3437b89212fae0dfadf
3,4.8831,space,3.5635,0,199,199,44,1,,,60a142ecc64d11f4ed537cb5,643773139deb637e8358b232,2023-04-13_05h14.42.997,PRaM,2021.2.3,Win32,61.02770658,61b8f3437b89212fae0dfadf
5,3.3045,space,1.9684,0,200,200,171,1,,,60a142ecc64d11f4ed537cb5,643773139deb637e8358b232,2023-04-13_05h14.42.997,PRaM,2021.2.3,Win32,61.02770658,61b8f3437b89212fae0dfadf
3,3.3105,space,1.6915,0,201,201,82,1,,,60a142ecc64d11f4ed537cb5,643773139deb637e8358b232,2023-04-13_05h14.42.997,PRaM,2021.2.3,Win32,61.02770658,61b8f3437b89212fae0dfadf
5,6.8996,space,7.7922,0,202,202,352,1,,,60a142ecc64d11f4ed537cb5,643773139deb637e8358b232,2023-04-13_05h14.42.997,PRaM,2021.2.3,Win32,61.02770658,61b8f3437b89212fae0dfadf
5,3.1781,space,1.7226,0,203,203,25,1,,,60a142ecc64d11f4ed537cb5,643773139deb637e8358b232,2023-04-13_05h14.42.997,PRaM,2021.2.3,Win32,61.02770658,61b8f3437b89212fae0dfadf
4,9.602,space,10.4061,0,204,204,278,1,,,60a142ecc64d11f4ed537cb5,643773139deb637e8358b232,2023-04-13_05h14.42.997,PRaM,2021.2.3,Win32,61.02770658,61b8f3437b89212fae0dfadf
7,5.1544,space,6.1448,0,205,205,239,1,,,60a142ecc64d11f4ed537cb5,643773139deb637e8358b232,2023-04-13_05h14.42.997,PRaM,2021.2.3,Win32,61.02770658,61b8f3437b89212fae0dfadf
5,6.914,space,5.6441,0,206,206,333,1,,,60a142ecc64d11f4ed537cb5,643773139deb637e8358b232,2023-04-13_05h14.42.997,PRaM,2021.2.3,Win32,61.02770658,61b8f3437b89212fae0dfadf
3,2.521,space,1.3973,0,207,207,148,1,,,60a142ecc64d11f4ed537cb5,643773139deb637e8358b232,2023-04-13_05h14.42.997,PRaM,2021.2.3,Win32,61.02770658,61b8f3437b89212fae0dfadf
3,5.5636,space,4.8258,0,208,208,258,1,,,60a142ecc64d11f4ed537cb5,643773139deb637e8358b232,2023-04-13_05h14.42.997,PRaM,2021.2.3,Win32,61.02770658,61b8f3437b89212fae0dfadf
7,7.6427,space,10.7271,0,209,209,277,1,,,60a142ecc64d11f4ed537cb5,643773139deb637e8358b232,2023-04-13_05h14.42.997,PRaM,2021.2.3,Win32,61.02770658,61b8f3437b89212fae0dfadf
5,5.6309,space,4.0176,0,210,210,281,1,,,60a142ecc64d11f4ed537cb5,643773139deb637e8358b232,2023-04-13_05h14.42.997,PRaM,2021.2.3,Win32,61.02770658,61b8f3437b89212fae0dfadf
7,2.9749,space,2.3401,0,211,211,209,1,,,60a142ecc64d11f4ed537cb5,643773139deb637e8358b232,2023-04-13_05h14.42.997,PRaM,2021.2.3,Win32,61.02770658,61b8f3437b89212fae0dfadf
6,7.6233,space,6.9021,0,212,212,199,1,,,60a142ecc64d11f4ed537cb5,643773139deb637e8358b232,2023-04-13_05h14.42.997,PRaM,2021.2.3,Win32,61.02770658,61b8f3437b89212fae0dfadf
6,3.5239,space,1.8896,0,213,213,18,1,,,60a142ecc64d11f4ed537cb5,643773139deb637e8358b232,2023-04-13_05h14.42.997,PRaM,2021.2.3,Win32,61.02770658,61b8f3437b89212fae0dfadf
6,2.7279,space,1.1932,0,214,214,32,1,,,60a142ecc64d11f4ed537cb5,643773139deb637e8358b232,2023-04-13_05h14.42.997,PRaM,2021.2.3,Win32,61.02770658,61b8f3437b89212fae0dfadf
1,4.9084,space,4.0489,0,215,215,232,1,,,60a142ecc64d11f4ed537cb5,643773139deb637e8358b232,2023-04-13_05h14.42.997,PRaM,2021.2.3,Win32,61.02770658,61b8f3437b89212fae0dfadf
6,7.3319,space,6.0643,0,216,216,186,1,,,60a142ecc64d11f4ed537cb5,643773139deb637e8358b232,2023-04-13_05h14.42.997,PRaM,2021.2.3,Win32,61.02770658,61b8f3437b89212fae0dfadf
6,11.9907,space,10.543,0,217,217,280,1,,,60a142ecc64d11f4ed537cb5,643773139deb637e8358b232,2023-04-13_05h14.42.997,PRaM,2021.2.3,Win32,61.02770658,61b8f3437b89212fae0dfadf
1,2.2421,space,0.6876,0,218,218,273,1,,,60a142ecc64d11f4ed537cb5,643773139deb637e8358b232,2023-04-13_05h14.42.997,PRaM,2021.2.3,Win32,61.02770658,61b8f3437b89212fae0dfadf
7,4.4609,space,2.8128,0,219,219,222,1,,,60a142ecc64d11f4ed537cb5,643773139deb637e8358b232,2023-04-13_05h14.42.997,PRaM,2021.2.3,Win32,61.02770658,61b8f3437b89212fae0dfadf
7,5.9369,space,4.4632,0,220,220,159,1,,,60a142ecc64d11f4ed537cb5,643773139deb637e8358b232,2023-04-13_05h14.42.997,PRaM,2021.2.3,Win32,61.02770658,61b8f3437b89212fae0dfadf
5,3.8928,space,8.3597,0,221,221,158,1,,,60a142ecc64d11f4ed537cb5,643773139deb637e8358b232,2023-04-13_05h14.42.997,PRaM,2021.2.3,Win32,61.02770658,61b8f3437b89212fae0dfadf
6,5.1238,space,3.3144,0,222,222,14,1,,,60a142ecc64d11f4ed537cb5,643773139deb637e8358b232,2023-04-13_05h14.42.997,PRaM,2021.2.3,Win32,61.02770658,61b8f3437b89212fae0dfadf
3,4.2249,space,2.5513,0,223,223,68,1,,,60a142ecc64d11f4ed537cb5,643773139deb637e8358b232,2023-04-13_05h14.42.997,PRaM,2021.2.3,Win32,61.02770658,61b8f3437b89212fae0dfadf
7,4.7678,space,3.4318,0,224,224,208,1,,,60a142ecc64d11f4ed537cb5,643773139deb637e8358b232,2023-04-13_05h14.42.997,PRaM,2021.2.3,Win32,61.02770658,61b8f3437b89212fae0dfadf
1,5.2591,space,3.6159,0,225,225,190,1,,,60a142ecc64d11f4ed537cb5,643773139deb637e8358b232,2023-04-13_05h14.42.997,PRaM,2021.2.3,Win32,61.02770658,61b8f3437b89212fae0dfadf
5,5.6674,space,7.2129,0,226,226,246,1,,,60a142ecc64d11f4ed537cb5,643773139deb637e8358b232,2023-04-13_05h14.42.997,PRaM,2021.2.3,Win32,61.02770658,61b8f3437b89212fae0dfadf
7,5.1261,space,3.4043,0,227,227,43,1,,,60a142ecc64d11f4ed537cb5,643773139deb637e8358b232,2023-04-13_05h14.42.997,PRaM,2021.2.3,Win32,61.02770658,61b8f3437b89212fae0dfadf
7,3.4731,space,1.9158,0,228,228,59,1,,,60a142ecc64d11f4ed537cb5,643773139deb637e8358b232,2023-04-13_05h14.42.997,PRaM,2021.2.3,Win32,61.02770658,61b8f3437b89212fae0dfadf
4,3.7997,space,2.0825,0,229,229,371,1,,,60a142ecc64d11f4ed537cb5,643773139deb637e8358b232,2023-04-13_05h14.42.997,PRaM,2021.2.3,Win32,61.02770658,61b8f3437b89212fae0dfadf
5,5.6782,space,4.1846,0,230,230,183,1,,,60a142ecc64d11f4ed537cb5,643773139deb637e8358b232,2023-04-13_05h14.42.997,PRaM,2021.2.3,Win32,61.02770658,61b8f3437b89212fae0dfadf
5,3.235,space,1.5667,0,231,231,252,1,,,60a142ecc64d11f4ed537cb5,643773139deb637e8358b232,2023-04-13_05h14.42.997,PRaM,2021.2.3,Win32,61.02770658,61b8f3437b89212fae0dfadf
8,3.5673,space,1.9555,0,232,232,197,1,,,60a142ecc64d11f4ed537cb5,643773139deb637e8358b232,2023-04-13_05h14.42.997,PRaM,2021.2.3,Win32,61.02770658,61b8f3437b89212fae0dfadf
7,5.9548,space,4.284,0,233,233,60,1,,,60a142ecc64d11f4ed537cb5,643773139deb637e8358b232,2023-04-13_05h14.42.997,PRaM,2021.2.3,Win32,61.02770658,61b8f3437b89212fae0dfadf
7,2.9199,space,1.5327,0,234,234,117,1,,,60a142ecc64d11f4ed537cb5,643773139deb637e8358b232,2023-04-13_05h14.42.997,PRaM,2021.2.3,Win32,61.02770658,61b8f3437b89212fae0dfadf
5,3.569,space,2.1054,0,235,235,368,1,,,60a142ecc64d11f4ed537cb5,643773139deb637e8358b232,2023-04-13_05h14.42.997,PRaM,2021.2.3,Win32,61.02770658,61b8f3437b89212fae0dfadf
2,6.038,space,4.3499,0,236,236,248,1,,,60a142ecc64d11f4ed537cb5,643773139deb637e8358b232,2023-04-13_05h14.42.997,PRaM,2021.2.3,Win32,61.02770658,61b8f3437b89212fae0dfadf
2,3.6228,space,1.972,0,237,237,251,1,,,60a142ecc64d11f4ed537cb5,643773139deb637e8358b232,2023-04-13_05h14.42.997,PRaM,2021.2.3,Win32,61.02770658,61b8f3437b89212fae0dfadf
7,5.9295,space,4.4402,0,238,238,307,1,,,60a142ecc64d11f4ed537cb5,643773139deb637e8358b232,2023-04-13_05h14.42.997,PRaM,2021.2.3,Win32,61.02770658,61b8f3437b89212fae0dfadf
5,8.1471,space,6.4383,0,239,239,7,1,,,60a142ecc64d11f4ed537cb5,643773139deb637e8358b232,2023-04-13_05h14.42.997,PRaM,2021.2.3,Win32,61.02770658,61b8f3437b89212fae0dfadf
1,6.6351,space,5.2483,0,240,240,189,1,,,60a142ecc64d11f4ed537cb5,643773139deb637e8358b232,2023-04-13_05h14.42.997,PRaM,2021.2.3,Win32,61.02770658,61b8f3437b89212fae0dfadf
3,7.2523,space,5.5694,0,241,241,24,1,,,60a142ecc64d11f4ed537cb5,643773139deb637e8358b232,2023-04-13_05h14.42.997,PRaM,2021.2.3,Win32,61.02770658,61b8f3437b89212fae0dfadf
2,5.8226,space,5.461,0,242,242,78,1,,,60a142ecc64d11f4ed537cb5,643773139deb637e8358b232,2023-04-13_05h14.42.997,PRaM,2021.2.3,Win32,61.02770658,61b8f3437b89212fae0dfadf
7,16.6116,space,16.4158,0,243,243,136,1,,,60a142ecc64d11f4ed537cb5,643773139deb637e8358b232,2023-04-13_05h14.42.997,PRaM,2021.2.3,Win32,61.02770658,61b8f3437b89212fae0dfadf
6,5.8311,space,4.9375,0,244,244,319,1,,,60a142ecc64d11f4ed537cb5,643773139deb637e8358b232,2023-04-13_05h14.42.997,PRaM,2021.2.3,Win32,61.02770658,61b8f3437b89212fae0dfadf
2,2.436,space,0.8671,0,245,245,34,1,,,60a142ecc64d11f4ed537cb5,643773139deb637e8358b232,2023-04-13_05h14.42.997,PRaM,2021.2.3,Win32,61.02770658,61b8f3437b89212fae0dfadf
2,4.2978,space,2.951,0,246,246,73,1,,,60a142ecc64d11f4ed537cb5,643773139deb637e8358b232,2023-04-13_05h14.42.997,PRaM,2021.2.3,Win32,61.02770658,61b8f3437b89212fae0dfadf
2,2.5986,space,0.8965,0,247,247,341,1,,,60a142ecc64d11f4ed537cb5,643773139deb637e8358b232,2023-04-13_05h14.42.997,PRaM,2021.2.3,Win32,61.02770658,61b8f3437b89212fae0dfadf
5,2.9875,space,1.442,0,248,248,125,1,,,60a142ecc64d11f4ed537cb5,643773139deb637e8358b232,2023-04-13_05h14.42.997,PRaM,2021.2.3,Win32,61.02770658,61b8f3437b89212fae0dfadf
7,15.9413,space,14.3202,0,249,249,64,1,,,60a142ecc64d11f4ed537cb5,643773139deb637e8358b232,2023-04-13_05h14.42.997,PRaM,2021.2.3,Win32,61.02770658,61b8f3437b89212fae0dfadf
3,2.3515,space,0.7042,0,250,250,287,1,,,60a142ecc64d11f4ed537cb5,643773139deb637e8358b232,2023-04-13_05h14.42.997,PRaM,2021.2.3,Win32,61.02770658,61b8f3437b89212fae0dfadf
4,2.5137,space,0.8641,0,251,251,332,1,,,60a142ecc64d11f4ed537cb5,643773139deb637e8358b232,2023-04-13_05h14.42.997,PRaM,2021.2.3,Win32,61.02770658,61b8f3437b89212fae0dfadf
3,10.9999,space,9.346,0,252,252,11,1,,,60a142ecc64d11f4ed537cb5,643773139deb637e8358b232,2023-04-13_05h14.42.997,PRaM,2021.2.3,Win32,61.02770658,61b8f3437b89212fae0dfadf
1,3.3967,space,1.725,0,253,253,1,1,,,60a142ecc64d11f4ed537cb5,643773139deb637e8358b232,2023-04-13_05h14.42.997,PRaM,2021.2.3,Win32,61.02770658,61b8f3437b89212fae0dfadf
4,8.2335,space,6.5964,0,254,254,362,1,,,60a142ecc64d11f4ed537cb5,643773139deb637e8358b232,2023-04-13_05h14.42.997,PRaM,2021.2.3,Win32,61.02770658,61b8f3437b89212fae0dfadf
8,2.5387,space,0.9688,0,255,255,244,1,,,60a142ecc64d11f4ed537cb5,643773139deb637e8358b232,2023-04-13_05h14.42.997,PRaM,2021.2.3,Win32,61.02770658,61b8f3437b89212fae0dfadf
5,4.5502,space,2.9673,0,256,256,202,1,,,60a142ecc64d11f4ed537cb5,643773139deb637e8358b232,2023-04-13_05h14.42.997,PRaM,2021.2.3,Win32,61.02770658,61b8f3437b89212fae0dfadf
4,3.0351,space,1.3666,0,257,257,170,1,,,60a142ecc64d11f4ed537cb5,643773139deb637e8358b232,2023-04-13_05h14.42.997,PRaM,2021.2.3,Win32,61.02770658,61b8f3437b89212fae0dfadf
7,2.5768,space,0.9323,0,258,258,347,1,,,60a142ecc64d11f4ed537cb5,643773139deb637e8358b232,2023-04-13_05h14.42.997,PRaM,2021.2.3,Win32,61.02770658,61b8f3437b89212fae0dfadf
6,3.2028,space,1.5544,0,259,259,192,1,,,60a142ecc64d11f4ed537cb5,643773139deb637e8358b232,2023-04-13_05h14.42.997,PRaM,2021.2.3,Win32,61.02770658,61b8f3437b89212fae0dfadf
2,8.6891,space,7.148,0,260,260,176,1,,,60a142ecc64d11f4ed537cb5,643773139deb637e8358b232,2023-04-13_05h14.42.997,PRaM,2021.2.3,Win32,61.02770658,61b8f3437b89212fae0dfadf
6,2.8755,space,1.2322,0,261,261,80,1,,,60a142ecc64d11f4ed537cb5,643773139deb637e8358b232,2023-04-13_05h14.42.997,PRaM,2021.2.3,Win32,61.02770658,61b8f3437b89212fae0dfadf
2,2.5198,space,0.8893,0,262,262,289,1,,,60a142ecc64d11f4ed537cb5,643773139deb637e8358b232,2023-04-13_05h14.42.997,PRaM,2021.2.3,Win32,61.02770658,61b8f3437b89212fae0dfadf
7,3.8208,space,4.0502,0,263,263,177,1,,,60a142ecc64d11f4ed537cb5,643773139deb637e8358b232,2023-04-13_05h14.42.997,PRaM,2021.2.3,Win32,61.02770658,61b8f3437b89212fae0dfadf
3,9.2392,space,8.1425,0,264,264,143,1,,,60a142ecc64d11f4ed537cb5,643773139deb637e8358b232,2023-04-13_05h14.42.997,PRaM,2021.2.3,Win32,61.02770658,61b8f3437b89212fae0dfadf
3,2.4615,space,0.8622,0,265,265,359,1,,,60a142ecc64d11f4ed537cb5,643773139deb637e8358b232,2023-04-13_05h14.42.997,PRaM,2021.2.3,Win32,61.02770658,61b8f3437b89212fae0dfadf
5,5.1295,space,4.019,0,266,266,126,1,,,60a142ecc64d11f4ed537cb5,643773139deb637e8358b232,2023-04-13_05h14.42.997,PRaM,2021.2.3,Win32,61.02770658,61b8f3437b89212fae0dfadf
5,7.8142,space,6.4142,0,267,267,5,1,,,60a142ecc64d11f4ed537cb5,643773139deb637e8358b232,2023-04-13_05h14.42.997,PRaM,2021.2.3,Win32,61.02770658,61b8f3437b89212fae0dfadf
5,2.355,space,0.8503,0,268,268,31,1,,,60a142ecc64d11f4ed537cb5,643773139deb637e8358b232,2023-04-13_05h14.42.997,PRaM,2021.2.3,Win32,61.02770658,61b8f3437b89212fae0dfadf
3,3.2998,space,1.8524,0,269,269,300,1,,,60a142ecc64d11f4ed537cb5,643773139deb637e8358b232,2023-04-13_05h14.42.997,PRaM,2021.2.3,Win32,61.02770658,61b8f3437b89212fae0dfadf
2,3.711,space,2.3132,0,270,270,220,1,,,60a142ecc64d11f4ed537cb5,643773139deb637e8358b232,2023-04-13_05h14.42.997,PRaM,2021.2.3,Win32,61.02770658,61b8f3437b89212fae0dfadf
8,3.1083,space,1.4829,0,271,271,301,1,,,60a142ecc64d11f4ed537cb5,643773139deb637e8358b232,2023-04-13_05h14.42.997,PRaM,2021.2.3,Win32,61.02770658,61b8f3437b89212fae0dfadf
2,2.4573,space,0.8567,0,272,272,339,1,,,60a142ecc64d11f4ed537cb5,643773139deb637e8358b232,2023-04-13_05h14.42.997,PRaM,2021.2.3,Win32,61.02770658,61b8f3437b89212fae0dfadf
7,11.0836,space,9.5264,0,273,273,56,1,,,60a142ecc64d11f4ed537cb5,643773139deb637e8358b232,2023-04-13_05h14.42.997,PRaM,2021.2.3,Win32,61.02770658,61b8f3437b89212fae0dfadf
5,4.585,space,2.9157,0,274,274,314,1,,,60a142ecc64d11f4ed537cb5,643773139deb637e8358b232,2023-04-13_05h14.42.997,PRaM,2021.2.3,Win32,61.02770658,61b8f3437b89212fae0dfadf
5,1.9708,space,0.3372,0,275,275,72,1,,,60a142ecc64d11f4ed537cb5,643773139deb637e8358b232,2023-04-13_05h14.42.997,PRaM,2021.2.3,Win32,61.02770658,61b8f3437b89212fae0dfadf
6,3.0876,space,1.4943,0,276,276,216,1,,,60a142ecc64d11f4ed537cb5,643773139deb637e8358b232,2023-04-13_05h14.42.997,PRaM,2021.2.3,Win32,61.02770658,61b8f3437b89212fae0dfadf
3,2.9981,space,1.4689,0,277,277,89,1,,,60a142ecc64d11f4ed537cb5,643773139deb637e8358b232,2023-04-13_05h14.42.997,PRaM,2021.2.3,Win32,61.02770658,61b8f3437b89212fae0dfadf
6,5.5661,space,3.8716,0,278,278,119,1,,,60a142ecc64d11f4ed537cb5,643773139deb637e8358b232,2023-04-13_05h14.42.997,PRaM,2021.2.3,Win32,61.02770658,61b8f3437b89212fae0dfadf
5,3.4057,space,1.7437,0,279,279,223,1,,,60a142ecc64d11f4ed537cb5,643773139deb637e8358b232,2023-04-13_05h14.42.997,PRaM,2021.2.3,Win32,61.02770658,61b8f3437b89212fae0dfadf
3,7.0714,space,5.595,0,280,280,79,1,,,60a142ecc64d11f4ed537cb5,643773139deb637e8358b232,2023-04-13_05h14.42.997,PRaM,2021.2.3,Win32,61.02770658,61b8f3437b89212fae0dfadf
5,2.7937,space,1.4869,0,281,281,145,1,,,60a142ecc64d11f4ed537cb5,643773139deb637e8358b232,2023-04-13_05h14.42.997,PRaM,2021.2.3,Win32,61.02770658,61b8f3437b89212fae0dfadf
7,2.7738,space,1.151,0,282,282,75,1,,,60a142ecc64d11f4ed537cb5,643773139deb637e8358b232,2023-04-13_05h14.42.997,PRaM,2021.2.3,Win32,61.02770658,61b8f3437b89212fae0dfadf
6,4.9226,space,3.4488,0,283,283,342,1,,,60a142ecc64d11f4ed537cb5,643773139deb637e8358b232,2023-04-13_05h14.42.997,PRaM,2021.2.3,Win32,61.02770658,61b8f3437b89212fae0dfadf
3,2.6902,space,1.0636,0,284,284,185,1,,,60a142ecc64d11f4ed537cb5,643773139deb637e8358b232,2023-04-13_05h14.42.997,PRaM,2021.2.3,Win32,61.02770658,61b8f3437b89212fae0dfadf
6,2.2586,space,0.6115,0,285,285,120,1,,,60a142ecc64d11f4ed537cb5,643773139deb637e8358b232,2023-04-13_05h14.42.997,PRaM,2021.2.3,Win32,61.02770658,61b8f3437b89212fae0dfadf
6,2.3755,space,0.6871,0,286,286,127,1,,,60a142ecc64d11f4ed537cb5,643773139deb637e8358b232,2023-04-13_05h14.42.997,PRaM,2021.2.3,Win32,61.02770658,61b8f3437b89212fae0dfadf
7,2.8057,space,1.2866,0,287,287,269,1,,,60a142ecc64d11f4ed537cb5,643773139deb637e8358b232,2023-04-13_05h14.42.997,PRaM,2021.2.3,Win32,61.02770658,61b8f3437b89212fae0dfadf
4,5.4133,space,3.727,0,288,288,256,1,,,60a142ecc64d11f4ed537cb5,643773139deb637e8358b232,2023-04-13_05h14.42.997,PRaM,2021.2.3,Win32,61.02770658,61b8f3437b89212fae0dfadf
8,3.8396,space,2.2237,0,289,289,74,1,,,60a142ecc64d11f4ed537cb5,643773139deb637e8358b232,2023-04-13_05h14.42.997,PRaM,2021.2.3,Win32,61.02770658,61b8f3437b89212fae0dfadf
6,3.7148,space,2.0313,0,290,290,135,1,,,60a142ecc64d11f4ed537cb5,643773139deb637e8358b232,2023-04-13_05h14.42.997,PRaM,2021.2.3,Win32,61.02770658,61b8f3437b89212fae0dfadf
7,3.036,space,1.5003,0,291,291,335,1,,,60a142ecc64d11f4ed537cb5,643773139deb637e8358b232,2023-04-13_05h14.42.997,PRaM,2021.2.3,Win32,61.02770658,61b8f3437b89212fae0dfadf
7,17.0643,space,15.4598,0,292,292,84,1,,,60a142ecc64d11f4ed537cb5,643773139deb637e8358b232,2023-04-13_05h14.42.997,PRaM,2021.2.3,Win32,61.02770658,61b8f3437b89212fae0dfadf
3,2.2647,space,0.7177,0,293,293,87,1,,,60a142ecc64d11f4ed537cb5,643773139deb637e8358b232,2023-04-13_05h14.42.997,PRaM,2021.2.3,Win32,61.02770658,61b8f3437b89212fae0dfadf
3,3.8258,space,2.1488,0,294,294,315,1,,,60a142ecc64d11f4ed537cb5,643773139deb637e8358b232,2023-04-13_05h14.42.997,PRaM,2021.2.3,Win32,61.02770658,61b8f3437b89212fae0dfadf
1,2.3642,space,0.8354,0,295,295,54,1,,,60a142ecc64d11f4ed537cb5,643773139deb637e8358b232,2023-04-13_05h14.42.997,PRaM,2021.2.3,Win32,61.02770658,61b8f3437b89212fae0dfadf
5,2.2778,space,0.6864,0,296,296,236,1,,,60a142ecc64d11f4ed537cb5,643773139deb637e8358b232,2023-04-13_05h14.42.997,PRaM,2021.2.3,Win32,61.02770658,61b8f3437b89212fae0dfadf
7,3.8699,space,2.2732,0,297,297,83,1,,,60a142ecc64d11f4ed537cb5,643773139deb637e8358b232,2023-04-13_05h14.42.997,PRaM,2021.2.3,Win32,61.02770658,61b8f3437b89212fae0dfadf
5,3.5512,space,4.2984,0,298,298,201,1,,,60a142ecc64d11f4ed537cb5,643773139deb637e8358b232,2023-04-13_05h14.42.997,PRaM,2021.2.3,Win32,61.02770658,61b8f3437b89212fae0dfadf
5,3.4709,space,1.8189,0,299,299,147,1,,,60a142ecc64d11f4ed537cb5,643773139deb637e8358b232,2023-04-13_05h14.42.997,PRaM,2021.2.3,Win32,61.02770658,61b8f3437b89212fae0dfadf
5,3.8041,space,2.0858,0,300,300,295,1,,,60a142ecc64d11f4ed537cb5,643773139deb637e8358b232,2023-04-13_05h14.42.997,PRaM,2021.2.3,Win32,61.02770658,61b8f3437b89212fae0dfadf
4,2.4735,space,0.9016,0,301,301,349,1,,,60a142ecc64d11f4ed537cb5,643773139deb637e8358b232,2023-04-13_05h14.42.997,PRaM,2021.2.3,Win32,61.02770658,61b8f3437b89212fae0dfadf
6,2.5074,space,0.9143,0,302,302,334,1,,,60a142ecc64d11f4ed537cb5,643773139deb637e8358b232,2023-04-13_05h14.42.997,PRaM,2021.2.3,Win32,61.02770658,61b8f3437b89212fae0dfadf
4,3.3518,space,1.6445,0,303,303,318,1,,,60a142ecc64d11f4ed537cb5,643773139deb637e8358b232,2023-04-13_05h14.42.997,PRaM,2021.2.3,Win32,61.02770658,61b8f3437b89212fae0dfadf
1,2.6857,space,1.0897,0,304,304,50,1,,,60a142ecc64d11f4ed537cb5,643773139deb637e8358b232,2023-04-13_05h14.42.997,PRaM,2021.2.3,Win32,61.02770658,61b8f3437b89212fae0dfadf
4,3.6665,space,2.5519,0,305,305,2,1,,,60a142ecc64d11f4ed537cb5,643773139deb637e8358b232,2023-04-13_05h14.42.997,PRaM,2021.2.3,Win32,61.02770658,61b8f3437b89212fae0dfadf
6,2.5972,space,1.0069,0,306,306,140,1,,,60a142ecc64d11f4ed537cb5,643773139deb637e8358b232,2023-04-13_05h14.42.997,PRaM,2021.2.3,Win32,61.02770658,61b8f3437b89212fae0dfadf
5,8.3479,space,6.7011,0,307,307,93,1,,,60a142ecc64d11f4ed537cb5,643773139deb637e8358b232,2023-04-13_05h14.42.997,PRaM,2021.2.3,Win32,61.02770658,61b8f3437b89212fae0dfadf
4,2.0206,space,0.2696,0,308,308,346,1,,,60a142ecc64d11f4ed537cb5,643773139deb637e8358b232,2023-04-13_05h14.42.997,PRaM,2021.2.3,Win32,61.02770658,61b8f3437b89212fae0dfadf
4,2.0653,space,0.384,0,309,309,100,1,,,60a142ecc64d11f4ed537cb5,643773139deb637e8358b232,2023-04-13_05h14.42.997,PRaM,2021.2.3,Win32,61.02770658,61b8f3437b89212fae0dfadf
1,2.7682,space,1.4302,0,310,310,214,1,,,60a142ecc64d11f4ed537cb5,643773139deb637e8358b232,2023-04-13_05h14.42.997,PRaM,2021.2.3,Win32,61.02770658,61b8f3437b89212fae0dfadf
7,2.801,space,1.417,0,311,311,16,1,,,60a142ecc64d11f4ed537cb5,643773139deb637e8358b232,2023-04-13_05h14.42.997,PRaM,2021.2.3,Win32,61.02770658,61b8f3437b89212fae0dfadf
6,2.0887,space,0.4192,0,312,312,324,1,,,60a142ecc64d11f4ed537cb5,643773139deb637e8358b232,2023-04-13_05h14.42.997,PRaM,2021.2.3,Win32,61.02770658,61b8f3437b89212fae0dfadf
3,2.2848,space,0.6076,0,313,313,231,1,,,60a142ecc64d11f4ed537cb5,643773139deb637e8358b232,2023-04-13_05h14.42.997,PRaM,2021.2.3,Win32,61.02770658,61b8f3437b89212fae0dfadf
6,2.6883,space,1.5976,0,314,314,154,1,,,60a142ecc64d11f4ed537cb5,643773139deb637e8358b232,2023-04-13_05h14.42.997,PRaM,2021.2.3,Win32,61.02770658,61b8f3437b89212fae0dfadf
4,2.7323,space,1.0658,0,315,315,90,1,,,60a142ecc64d11f4ed537cb5,643773139deb637e8358b232,2023-04-13_05h14.42.997,PRaM,2021.2.3,Win32,61.02770658,61b8f3437b89212fae0dfadf
6,3.0776,space,1.3651,0,316,316,173,1,,,60a142ecc64d11f4ed537cb5,643773139deb637e8358b232,2023-04-13_05h14.42.997,PRaM,2021.2.3,Win32,61.02770658,61b8f3437b89212fae0dfadf
3,3.6284,space,1.9243,0,317,317,35,1,,,60a142ecc64d11f4ed537cb5,643773139deb637e8358b232,2023-04-13_05h14.42.997,PRaM,2021.2.3,Win32,61.02770658,61b8f3437b89212fae0dfadf
2,2.3287,space,0.7027,0,318,318,13,1,,,60a142ecc64d11f4ed537cb5,643773139deb637e8358b232,2023-04-13_05h14.42.997,PRaM,2021.2.3,Win32,61.02770658,61b8f3437b89212fae0dfadf
2,2.257,space,0.6815,0,319,319,227,1,,,60a142ecc64d11f4ed537cb5,643773139deb637e8358b232,2023-04-13_05h14.42.997,PRaM,2021.2.3,Win32,61.02770658,61b8f3437b89212fae0dfadf
2,2.0543,space,0.5223,0,320,320,70,1,,,60a142ecc64d11f4ed537cb5,643773139deb637e8358b232,2023-04-13_05h14.42.997,PRaM,2021.2.3,Win32,61.02770658,61b8f3437b89212fae0dfadf
6,3.1554,space,1.4621,0,321,321,142,1,,,60a142ecc64d11f4ed537cb5,643773139deb637e8358b232,2023-04-13_05h14.42.997,PRaM,2021.2.3,Win32,61.02770658,61b8f3437b89212fae0dfadf
7,3.1285,space,1.9344,0,322,322,118,1,,,60a142ecc64d11f4ed537cb5,643773139deb637e8358b232,2023-04-13_05h14.42.997,PRaM,2021.2.3,Win32,61.02770658,61b8f3437b89212fae0dfadf
5,2.4043,space,0.8173,0,323,323,180,1,,,60a142ecc64d11f4ed537cb5,643773139deb637e8358b232,2023-04-13_05h14.42.997,PRaM,2021.2.3,Win32,61.02770658,61b8f3437b89212fae0dfadf
7,2.3604,space,0.8169,0,324,324,3,1,,,60a142ecc64d11f4ed537cb5,643773139deb637e8358b232,2023-04-13_05h14.42.997,PRaM,2021.2.3,Win32,61.02770658,61b8f3437b89212fae0dfadf
4,3.8812,space,2.3489,0,325,325,58,1,,,60a142ecc64d11f4ed537cb5,643773139deb637e8358b232,2023-04-13_05h14.42.997,PRaM,2021.2.3,Win32,61.02770658,61b8f3437b89212fae0dfadf
2,2.5128,space,0.9193,0,326,326,36,1,,,60a142ecc64d11f4ed537cb5,643773139deb637e8358b232,2023-04-13_05h14.42.997,PRaM,2021.2.3,Win32,61.02770658,61b8f3437b89212fae0dfadf
6,3.804,space,2.2191,0,327,327,12,1,,,60a142ecc64d11f4ed537cb5,643773139deb637e8358b232,2023-04-13_05h14.42.997,PRaM,2021.2.3,Win32,61.02770658,61b8f3437b89212fae0dfadf
2,2.9795,space,1.7129,0,328,328,9,1,,,60a142ecc64d11f4ed537cb5,643773139deb637e8358b232,2023-04-13_05h14.42.997,PRaM,2021.2.3,Win32,61.02770658,61b8f3437b89212fae0dfadf
6,5.2577,space,3.6536,0,329,329,66,1,,,60a142ecc64d11f4ed537cb5,643773139deb637e8358b232,2023-04-13_05h14.42.997,PRaM,2021.2.3,Win32,61.02770658,61b8f3437b89212fae0dfadf
5,2.1418,space,0.5506,0,330,330,358,1,,,60a142ecc64d11f4ed537cb5,643773139deb637e8358b232,2023-04-13_05h14.42.997,PRaM,2021.2.3,Win32,61.02770658,61b8f3437b89212fae0dfadf
5,1.7727,space,0.2198,0,331,331,181,1,,,60a142ecc64d11f4ed537cb5,643773139deb637e8358b232,2023-04-13_05h14.42.997,PRaM,2021.2.3,Win32,61.02770658,61b8f3437b89212fae0dfadf
6,2.5331,space,1.0461,0,332,332,291,1,,,60a142ecc64d11f4ed537cb5,643773139deb637e8358b232,2023-04-13_05h14.42.997,PRaM,2021.2.3,Win32,61.02770658,61b8f3437b89212fae0dfadf
4,2.1789,space,0.5916,0,333,333,253,1,,,60a142ecc64d11f4ed537cb5,643773139deb637e8358b232,2023-04-13_05h14.42.997,PRaM,2021.2.3,Win32,61.02770658,61b8f3437b89212fae0dfadf
4,2.0394,space,0.4618,0,334,334,356,1,,,60a142ecc64d11f4ed537cb5,643773139deb637e8358b232,2023-04-13_05h14.42.997,PRaM,2021.2.3,Win32,61.02770658,61b8f3437b89212fae0dfadf
5,3.3851,space,1.7694,0,335,335,298,1,,,60a142ecc64d11f4ed537cb5,643773139deb637e8358b232,2023-04-13_05h14.42.997,PRaM,2021.2.3,Win32,61.02770658,61b8f3437b89212fae0dfadf
7,2.8125,space,1.3644,0,336,336,325,1,,,60a142ecc64d11f4ed537cb5,643773139deb637e8358b232,2023-04-13_05h14.42.997,PRaM,2021.2.3,Win32,61.02770658,61b8f3437b89212fae0dfadf
7,9.3597,space,8.3926,0,337,337,302,1,,,60a142ecc64d11f4ed537cb5,643773139deb637e8358b232,2023-04-13_05h14.42.997,PRaM,2021.2.3,Win32,61.02770658,61b8f3437b89212fae0dfadf
3,5.3849,space,3.7749,0,338,338,193,1,,,60a142ecc64d11f4ed537cb5,643773139deb637e8358b232,2023-04-13_05h14.42.997,PRaM,2021.2.3,Win32,61.02770658,61b8f3437b89212fae0dfadf
6,3.348,space,1.6074,0,339,339,30,1,,,60a142ecc64d11f4ed537cb5,643773139deb637e8358b232,2023-04-13_05h14.42.997,PRaM,2021.2.3,Win32,61.02770658,61b8f3437b89212fae0dfadf
2,3.003,space,1.3818,0,340,340,234,1,,,60a142ecc64d11f4ed537cb5,643773139deb637e8358b232,2023-04-13_05h14.42.997,PRaM,2021.2.3,Win32,61.02770658,61b8f3437b89212fae0dfadf
7,5.2112,space,4.2773,0,341,341,264,1,,,60a142ecc64d11f4ed537cb5,643773139deb637e8358b232,2023-04-13_05h14.42.997,PRaM,2021.2.3,Win32,61.02770658,61b8f3437b89212fae0dfadf
6,6.0903,space,5.0806,0,342,342,48,1,,,60a142ecc64d11f4ed537cb5,643773139deb637e8358b232,2023-04-13_05h14.42.997,PRaM,2021.2.3,Win32,61.02770658,61b8f3437b89212fae0dfadf
1,2.8639,space,1.4655,0,343,343,284,1,,,60a142ecc64d11f4ed537cb5,643773139deb637e8358b232,2023-04-13_05h14.42.997,PRaM,2021.2.3,Win32,61.02770658,61b8f3437b89212fae0dfadf
7,3.7947,space,2.3273,0,344,344,42,1,,,60a142ecc64d11f4ed537cb5,643773139deb637e8358b232,2023-04-13_05h14.42.997,PRaM,2021.2.3,Win32,61.02770658,61b8f3437b89212fae0dfadf
3,3.1009,space,1.4504,0,345,345,109,1,,,60a142ecc64d11f4ed537cb5,643773139deb637e8358b232,2023-04-13_05h14.42.997,PRaM,2021.2.3,Win32,61.02770658,61b8f3437b89212fae0dfadf
4,3.874,space,2.2656,0,346,346,52,1,,,60a142ecc64d11f4ed537cb5,643773139deb637e8358b232,2023-04-13_05h14.42.997,PRaM,2021.2.3,Win32,61.02770658,61b8f3437b89212fae0dfadf
5,7.5693,space,5.9692,0,347,347,296,1,,,60a142ecc64d11f4ed537cb5,643773139deb637e8358b232,2023-04-13_05h14.42.997,PRaM,2021.2.3,Win32,61.02770658,61b8f3437b89212fae0dfadf
4,8.6568,space,7.0394,0,348,348,47,1,,,60a142ecc64d11f4ed537cb5,643773139deb637e8358b232,2023-04-13_05h14.42.997,PRaM,2021.2.3,Win32,61.02770658,61b8f3437b89212fae0dfadf
4,2.9514,space,1.2963,0,349,349,317,1,,,60a142ecc64d11f4ed537cb5,643773139deb637e8358b232,2023-04-13_05h14.42.997,PRaM,2021.2.3,Win32,61.02770658,61b8f3437b89212fae0dfadf
7,2.5816,space,0.9692,0,350,350,274,1,,,60a142ecc64d11f4ed537cb5,643773139deb637e8358b232,2023-04-13_05h14.42.997,PRaM,2021.2.3,Win32,61.02770658,61b8f3437b89212fae0dfadf
5,3.3864,space,1.8158,0,351,351,242,1,,,60a142ecc64d11f4ed537cb5,643773139deb637e8358b232,2023-04-13_05h14.42.997,PRaM,2021.2.3,Win32,61.02770658,61b8f3437b89212fae0dfadf
6,8.3927,space,7.0107,0,352,352,372,1,,,60a142ecc64d11f4ed537cb5,643773139deb637e8358b232,2023-04-13_05h14.42.997,PRaM,2021.2.3,Win32,61.02770658,61b8f3437b89212fae0dfadf
6,2.19,space,1.0361,0,353,353,20,1,,,60a142ecc64d11f4ed537cb5,643773139deb637e8358b232,2023-04-13_05h14.42.997,PRaM,2021.2.3,Win32,61.02770658,61b8f3437b89212fae0dfadf
5,6.5636,space,5.0321,0,354,354,262,1,,,60a142ecc64d11f4ed537cb5,643773139deb637e8358b232,2023-04-13_05h14.42.997,PRaM,2021.2.3,Win32,61.02770658,61b8f3437b89212fae0dfadf
4,16.112,space,14.6852,0,355,355,309,1,,,60a142ecc64d11f4ed537cb5,643773139deb637e8358b232,2023-04-13_05h14.42.997,PRaM,2021.2.3,Win32,61.02770658,61b8f3437b89212fae0dfadf
4,5.5907,space,4.0181,0,356,356,179,1,,,60a142ecc64d11f4ed537cb5,643773139deb637e8358b232,2023-04-13_05h14.42.997,PRaM,2021.2.3,Win32,61.02770658,61b8f3437b89212fae0dfadf
3,2.7022,space,1.1665,0,357,357,184,1,,,60a142ecc64d11f4ed537cb5,643773139deb637e8358b232,2023-04-13_05h14.42.997,PRaM,2021.2.3,Win32,61.02770658,61b8f3437b89212fae0dfadf
6,8.5514,space,7.9452,0,358,358,363,1,,,60a142ecc64d11f4ed537cb5,643773139deb637e8358b232,2023-04-13_05h14.42.997,PRaM,2021.2.3,Win32,61.02770658,61b8f3437b89212fae0dfadf
3,13.5457,space,12.2252,0,359,359,254,1,,,60a142ecc64d11f4ed537cb5,643773139deb637e8358b232,2023-04-13_05h14.42.997,PRaM,2021.2.3,Win32,61.02770658,61b8f3437b89212fae0dfadf
3,2.0715,space,0.5382,0,360,360,144,1,,,60a142ecc64d11f4ed537cb5,643773139deb637e8358b232,2023-04-13_05h14.42.997,PRaM,2021.2.3,Win32,61.02770658,61b8f3437b89212fae0dfadf
3,9.126,space,7.4945,0,361,361,28,1,,,60a142ecc64d11f4ed537cb5,643773139deb637e8358b232,2023-04-13_05h14.42.997,PRaM,2021.2.3,Win32,61.02770658,61b8f3437b89212fae0dfadf
5,2.0793,space,0.6007,0,362,362,338,1,,,60a142ecc64d11f4ed537cb5,643773139deb637e8358b232,2023-04-13_05h14.42.997,PRaM,2021.2.3,Win32,61.02770658,61b8f3437b89212fae0dfadf
6,2.5629,space,1.1056,0,363,363,366,1,,,60a142ecc64d11f4ed537cb5,643773139deb637e8358b232,2023-04-13_05h14.42.997,PRaM,2021.2.3,Win32,61.02770658,61b8f3437b89212fae0dfadf
2,2.0389,space,0.8365,0,364,364,133,1,,,60a142ecc64d11f4ed537cb5,643773139deb637e8358b232,2023-04-13_05h14.42.997,PRaM,2021.2.3,Win32,61.02770658,61b8f3437b89212fae0dfadf
6,3.2736,space,1.6067,0,365,365,123,1,,,60a142ecc64d11f4ed537cb5,643773139deb637e8358b232,2023-04-13_05h14.42.997,PRaM,2021.2.3,Win32,61.02770658,61b8f3437b89212fae0dfadf
3,3.4869,space,2.0491,0,366,366,266,1,,,60a142ecc64d11f4ed537cb5,643773139deb637e8358b232,2023-04-13_05h14.42.997,PRaM,2021.2.3,Win32,61.02770658,61b8f3437b89212fae0dfadf
3,2.7738,space,1.1322,0,367,367,354,1,,,60a142ecc64d11f4ed537cb5,643773139deb637e8358b232,2023-04-13_05h14.42.997,PRaM,2021.2.3,Win32,61.02770658,61b8f3437b89212fae0dfadf
4,2.0715,space,0.5275,0,368,368,374,1,,,60a142ecc64d11f4ed537cb5,643773139deb637e8358b232,2023-04-13_05h14.42.997,PRaM,2021.2.3,Win32,61.02770658,61b8f3437b89212fae0dfadf
2,12.0499,space,10.4631,0,369,369,316,1,,,60a142ecc64d11f4ed537cb5,643773139deb637e8358b232,2023-04-13_05h14.42.997,PRaM,2021.2.3,Win32,61.02770658,61b8f3437b89212fae0dfadf
6,2.1702,space,0.5329,0,370,370,178,1,,,60a142ecc64d11f4ed537cb5,643773139deb637e8358b232,2023-04-13_05h14.42.997,PRaM,2021.2.3,Win32,61.02770658,61b8f3437b89212fae0dfadf
6,2.2066,space,0.6979,0,371,371,137,1,,,60a142ecc64d11f4ed537cb5,643773139deb637e8358b232,2023-04-13_05h14.42.997,PRaM,2021.2.3,Win32,61.02770658,61b8f3437b89212fae0dfadf
6,2.386,space,0.6733,0,372,372,344,1,,,60a142ecc64d11f4ed537cb5,643773139deb637e8358b232,2023-04-13_05h14.42.997,PRaM,2021.2.3,Win32,61.02770658,61b8f3437b89212fae0dfadf
6,1.9735,space,0.2677,0,373,373,40,1,,,60a142ecc64d11f4ed537cb5,643773139deb637e8358b232,2023-04-13_05h14.42.997,PRaM,2021.2.3,Win32,61.02770658,61b8f3437b89212fae0dfadf
5,3.6356,space,2.2498,0,374,374,81,1,,,60a142ecc64d11f4ed537cb5,643773139deb637e8358b232,2023-04-13_05h14.42.997,PRaM,2021.2.3,Win32,61.02770658,61b8f3437b89212fae0dfadf
2,2.939,space,1.2336,0,375,375,111,1,,,60a142ecc64d11f4ed537cb5,643773139deb637e8358b232,2023-04-13_05h14.42.997,PRaM,2021.2.3,Win32,61.02770658,61b8f3437b89212fae0dfadf
2,6.2256,space,4.6589,0,376,376,293,1,,,60a142ecc64d11f4ed537cb5,643773139deb637e8358b232,2023-04-13_05h14.42.997,PRaM,2021.2.3,Win32,61.02770658,61b8f3437b89212fae0dfadf
5,7.9761,space,6.2511,0,377,377,238,1,,,60a142ecc64d11f4ed537cb5,643773139deb637e8358b232,2023-04-13_05h14.42.997,PRaM,2021.2.3,Win32,61.02770658,61b8f3437b89212fae0dfadf
