Rating.response,Rating.rt,EndTrial.keys,EndTrial.rt,trials.thisRepN,trials.thisTrialN,trials.thisN,trials.thisIndex,trials.ran,Pos1,Pos2,participant,session,date,expName,psychopyVersion,OS,frameRate,study_id
5,5.8335,space,4.7355,0,0,0,191,1,,,60aad516e34718d318bfb44d,6437731470abd84e08e8bde2,2023-04-13_05h14.30.182,PRaM,2021.2.3,Win32,60.01680471,61b8f3437b89212fae0dfadf
6,5.7031,space,4.3816,0,1,1,116,1,,,60aad516e34718d318bfb44d,6437731470abd84e08e8bde2,2023-04-13_05h14.30.182,PRaM,2021.2.3,Win32,60.01680471,61b8f3437b89212fae0dfadf
5,3.5701,space,2.0464,0,2,2,43,1,,,60aad516e34718d318bfb44d,6437731470abd84e08e8bde2,2023-04-13_05h14.30.182,PRaM,2021.2.3,Win32,60.01680471,61b8f3437b89212fae0dfadf
3,3.1808,space,2.2635,0,3,3,55,1,,,60aad516e34718d318bfb44d,6437731470abd84e08e8bde2,2023-04-13_05h14.30.182,PRaM,2021.2.3,Win32,60.01680471,61b8f3437b89212fae0dfadf
2,3.551,space,2.2453,0,4,4,233,1,,,60aad516e34718d318bfb44d,6437731470abd84e08e8bde2,2023-04-13_05h14.30.182,PRaM,2021.2.3,Win32,60.01680471,61b8f3437b89212fae0dfadf
2,4.9888,space,3.7505,0,5,5,246,1,,,60aad516e34718d318bfb44d,6437731470abd84e08e8bde2,2023-04-13_05h14.30.182,PRaM,2021.2.3,Win32,60.01680471,61b8f3437b89212fae0dfadf
2,3.1591,space,1.9284,0,6,6,73,1,,,60aad516e34718d318bfb44d,6437731470abd84e08e8bde2,2023-04-13_05h14.30.182,PRaM,2021.2.3,Win32,60.01680471,61b8f3437b89212fae0dfadf
4,9.9308,space,8.4573,0,7,7,223,1,,,60aad516e34718d318bfb44d,6437731470abd84e08e8bde2,2023-04-13_05h14.30.182,PRaM,2021.2.3,Win32,60.01680471,61b8f3437b89212fae0dfadf
2,6.449,space,4.7377,0,8,8,24,1,,,60aad516e34718d318bfb44d,6437731470abd84e08e8bde2,2023-04-13_05h14.30.182,PRaM,2021.2.3,Win32,60.01680471,61b8f3437b89212fae0dfadf
3,4.0167,space,2.503,0,9,9,238,1,,,60aad516e34718d318bfb44d,6437731470abd84e08e8bde2,2023-04-13_05h14.30.182,PRaM,2021.2.3,Win32,60.01680471,61b8f3437b89212fae0dfadf
6,4.3817,space,2.7637,0,10,10,321,1,,,60aad516e34718d318bfb44d,6437731470abd84e08e8bde2,2023-04-13_05h14.30.182,PRaM,2021.2.3,Win32,60.01680471,61b8f3437b89212fae0dfadf
1,3.8345,space,2.6572,0,11,11,52,1,,,60aad516e34718d318bfb44d,6437731470abd84e08e8bde2,2023-04-13_05h14.30.182,PRaM,2021.2.3,Win32,60.01680471,61b8f3437b89212fae0dfadf
5,4.2051,space,2.7684,0,12,12,296,1,,,60aad516e34718d318bfb44d,6437731470abd84e08e8bde2,2023-04-13_05h14.30.182,PRaM,2021.2.3,Win32,60.01680471,61b8f3437b89212fae0dfadf
2,5.65,space,4.016,0,13,13,176,1,,,60aad516e34718d318bfb44d,6437731470abd84e08e8bde2,2023-04-13_05h14.30.182,PRaM,2021.2.3,Win32,60.01680471,61b8f3437b89212fae0dfadf
3,5.8266,space,4.1516,0,14,14,169,1,,,60aad516e34718d318bfb44d,6437731470abd84e08e8bde2,2023-04-13_05h14.30.182,PRaM,2021.2.3,Win32,60.01680471,61b8f3437b89212fae0dfadf
5,4.8102,space,3.388,0,15,15,304,1,,,60aad516e34718d318bfb44d,6437731470abd84e08e8bde2,2023-04-13_05h14.30.182,PRaM,2021.2.3,Win32,60.01680471,61b8f3437b89212fae0dfadf
1,3.3291,space,1.6189,0,16,16,353,1,,,60aad516e34718d318bfb44d,6437731470abd84e08e8bde2,2023-04-13_05h14.30.182,PRaM,2021.2.3,Win32,60.01680471,61b8f3437b89212fae0dfadf
4,2.8206,space,1.3009,0,17,17,72,1,,,60aad516e34718d318bfb44d,6437731470abd84e08e8bde2,2023-04-13_05h14.30.182,PRaM,2021.2.3,Win32,60.01680471,61b8f3437b89212fae0dfadf
5,2.8334,space,1.2171,0,18,18,152,1,,,60aad516e34718d318bfb44d,6437731470abd84e08e8bde2,2023-04-13_05h14.30.182,PRaM,2021.2.3,Win32,60.01680471,61b8f3437b89212fae0dfadf
7,3.8028,space,2.2014,0,19,19,115,1,,,60aad516e34718d318bfb44d,6437731470abd84e08e8bde2,2023-04-13_05h14.30.182,PRaM,2021.2.3,Win32,60.01680471,61b8f3437b89212fae0dfadf
6,3.1443,space,1.516,0,20,20,226,1,,,60aad516e34718d318bfb44d,6437731470abd84e08e8bde2,2023-04-13_05h14.30.182,PRaM,2021.2.3,Win32,60.01680471,61b8f3437b89212fae0dfadf
5,2.3975,space,1.0039,0,21,21,113,1,,,60aad516e34718d318bfb44d,6437731470abd84e08e8bde2,2023-04-13_05h14.30.182,PRaM,2021.2.3,Win32,60.01680471,61b8f3437b89212fae0dfadf
3,4.0545,space,2.4873,0,22,22,268,1,,,60aad516e34718d318bfb44d,6437731470abd84e08e8bde2,2023-04-13_05h14.30.182,PRaM,2021.2.3,Win32,60.01680471,61b8f3437b89212fae0dfadf
4,2.7212,space,1.0501,0,23,23,313,1,,,60aad516e34718d318bfb44d,6437731470abd84e08e8bde2,2023-04-13_05h14.30.182,PRaM,2021.2.3,Win32,60.01680471,61b8f3437b89212fae0dfadf
3,4.0703,space,2.3648,0,24,24,8,1,,,60aad516e34718d318bfb44d,6437731470abd84e08e8bde2,2023-04-13_05h14.30.182,PRaM,2021.2.3,Win32,60.01680471,61b8f3437b89212fae0dfadf
1,4.3577,space,2.6682,0,25,25,377,1,,,60aad516e34718d318bfb44d,6437731470abd84e08e8bde2,2023-04-13_05h14.30.182,PRaM,2021.2.3,Win32,60.01680471,61b8f3437b89212fae0dfadf
2,3.9859,space,2.5574,0,26,26,258,1,,,60aad516e34718d318bfb44d,6437731470abd84e08e8bde2,2023-04-13_05h14.30.182,PRaM,2021.2.3,Win32,60.01680471,61b8f3437b89212fae0dfadf
3,5.2612,space,3.5829,0,27,27,145,1,,,60aad516e34718d318bfb44d,6437731470abd84e08e8bde2,2023-04-13_05h14.30.182,PRaM,2021.2.3,Win32,60.01680471,61b8f3437b89212fae0dfadf
1,3.7769,space,2.6397,0,28,28,94,1,,,60aad516e34718d318bfb44d,6437731470abd84e08e8bde2,2023-04-13_05h14.30.182,PRaM,2021.2.3,Win32,60.01680471,61b8f3437b89212fae0dfadf
1,4.046,space,2.5285,0,29,29,211,1,,,60aad516e34718d318bfb44d,6437731470abd84e08e8bde2,2023-04-13_05h14.30.182,PRaM,2021.2.3,Win32,60.01680471,61b8f3437b89212fae0dfadf
4,2.8324,space,1.4787,0,30,30,56,1,,,60aad516e34718d318bfb44d,6437731470abd84e08e8bde2,2023-04-13_05h14.30.182,PRaM,2021.2.3,Win32,60.01680471,61b8f3437b89212fae0dfadf
4,2.9694,space,1.5318,0,31,31,310,1,,,60aad516e34718d318bfb44d,6437731470abd84e08e8bde2,2023-04-13_05h14.30.182,PRaM,2021.2.3,Win32,60.01680471,61b8f3437b89212fae0dfadf
5,2.5057,space,0.9085,0,32,32,12,1,,,60aad516e34718d318bfb44d,6437731470abd84e08e8bde2,2023-04-13_05h14.30.182,PRaM,2021.2.3,Win32,60.01680471,61b8f3437b89212fae0dfadf
5,4.1824,space,2.9114,0,33,33,58,1,,,60aad516e34718d318bfb44d,6437731470abd84e08e8bde2,2023-04-13_05h14.30.182,PRaM,2021.2.3,Win32,60.01680471,61b8f3437b89212fae0dfadf
1,5.1434,space,3.4671,0,34,34,311,1,,,60aad516e34718d318bfb44d,6437731470abd84e08e8bde2,2023-04-13_05h14.30.182,PRaM,2021.2.3,Win32,60.01680471,61b8f3437b89212fae0dfadf
1,3.8695,space,2.7784,0,35,35,107,1,,,60aad516e34718d318bfb44d,6437731470abd84e08e8bde2,2023-04-13_05h14.30.182,PRaM,2021.2.3,Win32,60.01680471,61b8f3437b89212fae0dfadf
2,4.0818,space,2.387,0,36,36,352,1,,,60aad516e34718d318bfb44d,6437731470abd84e08e8bde2,2023-04-13_05h14.30.182,PRaM,2021.2.3,Win32,60.01680471,61b8f3437b89212fae0dfadf
3,4.2437,space,2.7031,0,37,37,80,1,,,60aad516e34718d318bfb44d,6437731470abd84e08e8bde2,2023-04-13_05h14.30.182,PRaM,2021.2.3,Win32,60.01680471,61b8f3437b89212fae0dfadf
1,3.9818,space,2.5029,0,38,38,26,1,,,60aad516e34718d318bfb44d,6437731470abd84e08e8bde2,2023-04-13_05h14.30.182,PRaM,2021.2.3,Win32,60.01680471,61b8f3437b89212fae0dfadf
3,5.7417,space,4.4115,0,39,39,168,1,,,60aad516e34718d318bfb44d,6437731470abd84e08e8bde2,2023-04-13_05h14.30.182,PRaM,2021.2.3,Win32,60.01680471,61b8f3437b89212fae0dfadf
5,5.0653,space,3.5,0,40,40,59,1,,,60aad516e34718d318bfb44d,6437731470abd84e08e8bde2,2023-04-13_05h14.30.182,PRaM,2021.2.3,Win32,60.01680471,61b8f3437b89212fae0dfadf
1,8.7348,space,6.698,0,41,41,217,1,,,60aad516e34718d318bfb44d,6437731470abd84e08e8bde2,2023-04-13_05h14.30.182,PRaM,2021.2.3,Win32,60.01680471,61b8f3437b89212fae0dfadf
2,3.0218,space,1.9,0,42,42,48,1,,,60aad516e34718d318bfb44d,6437731470abd84e08e8bde2,2023-04-13_05h14.30.182,PRaM,2021.2.3,Win32,60.01680471,61b8f3437b89212fae0dfadf
4,4.6858,space,2.9859,0,43,43,285,1,,,60aad516e34718d318bfb44d,6437731470abd84e08e8bde2,2023-04-13_05h14.30.182,PRaM,2021.2.3,Win32,60.01680471,61b8f3437b89212fae0dfadf
2,11.4266,space,9.631,0,44,44,314,1,,,60aad516e34718d318bfb44d,6437731470abd84e08e8bde2,2023-04-13_05h14.30.182,PRaM,2021.2.3,Win32,60.01680471,61b8f3437b89212fae0dfadf
3,4.4507,space,2.7293,0,45,45,280,1,,,60aad516e34718d318bfb44d,6437731470abd84e08e8bde2,2023-04-13_05h14.30.182,PRaM,2021.2.3,Win32,60.01680471,61b8f3437b89212fae0dfadf
6,2.8983,space,1.5875,0,46,46,117,1,,,60aad516e34718d318bfb44d,6437731470abd84e08e8bde2,2023-04-13_05h14.30.182,PRaM,2021.2.3,Win32,60.01680471,61b8f3437b89212fae0dfadf
1,3.5683,space,1.9,0,47,47,229,1,,,60aad516e34718d318bfb44d,6437731470abd84e08e8bde2,2023-04-13_05h14.30.182,PRaM,2021.2.3,Win32,60.01680471,61b8f3437b89212fae0dfadf
5,3.8542,space,3.0994,0,48,48,76,1,,,60aad516e34718d318bfb44d,6437731470abd84e08e8bde2,2023-04-13_05h14.30.182,PRaM,2021.2.3,Win32,60.01680471,61b8f3437b89212fae0dfadf
5,5.319,space,3.6978,0,49,49,205,1,,,60aad516e34718d318bfb44d,6437731470abd84e08e8bde2,2023-04-13_05h14.30.182,PRaM,2021.2.3,Win32,60.01680471,61b8f3437b89212fae0dfadf
5,2.1284,space,1.4851,0,50,50,193,1,,,60aad516e34718d318bfb44d,6437731470abd84e08e8bde2,2023-04-13_05h14.30.182,PRaM,2021.2.3,Win32,60.01680471,61b8f3437b89212fae0dfadf
1,4.2311,space,2.9567,0,51,51,167,1,,,60aad516e34718d318bfb44d,6437731470abd84e08e8bde2,2023-04-13_05h14.30.182,PRaM,2021.2.3,Win32,60.01680471,61b8f3437b89212fae0dfadf
6,3.9482,space,2.6303,0,52,52,222,1,,,60aad516e34718d318bfb44d,6437731470abd84e08e8bde2,2023-04-13_05h14.30.182,PRaM,2021.2.3,Win32,60.01680471,61b8f3437b89212fae0dfadf
2,4.5868,space,3.2746,0,53,53,34,1,,,60aad516e34718d318bfb44d,6437731470abd84e08e8bde2,2023-04-13_05h14.30.182,PRaM,2021.2.3,Win32,60.01680471,61b8f3437b89212fae0dfadf
2,4.5352,space,2.9207,0,54,54,309,1,,,60aad516e34718d318bfb44d,6437731470abd84e08e8bde2,2023-04-13_05h14.30.182,PRaM,2021.2.3,Win32,60.01680471,61b8f3437b89212fae0dfadf
3,7.0147,space,5.5166,0,55,55,170,1,,,60aad516e34718d318bfb44d,6437731470abd84e08e8bde2,2023-04-13_05h14.30.182,PRaM,2021.2.3,Win32,60.01680471,61b8f3437b89212fae0dfadf
5,4.0885,space,2.5414,0,56,56,112,1,,,60aad516e34718d318bfb44d,6437731470abd84e08e8bde2,2023-04-13_05h14.30.182,PRaM,2021.2.3,Win32,60.01680471,61b8f3437b89212fae0dfadf
6,3.2781,space,1.7487,0,57,57,199,1,,,60aad516e34718d318bfb44d,6437731470abd84e08e8bde2,2023-04-13_05h14.30.182,PRaM,2021.2.3,Win32,60.01680471,61b8f3437b89212fae0dfadf
5,4.0657,space,2.4105,0,58,58,44,1,,,60aad516e34718d318bfb44d,6437731470abd84e08e8bde2,2023-04-13_05h14.30.182,PRaM,2021.2.3,Win32,60.01680471,61b8f3437b89212fae0dfadf
7,3.8014,space,2.144,0,59,59,363,1,,,60aad516e34718d318bfb44d,6437731470abd84e08e8bde2,2023-04-13_05h14.30.182,PRaM,2021.2.3,Win32,60.01680471,61b8f3437b89212fae0dfadf
5,3.653,space,1.9549,0,60,60,188,1,,,60aad516e34718d318bfb44d,6437731470abd84e08e8bde2,2023-04-13_05h14.30.182,PRaM,2021.2.3,Win32,60.01680471,61b8f3437b89212fae0dfadf
2,6.1225,space,4.6885,0,61,61,254,1,,,60aad516e34718d318bfb44d,6437731470abd84e08e8bde2,2023-04-13_05h14.30.182,PRaM,2021.2.3,Win32,60.01680471,61b8f3437b89212fae0dfadf
2,6.6498,space,5.0851,0,62,62,181,1,,,60aad516e34718d318bfb44d,6437731470abd84e08e8bde2,2023-04-13_05h14.30.182,PRaM,2021.2.3,Win32,60.01680471,61b8f3437b89212fae0dfadf
1,4.0491,space,2.4053,0,63,63,124,1,,,60aad516e34718d318bfb44d,6437731470abd84e08e8bde2,2023-04-13_05h14.30.182,PRaM,2021.2.3,Win32,60.01680471,61b8f3437b89212fae0dfadf
2,3.4207,space,1.9495,0,64,64,27,1,,,60aad516e34718d318bfb44d,6437731470abd84e08e8bde2,2023-04-13_05h14.30.182,PRaM,2021.2.3,Win32,60.01680471,61b8f3437b89212fae0dfadf
2,3.0263,space,1.4414,0,65,65,91,1,,,60aad516e34718d318bfb44d,6437731470abd84e08e8bde2,2023-04-13_05h14.30.182,PRaM,2021.2.3,Win32,60.01680471,61b8f3437b89212fae0dfadf
3,2.4434,space,1.0197,0,66,66,327,1,,,60aad516e34718d318bfb44d,6437731470abd84e08e8bde2,2023-04-13_05h14.30.182,PRaM,2021.2.3,Win32,60.01680471,61b8f3437b89212fae0dfadf
2,2.5596,space,0.9516,0,67,67,155,1,,,60aad516e34718d318bfb44d,6437731470abd84e08e8bde2,2023-04-13_05h14.30.182,PRaM,2021.2.3,Win32,60.01680471,61b8f3437b89212fae0dfadf
4,3.0843,space,1.4185,0,68,68,292,1,,,60aad516e34718d318bfb44d,6437731470abd84e08e8bde2,2023-04-13_05h14.30.182,PRaM,2021.2.3,Win32,60.01680471,61b8f3437b89212fae0dfadf
1,3.3373,space,1.4705,0,69,69,101,1,,,60aad516e34718d318bfb44d,6437731470abd84e08e8bde2,2023-04-13_05h14.30.182,PRaM,2021.2.3,Win32,60.01680471,61b8f3437b89212fae0dfadf
4,2.7398,space,1.0824,0,70,70,263,1,,,60aad516e34718d318bfb44d,6437731470abd84e08e8bde2,2023-04-13_05h14.30.182,PRaM,2021.2.3,Win32,60.01680471,61b8f3437b89212fae0dfadf
6,3.046,space,1.6344,0,71,71,375,1,,,60aad516e34718d318bfb44d,6437731470abd84e08e8bde2,2023-04-13_05h14.30.182,PRaM,2021.2.3,Win32,60.01680471,61b8f3437b89212fae0dfadf
8,2.9284,space,1.3159,0,72,72,298,1,,,60aad516e34718d318bfb44d,6437731470abd84e08e8bde2,2023-04-13_05h14.30.182,PRaM,2021.2.3,Win32,60.01680471,61b8f3437b89212fae0dfadf
7,2.3032,space,0.7902,0,73,73,277,1,,,60aad516e34718d318bfb44d,6437731470abd84e08e8bde2,2023-04-13_05h14.30.182,PRaM,2021.2.3,Win32,60.01680471,61b8f3437b89212fae0dfadf
4,2.9358,space,1.2451,0,74,74,98,1,,,60aad516e34718d318bfb44d,6437731470abd84e08e8bde2,2023-04-13_05h14.30.182,PRaM,2021.2.3,Win32,60.01680471,61b8f3437b89212fae0dfadf
4,2.3667,space,0.997,0,75,75,118,1,,,60aad516e34718d318bfb44d,6437731470abd84e08e8bde2,2023-04-13_05h14.30.182,PRaM,2021.2.3,Win32,60.01680471,61b8f3437b89212fae0dfadf
4,2.8113,space,1.0668,0,76,76,218,1,,,60aad516e34718d318bfb44d,6437731470abd84e08e8bde2,2023-04-13_05h14.30.182,PRaM,2021.2.3,Win32,60.01680471,61b8f3437b89212fae0dfadf
4,1.8134,space,0.3312,0,77,77,99,1,,,60aad516e34718d318bfb44d,6437731470abd84e08e8bde2,2023-04-13_05h14.30.182,PRaM,2021.2.3,Win32,60.01680471,61b8f3437b89212fae0dfadf
4,2.6129,space,0.7694,0,78,78,141,1,,,60aad516e34718d318bfb44d,6437731470abd84e08e8bde2,2023-04-13_05h14.30.182,PRaM,2021.2.3,Win32,60.01680471,61b8f3437b89212fae0dfadf
5,2.4729,space,0.7746,0,79,79,290,1,,,60aad516e34718d318bfb44d,6437731470abd84e08e8bde2,2023-04-13_05h14.30.182,PRaM,2021.2.3,Win32,60.01680471,61b8f3437b89212fae0dfadf
1,2.368,space,0.7395,0,80,80,241,1,,,60aad516e34718d318bfb44d,6437731470abd84e08e8bde2,2023-04-13_05h14.30.182,PRaM,2021.2.3,Win32,60.01680471,61b8f3437b89212fae0dfadf
2,2.4216,space,0.8382,0,81,81,159,1,,,60aad516e34718d318bfb44d,6437731470abd84e08e8bde2,2023-04-13_05h14.30.182,PRaM,2021.2.3,Win32,60.01680471,61b8f3437b89212fae0dfadf
6,3.3033,space,1.6828,0,82,82,186,1,,,60aad516e34718d318bfb44d,6437731470abd84e08e8bde2,2023-04-13_05h14.30.182,PRaM,2021.2.3,Win32,60.01680471,61b8f3437b89212fae0dfadf
1,3.0921,space,1.3553,0,83,83,349,1,,,60aad516e34718d318bfb44d,6437731470abd84e08e8bde2,2023-04-13_05h14.30.182,PRaM,2021.2.3,Win32,60.01680471,61b8f3437b89212fae0dfadf
1,4.4766,space,2.7193,0,84,84,248,1,,,60aad516e34718d318bfb44d,6437731470abd84e08e8bde2,2023-04-13_05h14.30.182,PRaM,2021.2.3,Win32,60.01680471,61b8f3437b89212fae0dfadf
2,2.6797,space,1.0581,0,85,85,357,1,,,60aad516e34718d318bfb44d,6437731470abd84e08e8bde2,2023-04-13_05h14.30.182,PRaM,2021.2.3,Win32,60.01680471,61b8f3437b89212fae0dfadf
1,3.9902,space,2.3216,0,86,86,295,1,,,60aad516e34718d318bfb44d,6437731470abd84e08e8bde2,2023-04-13_05h14.30.182,PRaM,2021.2.3,Win32,60.01680471,61b8f3437b89212fae0dfadf
1,1.8214,space,0.2016,0,87,87,146,1,,,60aad516e34718d318bfb44d,6437731470abd84e08e8bde2,2023-04-13_05h14.30.182,PRaM,2021.2.3,Win32,60.01680471,61b8f3437b89212fae0dfadf
1,2.0945,space,0.6749,0,88,88,10,1,,,60aad516e34718d318bfb44d,6437731470abd84e08e8bde2,2023-04-13_05h14.30.182,PRaM,2021.2.3,Win32,60.01680471,61b8f3437b89212fae0dfadf
6,2.4167,space,0.7976,0,89,89,297,1,,,60aad516e34718d318bfb44d,6437731470abd84e08e8bde2,2023-04-13_05h14.30.182,PRaM,2021.2.3,Win32,60.01680471,61b8f3437b89212fae0dfadf
3,2.7086,space,0.9538,0,90,90,129,1,,,60aad516e34718d318bfb44d,6437731470abd84e08e8bde2,2023-04-13_05h14.30.182,PRaM,2021.2.3,Win32,60.01680471,61b8f3437b89212fae0dfadf
2,2.6826,space,1.0336,0,91,91,90,1,,,60aad516e34718d318bfb44d,6437731470abd84e08e8bde2,2023-04-13_05h14.30.182,PRaM,2021.2.3,Win32,60.01680471,61b8f3437b89212fae0dfadf
4,2.4533,space,0.814,0,92,92,347,1,,,60aad516e34718d318bfb44d,6437731470abd84e08e8bde2,2023-04-13_05h14.30.182,PRaM,2021.2.3,Win32,60.01680471,61b8f3437b89212fae0dfadf
2,2.6941,space,1.0007,0,93,93,253,1,,,60aad516e34718d318bfb44d,6437731470abd84e08e8bde2,2023-04-13_05h14.30.182,PRaM,2021.2.3,Win32,60.01680471,61b8f3437b89212fae0dfadf
3,2.5318,space,1.251,0,94,94,305,1,,,60aad516e34718d318bfb44d,6437731470abd84e08e8bde2,2023-04-13_05h14.30.182,PRaM,2021.2.3,Win32,60.01680471,61b8f3437b89212fae0dfadf
2,2.7749,space,1.1335,0,95,95,11,1,,,60aad516e34718d318bfb44d,6437731470abd84e08e8bde2,2023-04-13_05h14.30.182,PRaM,2021.2.3,Win32,60.01680471,61b8f3437b89212fae0dfadf
4,3.2752,space,1.5022,0,96,96,317,1,,,60aad516e34718d318bfb44d,6437731470abd84e08e8bde2,2023-04-13_05h14.30.182,PRaM,2021.2.3,Win32,60.01680471,61b8f3437b89212fae0dfadf
6,2.1667,space,0.5689,0,97,97,331,1,,,60aad516e34718d318bfb44d,6437731470abd84e08e8bde2,2023-04-13_05h14.30.182,PRaM,2021.2.3,Win32,60.01680471,61b8f3437b89212fae0dfadf
5,2.3529,space,1.0516,0,98,98,156,1,,,60aad516e34718d318bfb44d,6437731470abd84e08e8bde2,2023-04-13_05h14.30.182,PRaM,2021.2.3,Win32,60.01680471,61b8f3437b89212fae0dfadf
7,3.2903,space,1.7827,0,99,99,174,1,,,60aad516e34718d318bfb44d,6437731470abd84e08e8bde2,2023-04-13_05h14.30.182,PRaM,2021.2.3,Win32,60.01680471,61b8f3437b89212fae0dfadf
6,3.2977,space,1.6675,0,100,100,127,1,,,60aad516e34718d318bfb44d,6437731470abd84e08e8bde2,2023-04-13_05h14.30.182,PRaM,2021.2.3,Win32,60.01680471,61b8f3437b89212fae0dfadf
4,3.1087,space,1.5155,0,101,101,125,1,,,60aad516e34718d318bfb44d,6437731470abd84e08e8bde2,2023-04-13_05h14.30.182,PRaM,2021.2.3,Win32,60.01680471,61b8f3437b89212fae0dfadf
3,4.4679,space,2.7529,0,102,102,31,1,,,60aad516e34718d318bfb44d,6437731470abd84e08e8bde2,2023-04-13_05h14.30.182,PRaM,2021.2.3,Win32,60.01680471,61b8f3437b89212fae0dfadf
2,2.6361,space,1.0146,0,103,103,354,1,,,60aad516e34718d318bfb44d,6437731470abd84e08e8bde2,2023-04-13_05h14.30.182,PRaM,2021.2.3,Win32,60.01680471,61b8f3437b89212fae0dfadf
3,2.2131,space,0.6195,0,104,104,293,1,,,60aad516e34718d318bfb44d,6437731470abd84e08e8bde2,2023-04-13_05h14.30.182,PRaM,2021.2.3,Win32,60.01680471,61b8f3437b89212fae0dfadf
2,3.1571,space,1.4893,0,105,105,49,1,,,60aad516e34718d318bfb44d,6437731470abd84e08e8bde2,2023-04-13_05h14.30.182,PRaM,2021.2.3,Win32,60.01680471,61b8f3437b89212fae0dfadf
2,2.0381,space,0.4338,0,106,106,284,1,,,60aad516e34718d318bfb44d,6437731470abd84e08e8bde2,2023-04-13_05h14.30.182,PRaM,2021.2.3,Win32,60.01680471,61b8f3437b89212fae0dfadf
3,4.0238,space,2.35,0,107,107,230,1,,,60aad516e34718d318bfb44d,6437731470abd84e08e8bde2,2023-04-13_05h14.30.182,PRaM,2021.2.3,Win32,60.01680471,61b8f3437b89212fae0dfadf
2,2.5885,space,1.153,0,108,108,133,1,,,60aad516e34718d318bfb44d,6437731470abd84e08e8bde2,2023-04-13_05h14.30.182,PRaM,2021.2.3,Win32,60.01680471,61b8f3437b89212fae0dfadf
2,2.3301,space,0.835,0,109,109,23,1,,,60aad516e34718d318bfb44d,6437731470abd84e08e8bde2,2023-04-13_05h14.30.182,PRaM,2021.2.3,Win32,60.01680471,61b8f3437b89212fae0dfadf
4,3.3667,space,1.9916,0,110,110,336,1,,,60aad516e34718d318bfb44d,6437731470abd84e08e8bde2,2023-04-13_05h14.30.182,PRaM,2021.2.3,Win32,60.01680471,61b8f3437b89212fae0dfadf
2,3.2516,space,1.6389,0,111,111,358,1,,,60aad516e34718d318bfb44d,6437731470abd84e08e8bde2,2023-04-13_05h14.30.182,PRaM,2021.2.3,Win32,60.01680471,61b8f3437b89212fae0dfadf
6,3.0501,space,1.4856,0,112,112,207,1,,,60aad516e34718d318bfb44d,6437731470abd84e08e8bde2,2023-04-13_05h14.30.182,PRaM,2021.2.3,Win32,60.01680471,61b8f3437b89212fae0dfadf
2,2.918,space,1.5508,0,113,113,28,1,,,60aad516e34718d318bfb44d,6437731470abd84e08e8bde2,2023-04-13_05h14.30.182,PRaM,2021.2.3,Win32,60.01680471,61b8f3437b89212fae0dfadf
2,3.1322,space,1.5632,0,114,114,81,1,,,60aad516e34718d318bfb44d,6437731470abd84e08e8bde2,2023-04-13_05h14.30.182,PRaM,2021.2.3,Win32,60.01680471,61b8f3437b89212fae0dfadf
3,2.9602,space,1.2152,0,115,115,172,1,,,60aad516e34718d318bfb44d,6437731470abd84e08e8bde2,2023-04-13_05h14.30.182,PRaM,2021.2.3,Win32,60.01680471,61b8f3437b89212fae0dfadf
7,2.7246,space,0.8902,0,116,116,340,1,,,60aad516e34718d318bfb44d,6437731470abd84e08e8bde2,2023-04-13_05h14.30.182,PRaM,2021.2.3,Win32,60.01680471,61b8f3437b89212fae0dfadf
2,5.1291,space,3.464,0,117,117,22,1,,,60aad516e34718d318bfb44d,6437731470abd84e08e8bde2,2023-04-13_05h14.30.182,PRaM,2021.2.3,Win32,60.01680471,61b8f3437b89212fae0dfadf
6,4.9685,space,3.1872,0,118,118,219,1,,,60aad516e34718d318bfb44d,6437731470abd84e08e8bde2,2023-04-13_05h14.30.182,PRaM,2021.2.3,Win32,60.01680471,61b8f3437b89212fae0dfadf
2,2.4094,space,0.7567,0,119,119,289,1,,,60aad516e34718d318bfb44d,6437731470abd84e08e8bde2,2023-04-13_05h14.30.182,PRaM,2021.2.3,Win32,60.01680471,61b8f3437b89212fae0dfadf
4,3.1421,space,1.6335,0,120,120,165,1,,,60aad516e34718d318bfb44d,6437731470abd84e08e8bde2,2023-04-13_05h14.30.182,PRaM,2021.2.3,Win32,60.01680471,61b8f3437b89212fae0dfadf
2,2.8387,space,1.0717,0,121,121,190,1,,,60aad516e34718d318bfb44d,6437731470abd84e08e8bde2,2023-04-13_05h14.30.182,PRaM,2021.2.3,Win32,60.01680471,61b8f3437b89212fae0dfadf
2,1.9573,space,0.5603,0,122,122,15,1,,,60aad516e34718d318bfb44d,6437731470abd84e08e8bde2,2023-04-13_05h14.30.182,PRaM,2021.2.3,Win32,60.01680471,61b8f3437b89212fae0dfadf
5,2.454,space,1.1037,0,123,123,209,1,,,60aad516e34718d318bfb44d,6437731470abd84e08e8bde2,2023-04-13_05h14.30.182,PRaM,2021.2.3,Win32,60.01680471,61b8f3437b89212fae0dfadf
2,2.4363,space,0.7048,0,124,124,126,1,,,60aad516e34718d318bfb44d,6437731470abd84e08e8bde2,2023-04-13_05h14.30.182,PRaM,2021.2.3,Win32,60.01680471,61b8f3437b89212fae0dfadf
1,2.5468,space,1.1789,0,125,125,299,1,,,60aad516e34718d318bfb44d,6437731470abd84e08e8bde2,2023-04-13_05h14.30.182,PRaM,2021.2.3,Win32,60.01680471,61b8f3437b89212fae0dfadf
1,3.1031,space,1.424,0,126,126,171,1,,,60aad516e34718d318bfb44d,6437731470abd84e08e8bde2,2023-04-13_05h14.30.182,PRaM,2021.2.3,Win32,60.01680471,61b8f3437b89212fae0dfadf
5,7.0869,space,5.5339,0,127,127,60,1,,,60aad516e34718d318bfb44d,6437731470abd84e08e8bde2,2023-04-13_05h14.30.182,PRaM,2021.2.3,Win32,60.01680471,61b8f3437b89212fae0dfadf
1,4.4245,space,3.3667,0,128,128,187,1,,,60aad516e34718d318bfb44d,6437731470abd84e08e8bde2,2023-04-13_05h14.30.182,PRaM,2021.2.3,Win32,60.01680471,61b8f3437b89212fae0dfadf
2,3.7047,space,2.8115,0,129,129,342,1,,,60aad516e34718d318bfb44d,6437731470abd84e08e8bde2,2023-04-13_05h14.30.182,PRaM,2021.2.3,Win32,60.01680471,61b8f3437b89212fae0dfadf
2,2.9952,space,1.5757,0,130,130,135,1,,,60aad516e34718d318bfb44d,6437731470abd84e08e8bde2,2023-04-13_05h14.30.182,PRaM,2021.2.3,Win32,60.01680471,61b8f3437b89212fae0dfadf
5,2.6462,space,1.1678,0,131,131,291,1,,,60aad516e34718d318bfb44d,6437731470abd84e08e8bde2,2023-04-13_05h14.30.182,PRaM,2021.2.3,Win32,60.01680471,61b8f3437b89212fae0dfadf
2,2.9262,space,1.2328,0,132,132,140,1,,,60aad516e34718d318bfb44d,6437731470abd84e08e8bde2,2023-04-13_05h14.30.182,PRaM,2021.2.3,Win32,60.01680471,61b8f3437b89212fae0dfadf
2,4.334,space,2.8386,0,133,133,74,1,,,60aad516e34718d318bfb44d,6437731470abd84e08e8bde2,2023-04-13_05h14.30.182,PRaM,2021.2.3,Win32,60.01680471,61b8f3437b89212fae0dfadf
1,2.5505,space,1.0846,0,134,134,371,1,,,60aad516e34718d318bfb44d,6437731470abd84e08e8bde2,2023-04-13_05h14.30.182,PRaM,2021.2.3,Win32,60.01680471,61b8f3437b89212fae0dfadf
5,3.3044,space,1.8341,0,135,135,7,1,,,60aad516e34718d318bfb44d,6437731470abd84e08e8bde2,2023-04-13_05h14.30.182,PRaM,2021.2.3,Win32,60.01680471,61b8f3437b89212fae0dfadf
4,3.4559,space,1.8915,0,136,136,201,1,,,60aad516e34718d318bfb44d,6437731470abd84e08e8bde2,2023-04-13_05h14.30.182,PRaM,2021.2.3,Win32,60.01680471,61b8f3437b89212fae0dfadf
1,2.409,space,0.8554,0,137,137,224,1,,,60aad516e34718d318bfb44d,6437731470abd84e08e8bde2,2023-04-13_05h14.30.182,PRaM,2021.2.3,Win32,60.01680471,61b8f3437b89212fae0dfadf
1,3.1537,space,1.4505,0,138,138,257,1,,,60aad516e34718d318bfb44d,6437731470abd84e08e8bde2,2023-04-13_05h14.30.182,PRaM,2021.2.3,Win32,60.01680471,61b8f3437b89212fae0dfadf
1,3.4954,space,1.9136,0,139,139,267,1,,,60aad516e34718d318bfb44d,6437731470abd84e08e8bde2,2023-04-13_05h14.30.182,PRaM,2021.2.3,Win32,60.01680471,61b8f3437b89212fae0dfadf
1,1.555,space,0.1371,0,140,140,356,1,,,60aad516e34718d318bfb44d,6437731470abd84e08e8bde2,2023-04-13_05h14.30.182,PRaM,2021.2.3,Win32,60.01680471,61b8f3437b89212fae0dfadf
2,3.8686,space,2.4045,0,141,141,237,1,,,60aad516e34718d318bfb44d,6437731470abd84e08e8bde2,2023-04-13_05h14.30.182,PRaM,2021.2.3,Win32,60.01680471,61b8f3437b89212fae0dfadf
4,2.1937,space,0.7196,0,142,142,301,1,,,60aad516e34718d318bfb44d,6437731470abd84e08e8bde2,2023-04-13_05h14.30.182,PRaM,2021.2.3,Win32,60.01680471,61b8f3437b89212fae0dfadf
3,2.3988,space,1.1,0,143,143,264,1,,,60aad516e34718d318bfb44d,6437731470abd84e08e8bde2,2023-04-13_05h14.30.182,PRaM,2021.2.3,Win32,60.01680471,61b8f3437b89212fae0dfadf
4,3.0824,space,1.5013,0,144,144,40,1,,,60aad516e34718d318bfb44d,6437731470abd84e08e8bde2,2023-04-13_05h14.30.182,PRaM,2021.2.3,Win32,60.01680471,61b8f3437b89212fae0dfadf
5,3.3292,space,1.7154,0,145,145,84,1,,,60aad516e34718d318bfb44d,6437731470abd84e08e8bde2,2023-04-13_05h14.30.182,PRaM,2021.2.3,Win32,60.01680471,61b8f3437b89212fae0dfadf
7,2.385,space,0.7361,0,146,146,302,1,,,60aad516e34718d318bfb44d,6437731470abd84e08e8bde2,2023-04-13_05h14.30.182,PRaM,2021.2.3,Win32,60.01680471,61b8f3437b89212fae0dfadf
2,2.9788,space,1.3029,0,147,147,212,1,,,60aad516e34718d318bfb44d,6437731470abd84e08e8bde2,2023-04-13_05h14.30.182,PRaM,2021.2.3,Win32,60.01680471,61b8f3437b89212fae0dfadf
6,2.4924,space,1.0354,0,148,148,337,1,,,60aad516e34718d318bfb44d,6437731470abd84e08e8bde2,2023-04-13_05h14.30.182,PRaM,2021.2.3,Win32,60.01680471,61b8f3437b89212fae0dfadf
4,2.5256,space,0.8229,0,149,149,271,1,,,60aad516e34718d318bfb44d,6437731470abd84e08e8bde2,2023-04-13_05h14.30.182,PRaM,2021.2.3,Win32,60.01680471,61b8f3437b89212fae0dfadf
3,2.4443,space,1.2473,0,150,150,100,1,,,60aad516e34718d318bfb44d,6437731470abd84e08e8bde2,2023-04-13_05h14.30.182,PRaM,2021.2.3,Win32,60.01680471,61b8f3437b89212fae0dfadf
2,2.6846,space,0.985,0,151,151,9,1,,,60aad516e34718d318bfb44d,6437731470abd84e08e8bde2,2023-04-13_05h14.30.182,PRaM,2021.2.3,Win32,60.01680471,61b8f3437b89212fae0dfadf
3,2.0488,space,0.4508,0,152,152,281,1,,,60aad516e34718d318bfb44d,6437731470abd84e08e8bde2,2023-04-13_05h14.30.182,PRaM,2021.2.3,Win32,60.01680471,61b8f3437b89212fae0dfadf
3,1.9966,space,0.3842,0,153,153,36,1,,,60aad516e34718d318bfb44d,6437731470abd84e08e8bde2,2023-04-13_05h14.30.182,PRaM,2021.2.3,Win32,60.01680471,61b8f3437b89212fae0dfadf
3,2.1056,space,0.7794,0,154,154,220,1,,,60aad516e34718d318bfb44d,6437731470abd84e08e8bde2,2023-04-13_05h14.30.182,PRaM,2021.2.3,Win32,60.01680471,61b8f3437b89212fae0dfadf
2,3.3725,space,1.8667,0,155,155,361,1,,,60aad516e34718d318bfb44d,6437731470abd84e08e8bde2,2023-04-13_05h14.30.182,PRaM,2021.2.3,Win32,60.01680471,61b8f3437b89212fae0dfadf
6,2.7895,space,1.2231,0,156,156,51,1,,,60aad516e34718d318bfb44d,6437731470abd84e08e8bde2,2023-04-13_05h14.30.182,PRaM,2021.2.3,Win32,60.01680471,61b8f3437b89212fae0dfadf
2,5.112,space,3.4772,0,157,157,150,1,,,60aad516e34718d318bfb44d,6437731470abd84e08e8bde2,2023-04-13_05h14.30.182,PRaM,2021.2.3,Win32,60.01680471,61b8f3437b89212fae0dfadf
4,3.704,space,2.1061,0,158,158,45,1,,,60aad516e34718d318bfb44d,6437731470abd84e08e8bde2,2023-04-13_05h14.30.182,PRaM,2021.2.3,Win32,60.01680471,61b8f3437b89212fae0dfadf
4,2.6577,space,1.3633,0,159,159,6,1,,,60aad516e34718d318bfb44d,6437731470abd84e08e8bde2,2023-04-13_05h14.30.182,PRaM,2021.2.3,Win32,60.01680471,61b8f3437b89212fae0dfadf
5,2.7326,space,1.1716,0,160,160,328,1,,,60aad516e34718d318bfb44d,6437731470abd84e08e8bde2,2023-04-13_05h14.30.182,PRaM,2021.2.3,Win32,60.01680471,61b8f3437b89212fae0dfadf
4,2.7538,space,1.1754,0,161,161,149,1,,,60aad516e34718d318bfb44d,6437731470abd84e08e8bde2,2023-04-13_05h14.30.182,PRaM,2021.2.3,Win32,60.01680471,61b8f3437b89212fae0dfadf
2,5.7012,space,4.0509,0,162,162,369,1,,,60aad516e34718d318bfb44d,6437731470abd84e08e8bde2,2023-04-13_05h14.30.182,PRaM,2021.2.3,Win32,60.01680471,61b8f3437b89212fae0dfadf
2,2.4567,space,0.9966,0,163,163,96,1,,,60aad516e34718d318bfb44d,6437731470abd84e08e8bde2,2023-04-13_05h14.30.182,PRaM,2021.2.3,Win32,60.01680471,61b8f3437b89212fae0dfadf
7,3.1072,space,1.5504,0,164,164,325,1,,,60aad516e34718d318bfb44d,6437731470abd84e08e8bde2,2023-04-13_05h14.30.182,PRaM,2021.2.3,Win32,60.01680471,61b8f3437b89212fae0dfadf
7,1.908,space,0.3381,0,165,165,274,1,,,60aad516e34718d318bfb44d,6437731470abd84e08e8bde2,2023-04-13_05h14.30.182,PRaM,2021.2.3,Win32,60.01680471,61b8f3437b89212fae0dfadf
5,3.0428,space,1.3524,0,166,166,194,1,,,60aad516e34718d318bfb44d,6437731470abd84e08e8bde2,2023-04-13_05h14.30.182,PRaM,2021.2.3,Win32,60.01680471,61b8f3437b89212fae0dfadf
2,4.246,space,2.6313,0,167,167,370,1,,,60aad516e34718d318bfb44d,6437731470abd84e08e8bde2,2023-04-13_05h14.30.182,PRaM,2021.2.3,Win32,60.01680471,61b8f3437b89212fae0dfadf
2,2.443,space,0.9861,0,168,168,195,1,,,60aad516e34718d318bfb44d,6437731470abd84e08e8bde2,2023-04-13_05h14.30.182,PRaM,2021.2.3,Win32,60.01680471,61b8f3437b89212fae0dfadf
2,2.8511,space,1.4164,0,169,169,345,1,,,60aad516e34718d318bfb44d,6437731470abd84e08e8bde2,2023-04-13_05h14.30.182,PRaM,2021.2.3,Win32,60.01680471,61b8f3437b89212fae0dfadf
2,2.8475,space,1.419,0,170,170,122,1,,,60aad516e34718d318bfb44d,6437731470abd84e08e8bde2,2023-04-13_05h14.30.182,PRaM,2021.2.3,Win32,60.01680471,61b8f3437b89212fae0dfadf
3,2.852,space,1.4228,0,171,171,364,1,,,60aad516e34718d318bfb44d,6437731470abd84e08e8bde2,2023-04-13_05h14.30.182,PRaM,2021.2.3,Win32,60.01680471,61b8f3437b89212fae0dfadf
1,3.2513,space,1.551,0,172,172,77,1,,,60aad516e34718d318bfb44d,6437731470abd84e08e8bde2,2023-04-13_05h14.30.182,PRaM,2021.2.3,Win32,60.01680471,61b8f3437b89212fae0dfadf
2,3.6564,space,2.2552,0,173,173,365,1,,,60aad516e34718d318bfb44d,6437731470abd84e08e8bde2,2023-04-13_05h14.30.182,PRaM,2021.2.3,Win32,60.01680471,61b8f3437b89212fae0dfadf
2,1.9311,space,0.4898,0,174,174,157,1,,,60aad516e34718d318bfb44d,6437731470abd84e08e8bde2,2023-04-13_05h14.30.182,PRaM,2021.2.3,Win32,60.01680471,61b8f3437b89212fae0dfadf
3,2.7228,space,1.4434,0,175,175,198,1,,,60aad516e34718d318bfb44d,6437731470abd84e08e8bde2,2023-04-13_05h14.30.182,PRaM,2021.2.3,Win32,60.01680471,61b8f3437b89212fae0dfadf
2,2.6573,space,1.1686,0,176,176,184,1,,,60aad516e34718d318bfb44d,6437731470abd84e08e8bde2,2023-04-13_05h14.30.182,PRaM,2021.2.3,Win32,60.01680471,61b8f3437b89212fae0dfadf
4,7.309,space,5.8329,0,177,177,134,1,,,60aad516e34718d318bfb44d,6437731470abd84e08e8bde2,2023-04-13_05h14.30.182,PRaM,2021.2.3,Win32,60.01680471,61b8f3437b89212fae0dfadf
4,2.4134,space,0.8619,0,178,178,182,1,,,60aad516e34718d318bfb44d,6437731470abd84e08e8bde2,2023-04-13_05h14.30.182,PRaM,2021.2.3,Win32,60.01680471,61b8f3437b89212fae0dfadf
2,2.1924,space,0.7548,0,179,179,164,1,,,60aad516e34718d318bfb44d,6437731470abd84e08e8bde2,2023-04-13_05h14.30.182,PRaM,2021.2.3,Win32,60.01680471,61b8f3437b89212fae0dfadf
2,3.2337,space,1.865,0,180,180,180,1,,,60aad516e34718d318bfb44d,6437731470abd84e08e8bde2,2023-04-13_05h14.30.182,PRaM,2021.2.3,Win32,60.01680471,61b8f3437b89212fae0dfadf
2,2.4152,space,0.9708,0,181,181,335,1,,,60aad516e34718d318bfb44d,6437731470abd84e08e8bde2,2023-04-13_05h14.30.182,PRaM,2021.2.3,Win32,60.01680471,61b8f3437b89212fae0dfadf
2,3.2971,space,1.7893,0,182,182,32,1,,,60aad516e34718d318bfb44d,6437731470abd84e08e8bde2,2023-04-13_05h14.30.182,PRaM,2021.2.3,Win32,60.01680471,61b8f3437b89212fae0dfadf
2,3.3175,space,1.7858,0,183,183,235,1,,,60aad516e34718d318bfb44d,6437731470abd84e08e8bde2,2023-04-13_05h14.30.182,PRaM,2021.2.3,Win32,60.01680471,61b8f3437b89212fae0dfadf
2,2.7257,space,1.3609,0,184,184,300,1,,,60aad516e34718d318bfb44d,6437731470abd84e08e8bde2,2023-04-13_05h14.30.182,PRaM,2021.2.3,Win32,60.01680471,61b8f3437b89212fae0dfadf
3,4.1127,space,2.5164,0,185,185,273,1,,,60aad516e34718d318bfb44d,6437731470abd84e08e8bde2,2023-04-13_05h14.30.182,PRaM,2021.2.3,Win32,60.01680471,61b8f3437b89212fae0dfadf
2,3.1061,space,1.5201,0,186,186,362,1,,,60aad516e34718d318bfb44d,6437731470abd84e08e8bde2,2023-04-13_05h14.30.182,PRaM,2021.2.3,Win32,60.01680471,61b8f3437b89212fae0dfadf
2,2.4382,space,1.0355,0,187,187,78,1,,,60aad516e34718d318bfb44d,6437731470abd84e08e8bde2,2023-04-13_05h14.30.182,PRaM,2021.2.3,Win32,60.01680471,61b8f3437b89212fae0dfadf
2,2.4081,space,1.2181,0,188,188,46,1,,,60aad516e34718d318bfb44d,6437731470abd84e08e8bde2,2023-04-13_05h14.30.182,PRaM,2021.2.3,Win32,60.01680471,61b8f3437b89212fae0dfadf
2,10.3898,space,8.7879,0,189,189,203,1,,,60aad516e34718d318bfb44d,6437731470abd84e08e8bde2,2023-04-13_05h14.30.182,PRaM,2021.2.3,Win32,60.01680471,61b8f3437b89212fae0dfadf
2,4.4597,space,2.9835,0,190,190,154,1,,,60aad516e34718d318bfb44d,6437731470abd84e08e8bde2,2023-04-13_05h14.30.182,PRaM,2021.2.3,Win32,60.01680471,61b8f3437b89212fae0dfadf
3,2.259,space,0.661,0,191,191,62,1,,,60aad516e34718d318bfb44d,6437731470abd84e08e8bde2,2023-04-13_05h14.30.182,PRaM,2021.2.3,Win32,60.01680471,61b8f3437b89212fae0dfadf
2,2.436,space,0.8006,0,192,192,103,1,,,60aad516e34718d318bfb44d,6437731470abd84e08e8bde2,2023-04-13_05h14.30.182,PRaM,2021.2.3,Win32,60.01680471,61b8f3437b89212fae0dfadf
3,2.6984,space,1.1313,0,193,193,177,1,,,60aad516e34718d318bfb44d,6437731470abd84e08e8bde2,2023-04-13_05h14.30.182,PRaM,2021.2.3,Win32,60.01680471,61b8f3437b89212fae0dfadf
3,2.3827,space,0.8004,0,194,194,216,1,,,60aad516e34718d318bfb44d,6437731470abd84e08e8bde2,2023-04-13_05h14.30.182,PRaM,2021.2.3,Win32,60.01680471,61b8f3437b89212fae0dfadf
2,1.9649,space,0.7584,0,195,195,359,1,,,60aad516e34718d318bfb44d,6437731470abd84e08e8bde2,2023-04-13_05h14.30.182,PRaM,2021.2.3,Win32,60.01680471,61b8f3437b89212fae0dfadf
1,3.6763,space,1.9651,0,196,196,332,1,,,60aad516e34718d318bfb44d,6437731470abd84e08e8bde2,2023-04-13_05h14.30.182,PRaM,2021.2.3,Win32,60.01680471,61b8f3437b89212fae0dfadf
2,3.6511,space,2.0987,0,197,197,202,1,,,60aad516e34718d318bfb44d,6437731470abd84e08e8bde2,2023-04-13_05h14.30.182,PRaM,2021.2.3,Win32,60.01680471,61b8f3437b89212fae0dfadf
2,1.8336,space,0.3102,0,198,198,344,1,,,60aad516e34718d318bfb44d,6437731470abd84e08e8bde2,2023-04-13_05h14.30.182,PRaM,2021.2.3,Win32,60.01680471,61b8f3437b89212fae0dfadf
4,4.7283,space,3.1301,0,199,199,366,1,,,60aad516e34718d318bfb44d,6437731470abd84e08e8bde2,2023-04-13_05h14.30.182,PRaM,2021.2.3,Win32,60.01680471,61b8f3437b89212fae0dfadf
5,4.4725,space,2.9799,0,200,200,119,1,,,60aad516e34718d318bfb44d,6437731470abd84e08e8bde2,2023-04-13_05h14.30.182,PRaM,2021.2.3,Win32,60.01680471,61b8f3437b89212fae0dfadf
6,1.9498,space,0.346,0,201,201,276,1,,,60aad516e34718d318bfb44d,6437731470abd84e08e8bde2,2023-04-13_05h14.30.182,PRaM,2021.2.3,Win32,60.01680471,61b8f3437b89212fae0dfadf
5,2.6094,space,0.9348,0,202,202,120,1,,,60aad516e34718d318bfb44d,6437731470abd84e08e8bde2,2023-04-13_05h14.30.182,PRaM,2021.2.3,Win32,60.01680471,61b8f3437b89212fae0dfadf
2,2.9049,space,1.1687,0,203,203,35,1,,,60aad516e34718d318bfb44d,6437731470abd84e08e8bde2,2023-04-13_05h14.30.182,PRaM,2021.2.3,Win32,60.01680471,61b8f3437b89212fae0dfadf
2,2.3235,space,0.7518,0,204,204,82,1,,,60aad516e34718d318bfb44d,6437731470abd84e08e8bde2,2023-04-13_05h14.30.182,PRaM,2021.2.3,Win32,60.01680471,61b8f3437b89212fae0dfadf
7,3.7134,space,2.0334,0,205,205,42,1,,,60aad516e34718d318bfb44d,6437731470abd84e08e8bde2,2023-04-13_05h14.30.182,PRaM,2021.2.3,Win32,60.01680471,61b8f3437b89212fae0dfadf
2,2.4416,space,0.9764,0,206,206,70,1,,,60aad516e34718d318bfb44d,6437731470abd84e08e8bde2,2023-04-13_05h14.30.182,PRaM,2021.2.3,Win32,60.01680471,61b8f3437b89212fae0dfadf
2,2.2953,space,0.6474,0,207,207,373,1,,,60aad516e34718d318bfb44d,6437731470abd84e08e8bde2,2023-04-13_05h14.30.182,PRaM,2021.2.3,Win32,60.01680471,61b8f3437b89212fae0dfadf
2,2.3687,space,0.7029,0,208,208,68,1,,,60aad516e34718d318bfb44d,6437731470abd84e08e8bde2,2023-04-13_05h14.30.182,PRaM,2021.2.3,Win32,60.01680471,61b8f3437b89212fae0dfadf
3,2.6795,space,0.984,0,209,209,294,1,,,60aad516e34718d318bfb44d,6437731470abd84e08e8bde2,2023-04-13_05h14.30.182,PRaM,2021.2.3,Win32,60.01680471,61b8f3437b89212fae0dfadf
5,2.1375,space,0.4518,0,210,210,136,1,,,60aad516e34718d318bfb44d,6437731470abd84e08e8bde2,2023-04-13_05h14.30.182,PRaM,2021.2.3,Win32,60.01680471,61b8f3437b89212fae0dfadf
3,2.205,space,0.6213,0,211,211,153,1,,,60aad516e34718d318bfb44d,6437731470abd84e08e8bde2,2023-04-13_05h14.30.182,PRaM,2021.2.3,Win32,60.01680471,61b8f3437b89212fae0dfadf
3,3.7819,space,2.4736,0,212,212,315,1,,,60aad516e34718d318bfb44d,6437731470abd84e08e8bde2,2023-04-13_05h14.30.182,PRaM,2021.2.3,Win32,60.01680471,61b8f3437b89212fae0dfadf
2,1.8836,space,0.1794,0,213,213,330,1,,,60aad516e34718d318bfb44d,6437731470abd84e08e8bde2,2023-04-13_05h14.30.182,PRaM,2021.2.3,Win32,60.01680471,61b8f3437b89212fae0dfadf
2,1.7432,space,0.0408,0,214,214,326,1,,,60aad516e34718d318bfb44d,6437731470abd84e08e8bde2,2023-04-13_05h14.30.182,PRaM,2021.2.3,Win32,60.01680471,61b8f3437b89212fae0dfadf
2,5.6892,space,4.0942,0,215,215,189,1,,,60aad516e34718d318bfb44d,6437731470abd84e08e8bde2,2023-04-13_05h14.30.182,PRaM,2021.2.3,Win32,60.01680471,61b8f3437b89212fae0dfadf
2,2.3131,space,0.7485,0,216,216,106,1,,,60aad516e34718d318bfb44d,6437731470abd84e08e8bde2,2023-04-13_05h14.30.182,PRaM,2021.2.3,Win32,60.01680471,61b8f3437b89212fae0dfadf
4,2.8795,space,1.5526,0,217,217,348,1,,,60aad516e34718d318bfb44d,6437731470abd84e08e8bde2,2023-04-13_05h14.30.182,PRaM,2021.2.3,Win32,60.01680471,61b8f3437b89212fae0dfadf
4,2.413,space,1.0333,0,218,218,306,1,,,60aad516e34718d318bfb44d,6437731470abd84e08e8bde2,2023-04-13_05h14.30.182,PRaM,2021.2.3,Win32,60.01680471,61b8f3437b89212fae0dfadf
3,2.603,space,0.8532,0,219,219,255,1,,,60aad516e34718d318bfb44d,6437731470abd84e08e8bde2,2023-04-13_05h14.30.182,PRaM,2021.2.3,Win32,60.01680471,61b8f3437b89212fae0dfadf
2,2.3602,space,0.7525,0,220,220,360,1,,,60aad516e34718d318bfb44d,6437731470abd84e08e8bde2,2023-04-13_05h14.30.182,PRaM,2021.2.3,Win32,60.01680471,61b8f3437b89212fae0dfadf
2,2.0191,space,0.4893,0,221,221,251,1,,,60aad516e34718d318bfb44d,6437731470abd84e08e8bde2,2023-04-13_05h14.30.182,PRaM,2021.2.3,Win32,60.01680471,61b8f3437b89212fae0dfadf
2,1.7985,space,0.4172,0,222,222,87,1,,,60aad516e34718d318bfb44d,6437731470abd84e08e8bde2,2023-04-13_05h14.30.182,PRaM,2021.2.3,Win32,60.01680471,61b8f3437b89212fae0dfadf
2,1.9516,space,0.3957,0,223,223,179,1,,,60aad516e34718d318bfb44d,6437731470abd84e08e8bde2,2023-04-13_05h14.30.182,PRaM,2021.2.3,Win32,60.01680471,61b8f3437b89212fae0dfadf
2,9.2713,space,7.6901,0,224,224,269,1,,,60aad516e34718d318bfb44d,6437731470abd84e08e8bde2,2023-04-13_05h14.30.182,PRaM,2021.2.3,Win32,60.01680471,61b8f3437b89212fae0dfadf
7,2.1547,space,0.4542,0,225,225,323,1,,,60aad516e34718d318bfb44d,6437731470abd84e08e8bde2,2023-04-13_05h14.30.182,PRaM,2021.2.3,Win32,60.01680471,61b8f3437b89212fae0dfadf
5,2.845,space,1.269,0,226,226,64,1,,,60aad516e34718d318bfb44d,6437731470abd84e08e8bde2,2023-04-13_05h14.30.182,PRaM,2021.2.3,Win32,60.01680471,61b8f3437b89212fae0dfadf
5,2.2391,space,0.7304,0,227,227,166,1,,,60aad516e34718d318bfb44d,6437731470abd84e08e8bde2,2023-04-13_05h14.30.182,PRaM,2021.2.3,Win32,60.01680471,61b8f3437b89212fae0dfadf
2,2.3006,space,0.7369,0,228,228,214,1,,,60aad516e34718d318bfb44d,6437731470abd84e08e8bde2,2023-04-13_05h14.30.182,PRaM,2021.2.3,Win32,60.01680471,61b8f3437b89212fae0dfadf
2,2.4167,space,0.9702,0,229,229,18,1,,,60aad516e34718d318bfb44d,6437731470abd84e08e8bde2,2023-04-13_05h14.30.182,PRaM,2021.2.3,Win32,60.01680471,61b8f3437b89212fae0dfadf
2,3.2773,space,1.6496,0,230,230,14,1,,,60aad516e34718d318bfb44d,6437731470abd84e08e8bde2,2023-04-13_05h14.30.182,PRaM,2021.2.3,Win32,60.01680471,61b8f3437b89212fae0dfadf
2,2.562,space,1.2307,0,231,231,215,1,,,60aad516e34718d318bfb44d,6437731470abd84e08e8bde2,2023-04-13_05h14.30.182,PRaM,2021.2.3,Win32,60.01680471,61b8f3437b89212fae0dfadf
2,2.0805,space,0.5173,0,232,232,1,1,,,60aad516e34718d318bfb44d,6437731470abd84e08e8bde2,2023-04-13_05h14.30.182,PRaM,2021.2.3,Win32,60.01680471,61b8f3437b89212fae0dfadf
5,2.9993,space,1.33,0,233,233,66,1,,,60aad516e34718d318bfb44d,6437731470abd84e08e8bde2,2023-04-13_05h14.30.182,PRaM,2021.2.3,Win32,60.01680471,61b8f3437b89212fae0dfadf
2,2.3504,space,0.7649,0,234,234,41,1,,,60aad516e34718d318bfb44d,6437731470abd84e08e8bde2,2023-04-13_05h14.30.182,PRaM,2021.2.3,Win32,60.01680471,61b8f3437b89212fae0dfadf
2,2.2575,space,0.6788,0,235,235,260,1,,,60aad516e34718d318bfb44d,6437731470abd84e08e8bde2,2023-04-13_05h14.30.182,PRaM,2021.2.3,Win32,60.01680471,61b8f3437b89212fae0dfadf
4,2.3348,space,0.7603,0,236,236,75,1,,,60aad516e34718d318bfb44d,6437731470abd84e08e8bde2,2023-04-13_05h14.30.182,PRaM,2021.2.3,Win32,60.01680471,61b8f3437b89212fae0dfadf
2,2.8129,space,1.1707,0,237,237,128,1,,,60aad516e34718d318bfb44d,6437731470abd84e08e8bde2,2023-04-13_05h14.30.182,PRaM,2021.2.3,Win32,60.01680471,61b8f3437b89212fae0dfadf
3,2.7722,space,1.0784,0,238,238,270,1,,,60aad516e34718d318bfb44d,6437731470abd84e08e8bde2,2023-04-13_05h14.30.182,PRaM,2021.2.3,Win32,60.01680471,61b8f3437b89212fae0dfadf
2,3.1464,space,1.5691,0,239,239,54,1,,,60aad516e34718d318bfb44d,6437731470abd84e08e8bde2,2023-04-13_05h14.30.182,PRaM,2021.2.3,Win32,60.01680471,61b8f3437b89212fae0dfadf
1,3.2019,space,1.3418,0,240,240,206,1,,,60aad516e34718d318bfb44d,6437731470abd84e08e8bde2,2023-04-13_05h14.30.182,PRaM,2021.2.3,Win32,60.01680471,61b8f3437b89212fae0dfadf
1,3.7292,space,1.9704,0,241,241,92,1,,,60aad516e34718d318bfb44d,6437731470abd84e08e8bde2,2023-04-13_05h14.30.182,PRaM,2021.2.3,Win32,60.01680471,61b8f3437b89212fae0dfadf
4,3.0386,space,1.7374,0,242,242,25,1,,,60aad516e34718d318bfb44d,6437731470abd84e08e8bde2,2023-04-13_05h14.30.182,PRaM,2021.2.3,Win32,60.01680471,61b8f3437b89212fae0dfadf
1,2.2237,space,0.681,0,243,243,329,1,,,60aad516e34718d318bfb44d,6437731470abd84e08e8bde2,2023-04-13_05h14.30.182,PRaM,2021.2.3,Win32,60.01680471,61b8f3437b89212fae0dfadf
1,1.913,space,0.4438,0,244,244,286,1,,,60aad516e34718d318bfb44d,6437731470abd84e08e8bde2,2023-04-13_05h14.30.182,PRaM,2021.2.3,Win32,60.01680471,61b8f3437b89212fae0dfadf
3,2.2472,space,0.6452,0,245,245,208,1,,,60aad516e34718d318bfb44d,6437731470abd84e08e8bde2,2023-04-13_05h14.30.182,PRaM,2021.2.3,Win32,60.01680471,61b8f3437b89212fae0dfadf
1,2.1373,space,0.4997,0,246,246,79,1,,,60aad516e34718d318bfb44d,6437731470abd84e08e8bde2,2023-04-13_05h14.30.182,PRaM,2021.2.3,Win32,60.01680471,61b8f3437b89212fae0dfadf
4,3.034,space,1.4702,0,247,247,307,1,,,60aad516e34718d318bfb44d,6437731470abd84e08e8bde2,2023-04-13_05h14.30.182,PRaM,2021.2.3,Win32,60.01680471,61b8f3437b89212fae0dfadf
5,1.9594,space,0.5596,0,248,248,351,1,,,60aad516e34718d318bfb44d,6437731470abd84e08e8bde2,2023-04-13_05h14.30.182,PRaM,2021.2.3,Win32,60.01680471,61b8f3437b89212fae0dfadf
6,2.2978,space,0.6176,0,249,249,137,1,,,60aad516e34718d318bfb44d,6437731470abd84e08e8bde2,2023-04-13_05h14.30.182,PRaM,2021.2.3,Win32,60.01680471,61b8f3437b89212fae0dfadf
2,2.0491,space,0.7373,0,250,250,95,1,,,60aad516e34718d318bfb44d,6437731470abd84e08e8bde2,2023-04-13_05h14.30.182,PRaM,2021.2.3,Win32,60.01680471,61b8f3437b89212fae0dfadf
2,2.6417,space,1.0011,0,251,251,303,1,,,60aad516e34718d318bfb44d,6437731470abd84e08e8bde2,2023-04-13_05h14.30.182,PRaM,2021.2.3,Win32,60.01680471,61b8f3437b89212fae0dfadf
2,1.6115,space,0.0517,0,252,252,247,1,,,60aad516e34718d318bfb44d,6437731470abd84e08e8bde2,2023-04-13_05h14.30.182,PRaM,2021.2.3,Win32,60.01680471,61b8f3437b89212fae0dfadf
5,2.9923,space,1.3693,0,253,253,53,1,,,60aad516e34718d318bfb44d,6437731470abd84e08e8bde2,2023-04-13_05h14.30.182,PRaM,2021.2.3,Win32,60.01680471,61b8f3437b89212fae0dfadf
5,2.2329,space,0.5179,0,254,254,132,1,,,60aad516e34718d318bfb44d,6437731470abd84e08e8bde2,2023-04-13_05h14.30.182,PRaM,2021.2.3,Win32,60.01680471,61b8f3437b89212fae0dfadf
6,2.1683,space,0.7175,0,255,255,355,1,,,60aad516e34718d318bfb44d,6437731470abd84e08e8bde2,2023-04-13_05h14.30.182,PRaM,2021.2.3,Win32,60.01680471,61b8f3437b89212fae0dfadf
2,2.2973,space,0.6161,0,256,256,111,1,,,60aad516e34718d318bfb44d,6437731470abd84e08e8bde2,2023-04-13_05h14.30.182,PRaM,2021.2.3,Win32,60.01680471,61b8f3437b89212fae0dfadf
3,2.8998,space,1.1735,0,257,257,256,1,,,60aad516e34718d318bfb44d,6437731470abd84e08e8bde2,2023-04-13_05h14.30.182,PRaM,2021.2.3,Win32,60.01680471,61b8f3437b89212fae0dfadf
4,2.7331,space,1.0468,0,258,258,3,1,,,60aad516e34718d318bfb44d,6437731470abd84e08e8bde2,2023-04-13_05h14.30.182,PRaM,2021.2.3,Win32,60.01680471,61b8f3437b89212fae0dfadf
2,2.2386,space,0.6186,0,259,259,312,1,,,60aad516e34718d318bfb44d,6437731470abd84e08e8bde2,2023-04-13_05h14.30.182,PRaM,2021.2.3,Win32,60.01680471,61b8f3437b89212fae0dfadf
3,2.7632,space,1.0681,0,260,260,151,1,,,60aad516e34718d318bfb44d,6437731470abd84e08e8bde2,2023-04-13_05h14.30.182,PRaM,2021.2.3,Win32,60.01680471,61b8f3437b89212fae0dfadf
2,2.9794,space,1.5521,0,261,261,324,1,,,60aad516e34718d318bfb44d,6437731470abd84e08e8bde2,2023-04-13_05h14.30.182,PRaM,2021.2.3,Win32,60.01680471,61b8f3437b89212fae0dfadf
6,3.1855,space,1.4972,0,262,262,38,1,,,60aad516e34718d318bfb44d,6437731470abd84e08e8bde2,2023-04-13_05h14.30.182,PRaM,2021.2.3,Win32,60.01680471,61b8f3437b89212fae0dfadf
5,2.274,space,0.6612,0,263,263,320,1,,,60aad516e34718d318bfb44d,6437731470abd84e08e8bde2,2023-04-13_05h14.30.182,PRaM,2021.2.3,Win32,60.01680471,61b8f3437b89212fae0dfadf
6,3.2681,space,1.52,0,264,264,105,1,,,60aad516e34718d318bfb44d,6437731470abd84e08e8bde2,2023-04-13_05h14.30.182,PRaM,2021.2.3,Win32,60.01680471,61b8f3437b89212fae0dfadf
4,2.908,space,1.1938,0,265,265,29,1,,,60aad516e34718d318bfb44d,6437731470abd84e08e8bde2,2023-04-13_05h14.30.182,PRaM,2021.2.3,Win32,60.01680471,61b8f3437b89212fae0dfadf
5,3.9502,space,2.4037,0,266,266,225,1,,,60aad516e34718d318bfb44d,6437731470abd84e08e8bde2,2023-04-13_05h14.30.182,PRaM,2021.2.3,Win32,60.01680471,61b8f3437b89212fae0dfadf
2,4.0205,space,2.3152,0,267,267,283,1,,,60aad516e34718d318bfb44d,6437731470abd84e08e8bde2,2023-04-13_05h14.30.182,PRaM,2021.2.3,Win32,60.01680471,61b8f3437b89212fae0dfadf
2,3.2898,space,1.6489,0,268,268,97,1,,,60aad516e34718d318bfb44d,6437731470abd84e08e8bde2,2023-04-13_05h14.30.182,PRaM,2021.2.3,Win32,60.01680471,61b8f3437b89212fae0dfadf
2,3.3622,space,1.7155,0,269,269,239,1,,,60aad516e34718d318bfb44d,6437731470abd84e08e8bde2,2023-04-13_05h14.30.182,PRaM,2021.2.3,Win32,60.01680471,61b8f3437b89212fae0dfadf
4,3.054,space,1.3992,0,270,270,85,1,,,60aad516e34718d318bfb44d,6437731470abd84e08e8bde2,2023-04-13_05h14.30.182,PRaM,2021.2.3,Win32,60.01680471,61b8f3437b89212fae0dfadf
3,2.6591,space,0.9838,0,271,271,20,1,,,60aad516e34718d318bfb44d,6437731470abd84e08e8bde2,2023-04-13_05h14.30.182,PRaM,2021.2.3,Win32,60.01680471,61b8f3437b89212fae0dfadf
2,2.5444,space,0.8996,0,272,272,93,1,,,60aad516e34718d318bfb44d,6437731470abd84e08e8bde2,2023-04-13_05h14.30.182,PRaM,2021.2.3,Win32,60.01680471,61b8f3437b89212fae0dfadf
5,2.4183,space,0.9375,0,273,273,16,1,,,60aad516e34718d318bfb44d,6437731470abd84e08e8bde2,2023-04-13_05h14.30.182,PRaM,2021.2.3,Win32,60.01680471,61b8f3437b89212fae0dfadf
8,2.6799,space,1.1206,0,274,274,279,1,,,60aad516e34718d318bfb44d,6437731470abd84e08e8bde2,2023-04-13_05h14.30.182,PRaM,2021.2.3,Win32,60.01680471,61b8f3437b89212fae0dfadf
1,2.3596,space,0.7819,0,275,275,341,1,,,60aad516e34718d318bfb44d,6437731470abd84e08e8bde2,2023-04-13_05h14.30.182,PRaM,2021.2.3,Win32,60.01680471,61b8f3437b89212fae0dfadf
2,1.7726,space,0.134,0,276,276,343,1,,,60aad516e34718d318bfb44d,6437731470abd84e08e8bde2,2023-04-13_05h14.30.182,PRaM,2021.2.3,Win32,60.01680471,61b8f3437b89212fae0dfadf
5,2.6802,space,0.9856,0,277,277,110,1,,,60aad516e34718d318bfb44d,6437731470abd84e08e8bde2,2023-04-13_05h14.30.182,PRaM,2021.2.3,Win32,60.01680471,61b8f3437b89212fae0dfadf
2,2.3428,space,0.6754,0,278,278,318,1,,,60aad516e34718d318bfb44d,6437731470abd84e08e8bde2,2023-04-13_05h14.30.182,PRaM,2021.2.3,Win32,60.01680471,61b8f3437b89212fae0dfadf
3,2.9686,space,1.2855,0,279,279,83,1,,,60aad516e34718d318bfb44d,6437731470abd84e08e8bde2,2023-04-13_05h14.30.182,PRaM,2021.2.3,Win32,60.01680471,61b8f3437b89212fae0dfadf
3,2.6099,space,1.0365,0,280,280,147,1,,,60aad516e34718d318bfb44d,6437731470abd84e08e8bde2,2023-04-13_05h14.30.182,PRaM,2021.2.3,Win32,60.01680471,61b8f3437b89212fae0dfadf
4,2.522,space,0.9001,0,281,281,19,1,,,60aad516e34718d318bfb44d,6437731470abd84e08e8bde2,2023-04-13_05h14.30.182,PRaM,2021.2.3,Win32,60.01680471,61b8f3437b89212fae0dfadf
6,2.3114,space,0.7492,0,282,282,196,1,,,60aad516e34718d318bfb44d,6437731470abd84e08e8bde2,2023-04-13_05h14.30.182,PRaM,2021.2.3,Win32,60.01680471,61b8f3437b89212fae0dfadf
2,2.1353,space,0.4164,0,283,283,338,1,,,60aad516e34718d318bfb44d,6437731470abd84e08e8bde2,2023-04-13_05h14.30.182,PRaM,2021.2.3,Win32,60.01680471,61b8f3437b89212fae0dfadf
2,2.5105,space,0.8572,0,284,284,148,1,,,60aad516e34718d318bfb44d,6437731470abd84e08e8bde2,2023-04-13_05h14.30.182,PRaM,2021.2.3,Win32,60.01680471,61b8f3437b89212fae0dfadf
3,2.3565,space,0.9846,0,285,285,123,1,,,60aad516e34718d318bfb44d,6437731470abd84e08e8bde2,2023-04-13_05h14.30.182,PRaM,2021.2.3,Win32,60.01680471,61b8f3437b89212fae0dfadf
6,2.3318,space,1.0636,0,286,286,197,1,,,60aad516e34718d318bfb44d,6437731470abd84e08e8bde2,2023-04-13_05h14.30.182,PRaM,2021.2.3,Win32,60.01680471,61b8f3437b89212fae0dfadf
5,2.6608,space,1.0164,0,287,287,142,1,,,60aad516e34718d318bfb44d,6437731470abd84e08e8bde2,2023-04-13_05h14.30.182,PRaM,2021.2.3,Win32,60.01680471,61b8f3437b89212fae0dfadf
5,2.2886,space,0.5663,0,288,288,114,1,,,60aad516e34718d318bfb44d,6437731470abd84e08e8bde2,2023-04-13_05h14.30.182,PRaM,2021.2.3,Win32,60.01680471,61b8f3437b89212fae0dfadf
4,3.2441,space,1.5298,0,289,289,4,1,,,60aad516e34718d318bfb44d,6437731470abd84e08e8bde2,2023-04-13_05h14.30.182,PRaM,2021.2.3,Win32,60.01680471,61b8f3437b89212fae0dfadf
3,3.0682,space,1.4985,0,290,290,30,1,,,60aad516e34718d318bfb44d,6437731470abd84e08e8bde2,2023-04-13_05h14.30.182,PRaM,2021.2.3,Win32,60.01680471,61b8f3437b89212fae0dfadf
1,2.7154,space,1.1232,0,291,291,322,1,,,60aad516e34718d318bfb44d,6437731470abd84e08e8bde2,2023-04-13_05h14.30.182,PRaM,2021.2.3,Win32,60.01680471,61b8f3437b89212fae0dfadf
2,2.6061,space,0.9704,0,292,292,231,1,,,60aad516e34718d318bfb44d,6437731470abd84e08e8bde2,2023-04-13_05h14.30.182,PRaM,2021.2.3,Win32,60.01680471,61b8f3437b89212fae0dfadf
2,4.9201,space,3.5318,0,293,293,242,1,,,60aad516e34718d318bfb44d,6437731470abd84e08e8bde2,2023-04-13_05h14.30.182,PRaM,2021.2.3,Win32,60.01680471,61b8f3437b89212fae0dfadf
2,2.9949,space,1.5019,0,294,294,282,1,,,60aad516e34718d318bfb44d,6437731470abd84e08e8bde2,2023-04-13_05h14.30.182,PRaM,2021.2.3,Win32,60.01680471,61b8f3437b89212fae0dfadf
2,1.7245,space,0.1939,0,295,295,185,1,,,60aad516e34718d318bfb44d,6437731470abd84e08e8bde2,2023-04-13_05h14.30.182,PRaM,2021.2.3,Win32,60.01680471,61b8f3437b89212fae0dfadf
2,3.7768,space,2.2398,0,296,296,262,1,,,60aad516e34718d318bfb44d,6437731470abd84e08e8bde2,2023-04-13_05h14.30.182,PRaM,2021.2.3,Win32,60.01680471,61b8f3437b89212fae0dfadf
2,1.9088,space,0.4497,0,297,297,158,1,,,60aad516e34718d318bfb44d,6437731470abd84e08e8bde2,2023-04-13_05h14.30.182,PRaM,2021.2.3,Win32,60.01680471,61b8f3437b89212fae0dfadf
3,2.5088,space,1.0858,0,298,298,69,1,,,60aad516e34718d318bfb44d,6437731470abd84e08e8bde2,2023-04-13_05h14.30.182,PRaM,2021.2.3,Win32,60.01680471,61b8f3437b89212fae0dfadf
3,1.73,space,0.102,0,299,299,319,1,,,60aad516e34718d318bfb44d,6437731470abd84e08e8bde2,2023-04-13_05h14.30.182,PRaM,2021.2.3,Win32,60.01680471,61b8f3437b89212fae0dfadf
3,1.9247,space,0.2516,0,300,300,213,1,,,60aad516e34718d318bfb44d,6437731470abd84e08e8bde2,2023-04-13_05h14.30.182,PRaM,2021.2.3,Win32,60.01680471,61b8f3437b89212fae0dfadf
2,2.546,space,0.8008,0,301,301,261,1,,,60aad516e34718d318bfb44d,6437731470abd84e08e8bde2,2023-04-13_05h14.30.182,PRaM,2021.2.3,Win32,60.01680471,61b8f3437b89212fae0dfadf
4,2.7046,space,1.008,0,302,302,278,1,,,60aad516e34718d318bfb44d,6437731470abd84e08e8bde2,2023-04-13_05h14.30.182,PRaM,2021.2.3,Win32,60.01680471,61b8f3437b89212fae0dfadf
2,2.8366,space,1.221,0,303,303,372,1,,,60aad516e34718d318bfb44d,6437731470abd84e08e8bde2,2023-04-13_05h14.30.182,PRaM,2021.2.3,Win32,60.01680471,61b8f3437b89212fae0dfadf
2,2.4316,space,0.8171,0,304,304,243,1,,,60aad516e34718d318bfb44d,6437731470abd84e08e8bde2,2023-04-13_05h14.30.182,PRaM,2021.2.3,Win32,60.01680471,61b8f3437b89212fae0dfadf
1,2.7636,space,1.3325,0,305,305,374,1,,,60aad516e34718d318bfb44d,6437731470abd84e08e8bde2,2023-04-13_05h14.30.182,PRaM,2021.2.3,Win32,60.01680471,61b8f3437b89212fae0dfadf
2,3.2269,space,1.6358,0,306,306,86,1,,,60aad516e34718d318bfb44d,6437731470abd84e08e8bde2,2023-04-13_05h14.30.182,PRaM,2021.2.3,Win32,60.01680471,61b8f3437b89212fae0dfadf
4,2.0873,space,0.6829,0,307,307,33,1,,,60aad516e34718d318bfb44d,6437731470abd84e08e8bde2,2023-04-13_05h14.30.182,PRaM,2021.2.3,Win32,60.01680471,61b8f3437b89212fae0dfadf
2,2.2674,space,0.705,0,308,308,210,1,,,60aad516e34718d318bfb44d,6437731470abd84e08e8bde2,2023-04-13_05h14.30.182,PRaM,2021.2.3,Win32,60.01680471,61b8f3437b89212fae0dfadf
2,2.1333,space,0.5853,0,309,309,234,1,,,60aad516e34718d318bfb44d,6437731470abd84e08e8bde2,2023-04-13_05h14.30.182,PRaM,2021.2.3,Win32,60.01680471,61b8f3437b89212fae0dfadf
2,1.5127,space,1.7888,0,310,310,160,1,,,60aad516e34718d318bfb44d,6437731470abd84e08e8bde2,2023-04-13_05h14.30.182,PRaM,2021.2.3,Win32,60.01680471,61b8f3437b89212fae0dfadf
2,1.9174,space,0.2326,0,311,311,236,1,,,60aad516e34718d318bfb44d,6437731470abd84e08e8bde2,2023-04-13_05h14.30.182,PRaM,2021.2.3,Win32,60.01680471,61b8f3437b89212fae0dfadf
2,1.847,space,1.1351,0,312,312,249,1,,,60aad516e34718d318bfb44d,6437731470abd84e08e8bde2,2023-04-13_05h14.30.182,PRaM,2021.2.3,Win32,60.01680471,61b8f3437b89212fae0dfadf
2,3.4222,space,1.7832,0,313,313,144,1,,,60aad516e34718d318bfb44d,6437731470abd84e08e8bde2,2023-04-13_05h14.30.182,PRaM,2021.2.3,Win32,60.01680471,61b8f3437b89212fae0dfadf
6,4.0571,space,2.4159,0,314,314,102,1,,,60aad516e34718d318bfb44d,6437731470abd84e08e8bde2,2023-04-13_05h14.30.182,PRaM,2021.2.3,Win32,60.01680471,61b8f3437b89212fae0dfadf
6,2.0002,space,0.3029,0,315,315,192,1,,,60aad516e34718d318bfb44d,6437731470abd84e08e8bde2,2023-04-13_05h14.30.182,PRaM,2021.2.3,Win32,60.01680471,61b8f3437b89212fae0dfadf
3,1.839,space,0.1509,0,316,316,204,1,,,60aad516e34718d318bfb44d,6437731470abd84e08e8bde2,2023-04-13_05h14.30.182,PRaM,2021.2.3,Win32,60.01680471,61b8f3437b89212fae0dfadf
2,2.3189,space,0.6539,0,317,317,221,1,,,60aad516e34718d318bfb44d,6437731470abd84e08e8bde2,2023-04-13_05h14.30.182,PRaM,2021.2.3,Win32,60.01680471,61b8f3437b89212fae0dfadf
2,3.0606,space,1.4069,0,318,318,265,1,,,60aad516e34718d318bfb44d,6437731470abd84e08e8bde2,2023-04-13_05h14.30.182,PRaM,2021.2.3,Win32,60.01680471,61b8f3437b89212fae0dfadf
2,3.0834,space,2.6714,0,319,319,109,1,,,60aad516e34718d318bfb44d,6437731470abd84e08e8bde2,2023-04-13_05h14.30.182,PRaM,2021.2.3,Win32,60.01680471,61b8f3437b89212fae0dfadf
2,2.5851,space,0.887,0,320,320,50,1,,,60aad516e34718d318bfb44d,6437731470abd84e08e8bde2,2023-04-13_05h14.30.182,PRaM,2021.2.3,Win32,60.01680471,61b8f3437b89212fae0dfadf
4,2.1853,space,0.5718,0,321,321,21,1,,,60aad516e34718d318bfb44d,6437731470abd84e08e8bde2,2023-04-13_05h14.30.182,PRaM,2021.2.3,Win32,60.01680471,61b8f3437b89212fae0dfadf
3,4.633,space,2.9662,0,322,322,228,1,,,60aad516e34718d318bfb44d,6437731470abd84e08e8bde2,2023-04-13_05h14.30.182,PRaM,2021.2.3,Win32,60.01680471,61b8f3437b89212fae0dfadf
3,2.1536,space,0.4556,0,323,323,173,1,,,60aad516e34718d318bfb44d,6437731470abd84e08e8bde2,2023-04-13_05h14.30.182,PRaM,2021.2.3,Win32,60.01680471,61b8f3437b89212fae0dfadf
3,2.7577,space,0.9064,0,324,324,350,1,,,60aad516e34718d318bfb44d,6437731470abd84e08e8bde2,2023-04-13_05h14.30.182,PRaM,2021.2.3,Win32,60.01680471,61b8f3437b89212fae0dfadf
2,2.3915,space,0.6738,0,325,325,104,1,,,60aad516e34718d318bfb44d,6437731470abd84e08e8bde2,2023-04-13_05h14.30.182,PRaM,2021.2.3,Win32,60.01680471,61b8f3437b89212fae0dfadf
2,1.7647,space,0.0842,0,326,326,275,1,,,60aad516e34718d318bfb44d,6437731470abd84e08e8bde2,2023-04-13_05h14.30.182,PRaM,2021.2.3,Win32,60.01680471,61b8f3437b89212fae0dfadf
2,1.5922,space,0.1095,0,327,327,121,1,,,60aad516e34718d318bfb44d,6437731470abd84e08e8bde2,2023-04-13_05h14.30.182,PRaM,2021.2.3,Win32,60.01680471,61b8f3437b89212fae0dfadf
2,2.0006,space,0.3234,0,328,328,143,1,,,60aad516e34718d318bfb44d,6437731470abd84e08e8bde2,2023-04-13_05h14.30.182,PRaM,2021.2.3,Win32,60.01680471,61b8f3437b89212fae0dfadf
2,1.949,space,0.5019,0,329,329,108,1,,,60aad516e34718d318bfb44d,6437731470abd84e08e8bde2,2023-04-13_05h14.30.182,PRaM,2021.2.3,Win32,60.01680471,61b8f3437b89212fae0dfadf
2,2.5849,space,1.1021,0,330,330,368,1,,,60aad516e34718d318bfb44d,6437731470abd84e08e8bde2,2023-04-13_05h14.30.182,PRaM,2021.2.3,Win32,60.01680471,61b8f3437b89212fae0dfadf
4,2.2928,space,0.6695,0,331,331,244,1,,,60aad516e34718d318bfb44d,6437731470abd84e08e8bde2,2023-04-13_05h14.30.182,PRaM,2021.2.3,Win32,60.01680471,61b8f3437b89212fae0dfadf
2,2.3101,space,0.6012,0,332,332,308,1,,,60aad516e34718d318bfb44d,6437731470abd84e08e8bde2,2023-04-13_05h14.30.182,PRaM,2021.2.3,Win32,60.01680471,61b8f3437b89212fae0dfadf
3,2.6796,space,0.9999,0,333,333,47,1,,,60aad516e34718d318bfb44d,6437731470abd84e08e8bde2,2023-04-13_05h14.30.182,PRaM,2021.2.3,Win32,60.01680471,61b8f3437b89212fae0dfadf
3,2.4828,space,0.8543,0,334,334,178,1,,,60aad516e34718d318bfb44d,6437731470abd84e08e8bde2,2023-04-13_05h14.30.182,PRaM,2021.2.3,Win32,60.01680471,61b8f3437b89212fae0dfadf
2,2.4235,space,0.6736,0,335,335,250,1,,,60aad516e34718d318bfb44d,6437731470abd84e08e8bde2,2023-04-13_05h14.30.182,PRaM,2021.2.3,Win32,60.01680471,61b8f3437b89212fae0dfadf
2,2.1067,space,0.4676,0,336,336,163,1,,,60aad516e34718d318bfb44d,6437731470abd84e08e8bde2,2023-04-13_05h14.30.182,PRaM,2021.2.3,Win32,60.01680471,61b8f3437b89212fae0dfadf
2,1.797,space,0.1011,0,337,337,2,1,,,60aad516e34718d318bfb44d,6437731470abd84e08e8bde2,2023-04-13_05h14.30.182,PRaM,2021.2.3,Win32,60.01680471,61b8f3437b89212fae0dfadf
2,3.1313,space,1.4869,0,338,338,288,1,,,60aad516e34718d318bfb44d,6437731470abd84e08e8bde2,2023-04-13_05h14.30.182,PRaM,2021.2.3,Win32,60.01680471,61b8f3437b89212fae0dfadf
2,2.0275,space,0.1966,0,339,339,245,1,,,60aad516e34718d318bfb44d,6437731470abd84e08e8bde2,2023-04-13_05h14.30.182,PRaM,2021.2.3,Win32,60.01680471,61b8f3437b89212fae0dfadf
2,1.6335,space,2.3541,0,340,340,65,1,,,60aad516e34718d318bfb44d,6437731470abd84e08e8bde2,2023-04-13_05h14.30.182,PRaM,2021.2.3,Win32,60.01680471,61b8f3437b89212fae0dfadf
2,2.2586,space,0.6376,0,341,341,232,1,,,60aad516e34718d318bfb44d,6437731470abd84e08e8bde2,2023-04-13_05h14.30.182,PRaM,2021.2.3,Win32,60.01680471,61b8f3437b89212fae0dfadf
2,2.1418,space,0.4643,0,342,342,89,1,,,60aad516e34718d318bfb44d,6437731470abd84e08e8bde2,2023-04-13_05h14.30.182,PRaM,2021.2.3,Win32,60.01680471,61b8f3437b89212fae0dfadf
3,3.3362,space,1.5698,0,343,343,240,1,,,60aad516e34718d318bfb44d,6437731470abd84e08e8bde2,2023-04-13_05h14.30.182,PRaM,2021.2.3,Win32,60.01680471,61b8f3437b89212fae0dfadf
2,2.4705,space,0.8033,0,344,344,346,1,,,60aad516e34718d318bfb44d,6437731470abd84e08e8bde2,2023-04-13_05h14.30.182,PRaM,2021.2.3,Win32,60.01680471,61b8f3437b89212fae0dfadf
2,2.5987,space,1.5887,0,345,345,13,1,,,60aad516e34718d318bfb44d,6437731470abd84e08e8bde2,2023-04-13_05h14.30.182,PRaM,2021.2.3,Win32,60.01680471,61b8f3437b89212fae0dfadf
5,7.8655,space,6.5549,0,346,346,139,1,,,60aad516e34718d318bfb44d,6437731470abd84e08e8bde2,2023-04-13_05h14.30.182,PRaM,2021.2.3,Win32,60.01680471,61b8f3437b89212fae0dfadf
2,2.0014,space,0.203,0,347,347,266,1,,,60aad516e34718d318bfb44d,6437731470abd84e08e8bde2,2023-04-13_05h14.30.182,PRaM,2021.2.3,Win32,60.01680471,61b8f3437b89212fae0dfadf
2,2.2807,space,0.4671,0,348,348,287,1,,,60aad516e34718d318bfb44d,6437731470abd84e08e8bde2,2023-04-13_05h14.30.182,PRaM,2021.2.3,Win32,60.01680471,61b8f3437b89212fae0dfadf
4,2.7232,space,0.8654,0,349,349,71,1,,,60aad516e34718d318bfb44d,6437731470abd84e08e8bde2,2023-04-13_05h14.30.182,PRaM,2021.2.3,Win32,60.01680471,61b8f3437b89212fae0dfadf
3,2.5894,space,0.9,0,350,350,37,1,,,60aad516e34718d318bfb44d,6437731470abd84e08e8bde2,2023-04-13_05h14.30.182,PRaM,2021.2.3,Win32,60.01680471,61b8f3437b89212fae0dfadf
2,2.2568,space,0.5497,0,351,351,5,1,,,60aad516e34718d318bfb44d,6437731470abd84e08e8bde2,2023-04-13_05h14.30.182,PRaM,2021.2.3,Win32,60.01680471,61b8f3437b89212fae0dfadf
2,2.4053,space,0.53,0,352,352,227,1,,,60aad516e34718d318bfb44d,6437731470abd84e08e8bde2,2023-04-13_05h14.30.182,PRaM,2021.2.3,Win32,60.01680471,61b8f3437b89212fae0dfadf
2,2.3147,space,0.4027,0,353,353,67,1,,,60aad516e34718d318bfb44d,6437731470abd84e08e8bde2,2023-04-13_05h14.30.182,PRaM,2021.2.3,Win32,60.01680471,61b8f3437b89212fae0dfadf
2,2.4265,space,0.6165,0,354,354,183,1,,,60aad516e34718d318bfb44d,6437731470abd84e08e8bde2,2023-04-13_05h14.30.182,PRaM,2021.2.3,Win32,60.01680471,61b8f3437b89212fae0dfadf
2,1.9016,space,0.0355,0,355,355,316,1,,,60aad516e34718d318bfb44d,6437731470abd84e08e8bde2,2023-04-13_05h14.30.182,PRaM,2021.2.3,Win32,60.01680471,61b8f3437b89212fae0dfadf
2,2.4343,space,0.6464,0,356,356,39,1,,,60aad516e34718d318bfb44d,6437731470abd84e08e8bde2,2023-04-13_05h14.30.182,PRaM,2021.2.3,Win32,60.01680471,61b8f3437b89212fae0dfadf
2,1.7122,space,0.9966,0,357,357,339,1,,,60aad516e34718d318bfb44d,6437731470abd84e08e8bde2,2023-04-13_05h14.30.182,PRaM,2021.2.3,Win32,60.01680471,61b8f3437b89212fae0dfadf
5,2.0673,space,0.3507,0,358,358,334,1,,,60aad516e34718d318bfb44d,6437731470abd84e08e8bde2,2023-04-13_05h14.30.182,PRaM,2021.2.3,Win32,60.01680471,61b8f3437b89212fae0dfadf
3,3.0882,space,1.3185,0,359,359,175,1,,,60aad516e34718d318bfb44d,6437731470abd84e08e8bde2,2023-04-13_05h14.30.182,PRaM,2021.2.3,Win32,60.01680471,61b8f3437b89212fae0dfadf
2,2.4645,space,0.6487,0,360,360,161,1,,,60aad516e34718d318bfb44d,6437731470abd84e08e8bde2,2023-04-13_05h14.30.182,PRaM,2021.2.3,Win32,60.01680471,61b8f3437b89212fae0dfadf
4,2.9358,space,1.0187,0,361,361,63,1,,,60aad516e34718d318bfb44d,6437731470abd84e08e8bde2,2023-04-13_05h14.30.182,PRaM,2021.2.3,Win32,60.01680471,61b8f3437b89212fae0dfadf
2,2.6983,space,0.906,0,362,362,88,1,,,60aad516e34718d318bfb44d,6437731470abd84e08e8bde2,2023-04-13_05h14.30.182,PRaM,2021.2.3,Win32,60.01680471,61b8f3437b89212fae0dfadf
1,3.1988,space,1.5294,0,363,363,272,1,,,60aad516e34718d318bfb44d,6437731470abd84e08e8bde2,2023-04-13_05h14.30.182,PRaM,2021.2.3,Win32,60.01680471,61b8f3437b89212fae0dfadf
1,3.7325,space,2.0752,0,364,364,367,1,,,60aad516e34718d318bfb44d,6437731470abd84e08e8bde2,2023-04-13_05h14.30.182,PRaM,2021.2.3,Win32,60.01680471,61b8f3437b89212fae0dfadf
2,2.5842,space,0.8697,0,365,365,131,1,,,60aad516e34718d318bfb44d,6437731470abd84e08e8bde2,2023-04-13_05h14.30.182,PRaM,2021.2.3,Win32,60.01680471,61b8f3437b89212fae0dfadf
2,1.9871,space,0.1855,0,366,366,57,1,,,60aad516e34718d318bfb44d,6437731470abd84e08e8bde2,2023-04-13_05h14.30.182,PRaM,2021.2.3,Win32,60.01680471,61b8f3437b89212fae0dfadf
3,2.627,space,0.8895,0,367,367,0,1,,,60aad516e34718d318bfb44d,6437731470abd84e08e8bde2,2023-04-13_05h14.30.182,PRaM,2021.2.3,Win32,60.01680471,61b8f3437b89212fae0dfadf
4,2.8498,space,0.9019,0,368,368,200,1,,,60aad516e34718d318bfb44d,6437731470abd84e08e8bde2,2023-04-13_05h14.30.182,PRaM,2021.2.3,Win32,60.01680471,61b8f3437b89212fae0dfadf
4,3.758,space,1.8602,0,369,369,259,1,,,60aad516e34718d318bfb44d,6437731470abd84e08e8bde2,2023-04-13_05h14.30.182,PRaM,2021.2.3,Win32,60.01680471,61b8f3437b89212fae0dfadf
2,2.7316,space,0.8667,0,370,370,162,1,,,60aad516e34718d318bfb44d,6437731470abd84e08e8bde2,2023-04-13_05h14.30.182,PRaM,2021.2.3,Win32,60.01680471,61b8f3437b89212fae0dfadf
2,2.0062,space,0.285,0,371,371,252,1,,,60aad516e34718d318bfb44d,6437731470abd84e08e8bde2,2023-04-13_05h14.30.182,PRaM,2021.2.3,Win32,60.01680471,61b8f3437b89212fae0dfadf
1,2.2664,space,0.5512,0,372,372,376,1,,,60aad516e34718d318bfb44d,6437731470abd84e08e8bde2,2023-04-13_05h14.30.182,PRaM,2021.2.3,Win32,60.01680471,61b8f3437b89212fae0dfadf
5,3.8894,space,2.1213,0,373,373,17,1,,,60aad516e34718d318bfb44d,6437731470abd84e08e8bde2,2023-04-13_05h14.30.182,PRaM,2021.2.3,Win32,60.01680471,61b8f3437b89212fae0dfadf
2,1.9314,space,0.2848,0,374,374,333,1,,,60aad516e34718d318bfb44d,6437731470abd84e08e8bde2,2023-04-13_05h14.30.182,PRaM,2021.2.3,Win32,60.01680471,61b8f3437b89212fae0dfadf
5,2.7243,space,0.8849,0,375,375,61,1,,,60aad516e34718d318bfb44d,6437731470abd84e08e8bde2,2023-04-13_05h14.30.182,PRaM,2021.2.3,Win32,60.01680471,61b8f3437b89212fae0dfadf
2,2.375,space,0.6476,0,376,376,138,1,,,60aad516e34718d318bfb44d,6437731470abd84e08e8bde2,2023-04-13_05h14.30.182,PRaM,2021.2.3,Win32,60.01680471,61b8f3437b89212fae0dfadf
2,1.6057,space,0.7308,0,377,377,130,1,,,60aad516e34718d318bfb44d,6437731470abd84e08e8bde2,2023-04-13_05h14.30.182,PRaM,2021.2.3,Win32,60.01680471,61b8f3437b89212fae0dfadf
