Rating.response,Rating.rt,EndTrial.keys,EndTrial.rt,trials.thisRepN,trials.thisTrialN,trials.thisN,trials.thisIndex,trials.ran,Pos1,Pos2,participant,session,date,expName,psychopyVersion,OS,frameRate,study_id
4,8.4034,space,19.9811,0,0,0,181,1,,,60fcd9699c3def3068403b90,6437747109b6c8293b111725,2023-04-12_22h20.13.040,PRaM,2021.2.3,Linux x86_64,59.99160118,61b8f3437b89212fae0dfade
5,3.5316,space,2.6101,0,1,1,165,1,,,60fcd9699c3def3068403b90,6437747109b6c8293b111725,2023-04-12_22h20.13.040,PRaM,2021.2.3,Linux x86_64,59.99160118,61b8f3437b89212fae0dfade
4,6.5572,space,5.3033,0,2,2,271,1,,,60fcd9699c3def3068403b90,6437747109b6c8293b111725,2023-04-12_22h20.13.040,PRaM,2021.2.3,Linux x86_64,59.99160118,61b8f3437b89212fae0dfade
6,2.9688,space,1.7034,0,3,3,211,1,,,60fcd9699c3def3068403b90,6437747109b6c8293b111725,2023-04-12_22h20.13.040,PRaM,2021.2.3,Linux x86_64,59.99160118,61b8f3437b89212fae0dfade
2,4.3255,space,3.1667,0,4,4,111,1,,,60fcd9699c3def3068403b90,6437747109b6c8293b111725,2023-04-12_22h20.13.040,PRaM,2021.2.3,Linux x86_64,59.99160118,61b8f3437b89212fae0dfade
3,3.6578,space,5.9122,0,5,5,258,1,,,60fcd9699c3def3068403b90,6437747109b6c8293b111725,2023-04-12_22h20.13.040,PRaM,2021.2.3,Linux x86_64,59.99160118,61b8f3437b89212fae0dfade
2,3.2343,space,3.0161,0,6,6,232,1,,,60fcd9699c3def3068403b90,6437747109b6c8293b111725,2023-04-12_22h20.13.040,PRaM,2021.2.3,Linux x86_64,59.99160118,61b8f3437b89212fae0dfade
7,3.8072,space,2.793,0,7,7,132,1,,,60fcd9699c3def3068403b90,6437747109b6c8293b111725,2023-04-12_22h20.13.040,PRaM,2021.2.3,Linux x86_64,59.99160118,61b8f3437b89212fae0dfade
3,5.23,space,3.8155,0,8,8,371,1,,,60fcd9699c3def3068403b90,6437747109b6c8293b111725,2023-04-12_22h20.13.040,PRaM,2021.2.3,Linux x86_64,59.99160118,61b8f3437b89212fae0dfade
1,6.6403,space,5.2392,0,9,9,354,1,,,60fcd9699c3def3068403b90,6437747109b6c8293b111725,2023-04-12_22h20.13.040,PRaM,2021.2.3,Linux x86_64,59.99160118,61b8f3437b89212fae0dfade
2,2.6192,space,1.1088,0,10,10,39,1,,,60fcd9699c3def3068403b90,6437747109b6c8293b111725,2023-04-12_22h20.13.040,PRaM,2021.2.3,Linux x86_64,59.99160118,61b8f3437b89212fae0dfade
8,9.571,space,8.1299,0,11,11,207,1,,,60fcd9699c3def3068403b90,6437747109b6c8293b111725,2023-04-12_22h20.13.040,PRaM,2021.2.3,Linux x86_64,59.99160118,61b8f3437b89212fae0dfade
7,3.2731,space,1.7832,0,12,12,335,1,,,60fcd9699c3def3068403b90,6437747109b6c8293b111725,2023-04-12_22h20.13.040,PRaM,2021.2.3,Linux x86_64,59.99160118,61b8f3437b89212fae0dfade
6,4.0427,space,2.8627,0,13,13,314,1,,,60fcd9699c3def3068403b90,6437747109b6c8293b111725,2023-04-12_22h20.13.040,PRaM,2021.2.3,Linux x86_64,59.99160118,61b8f3437b89212fae0dfade
5,2.7694,space,1.4061,0,14,14,177,1,,,60fcd9699c3def3068403b90,6437747109b6c8293b111725,2023-04-12_22h20.13.040,PRaM,2021.2.3,Linux x86_64,59.99160118,61b8f3437b89212fae0dfade
6,3.0581,space,1.5173,0,15,15,310,1,,,60fcd9699c3def3068403b90,6437747109b6c8293b111725,2023-04-12_22h20.13.040,PRaM,2021.2.3,Linux x86_64,59.99160118,61b8f3437b89212fae0dfade
2,6.0772,space,4.776,0,16,16,100,1,,,60fcd9699c3def3068403b90,6437747109b6c8293b111725,2023-04-12_22h20.13.040,PRaM,2021.2.3,Linux x86_64,59.99160118,61b8f3437b89212fae0dfade
3,2.4975,space,1.0476,0,17,17,170,1,,,60fcd9699c3def3068403b90,6437747109b6c8293b111725,2023-04-12_22h20.13.040,PRaM,2021.2.3,Linux x86_64,59.99160118,61b8f3437b89212fae0dfade
6,3.0944,space,2.2566,0,18,18,351,1,,,60fcd9699c3def3068403b90,6437747109b6c8293b111725,2023-04-12_22h20.13.040,PRaM,2021.2.3,Linux x86_64,59.99160118,61b8f3437b89212fae0dfade
7,3.0627,space,1.8072,0,19,19,0,1,,,60fcd9699c3def3068403b90,6437747109b6c8293b111725,2023-04-12_22h20.13.040,PRaM,2021.2.3,Linux x86_64,59.99160118,61b8f3437b89212fae0dfade
4,4.2395,space,2.7508,0,20,20,167,1,,,60fcd9699c3def3068403b90,6437747109b6c8293b111725,2023-04-12_22h20.13.040,PRaM,2021.2.3,Linux x86_64,59.99160118,61b8f3437b89212fae0dfade
7,3.5617,space,2.1937,0,21,21,213,1,,,60fcd9699c3def3068403b90,6437747109b6c8293b111725,2023-04-12_22h20.13.040,PRaM,2021.2.3,Linux x86_64,59.99160118,61b8f3437b89212fae0dfade
3,3.372,space,1.851,0,22,22,163,1,,,60fcd9699c3def3068403b90,6437747109b6c8293b111725,2023-04-12_22h20.13.040,PRaM,2021.2.3,Linux x86_64,59.99160118,61b8f3437b89212fae0dfade
2,6.2014,space,5.2508,0,23,23,36,1,,,60fcd9699c3def3068403b90,6437747109b6c8293b111725,2023-04-12_22h20.13.040,PRaM,2021.2.3,Linux x86_64,59.99160118,61b8f3437b89212fae0dfade
8,3.6689,space,2.8179,0,24,24,302,1,,,60fcd9699c3def3068403b90,6437747109b6c8293b111725,2023-04-12_22h20.13.040,PRaM,2021.2.3,Linux x86_64,59.99160118,61b8f3437b89212fae0dfade
1,3.3656,space,1.9199,0,25,25,248,1,,,60fcd9699c3def3068403b90,6437747109b6c8293b111725,2023-04-12_22h20.13.040,PRaM,2021.2.3,Linux x86_64,59.99160118,61b8f3437b89212fae0dfade
2,3.1294,space,1.9893,0,26,26,63,1,,,60fcd9699c3def3068403b90,6437747109b6c8293b111725,2023-04-12_22h20.13.040,PRaM,2021.2.3,Linux x86_64,59.99160118,61b8f3437b89212fae0dfade
7,3.916,space,4.1804,0,27,27,114,1,,,60fcd9699c3def3068403b90,6437747109b6c8293b111725,2023-04-12_22h20.13.040,PRaM,2021.2.3,Linux x86_64,59.99160118,61b8f3437b89212fae0dfade
4,3.9404,space,2.472,0,28,28,367,1,,,60fcd9699c3def3068403b90,6437747109b6c8293b111725,2023-04-12_22h20.13.040,PRaM,2021.2.3,Linux x86_64,59.99160118,61b8f3437b89212fae0dfade
2,2.6602,space,1.2325,0,29,29,106,1,,,60fcd9699c3def3068403b90,6437747109b6c8293b111725,2023-04-12_22h20.13.040,PRaM,2021.2.3,Linux x86_64,59.99160118,61b8f3437b89212fae0dfade
4,2.7136,space,1.4865,0,30,30,224,1,,,60fcd9699c3def3068403b90,6437747109b6c8293b111725,2023-04-12_22h20.13.040,PRaM,2021.2.3,Linux x86_64,59.99160118,61b8f3437b89212fae0dfade
2,4.2924,space,2.8859,0,31,31,212,1,,,60fcd9699c3def3068403b90,6437747109b6c8293b111725,2023-04-12_22h20.13.040,PRaM,2021.2.3,Linux x86_64,59.99160118,61b8f3437b89212fae0dfade
6,3.2435,space,1.8357,0,32,32,340,1,,,60fcd9699c3def3068403b90,6437747109b6c8293b111725,2023-04-12_22h20.13.040,PRaM,2021.2.3,Linux x86_64,59.99160118,61b8f3437b89212fae0dfade
2,17.5716,space,16.5418,0,33,33,128,1,,,60fcd9699c3def3068403b90,6437747109b6c8293b111725,2023-04-12_22h20.13.040,PRaM,2021.2.3,Linux x86_64,59.99160118,61b8f3437b89212fae0dfade
4,5.1458,space,3.8669,0,34,34,293,1,,,60fcd9699c3def3068403b90,6437747109b6c8293b111725,2023-04-12_22h20.13.040,PRaM,2021.2.3,Linux x86_64,59.99160118,61b8f3437b89212fae0dfade
6,3.2359,space,1.8307,0,35,35,83,1,,,60fcd9699c3def3068403b90,6437747109b6c8293b111725,2023-04-12_22h20.13.040,PRaM,2021.2.3,Linux x86_64,59.99160118,61b8f3437b89212fae0dfade
4,2.5282,space,1.1036,0,36,36,266,1,,,60fcd9699c3def3068403b90,6437747109b6c8293b111725,2023-04-12_22h20.13.040,PRaM,2021.2.3,Linux x86_64,59.99160118,61b8f3437b89212fae0dfade
1,3.8208,space,2.3163,0,37,37,92,1,,,60fcd9699c3def3068403b90,6437747109b6c8293b111725,2023-04-12_22h20.13.040,PRaM,2021.2.3,Linux x86_64,59.99160118,61b8f3437b89212fae0dfade
5,2.4764,space,1.2004,0,38,38,47,1,,,60fcd9699c3def3068403b90,6437747109b6c8293b111725,2023-04-12_22h20.13.040,PRaM,2021.2.3,Linux x86_64,59.99160118,61b8f3437b89212fae0dfade
4,2.9063,space,1.452,0,39,39,81,1,,,60fcd9699c3def3068403b90,6437747109b6c8293b111725,2023-04-12_22h20.13.040,PRaM,2021.2.3,Linux x86_64,59.99160118,61b8f3437b89212fae0dfade
3,2.6611,space,1.1186,0,40,40,130,1,,,60fcd9699c3def3068403b90,6437747109b6c8293b111725,2023-04-12_22h20.13.040,PRaM,2021.2.3,Linux x86_64,59.99160118,61b8f3437b89212fae0dfade
5,2.6086,space,1.0548,0,41,41,30,1,,,60fcd9699c3def3068403b90,6437747109b6c8293b111725,2023-04-12_22h20.13.040,PRaM,2021.2.3,Linux x86_64,59.99160118,61b8f3437b89212fae0dfade
6,3.4732,space,2.1838,0,42,42,372,1,,,60fcd9699c3def3068403b90,6437747109b6c8293b111725,2023-04-12_22h20.13.040,PRaM,2021.2.3,Linux x86_64,59.99160118,61b8f3437b89212fae0dfade
4,4.69,space,3.218,0,43,43,179,1,,,60fcd9699c3def3068403b90,6437747109b6c8293b111725,2023-04-12_22h20.13.040,PRaM,2021.2.3,Linux x86_64,59.99160118,61b8f3437b89212fae0dfade
2,3.0426,space,1.5314,0,44,44,1,1,,,60fcd9699c3def3068403b90,6437747109b6c8293b111725,2023-04-12_22h20.13.040,PRaM,2021.2.3,Linux x86_64,59.99160118,61b8f3437b89212fae0dfade
1,5.3096,space,4.1322,0,45,45,23,1,,,60fcd9699c3def3068403b90,6437747109b6c8293b111725,2023-04-12_22h20.13.040,PRaM,2021.2.3,Linux x86_64,59.99160118,61b8f3437b89212fae0dfade
2,3.4415,space,2.0397,0,46,46,58,1,,,60fcd9699c3def3068403b90,6437747109b6c8293b111725,2023-04-12_22h20.13.040,PRaM,2021.2.3,Linux x86_64,59.99160118,61b8f3437b89212fae0dfade
2,3.044,space,1.6,0,47,47,171,1,,,60fcd9699c3def3068403b90,6437747109b6c8293b111725,2023-04-12_22h20.13.040,PRaM,2021.2.3,Linux x86_64,59.99160118,61b8f3437b89212fae0dfade
2,6.4125,space,4.7758,0,48,48,34,1,,,60fcd9699c3def3068403b90,6437747109b6c8293b111725,2023-04-12_22h20.13.040,PRaM,2021.2.3,Linux x86_64,59.99160118,61b8f3437b89212fae0dfade
2,2.815,space,1.4669,0,49,49,148,1,,,60fcd9699c3def3068403b90,6437747109b6c8293b111725,2023-04-12_22h20.13.040,PRaM,2021.2.3,Linux x86_64,59.99160118,61b8f3437b89212fae0dfade
2,3.8462,space,2.3357,0,50,50,188,1,,,60fcd9699c3def3068403b90,6437747109b6c8293b111725,2023-04-12_22h20.13.040,PRaM,2021.2.3,Linux x86_64,59.99160118,61b8f3437b89212fae0dfade
1,4.0551,space,2.6835,0,51,51,108,1,,,60fcd9699c3def3068403b90,6437747109b6c8293b111725,2023-04-12_22h20.13.040,PRaM,2021.2.3,Linux x86_64,59.99160118,61b8f3437b89212fae0dfade
1,2.6795,space,1.9196,0,52,52,113,1,,,60fcd9699c3def3068403b90,6437747109b6c8293b111725,2023-04-12_22h20.13.040,PRaM,2021.2.3,Linux x86_64,59.99160118,61b8f3437b89212fae0dfade
7,4.7433,space,3.284,0,53,53,6,1,,,60fcd9699c3def3068403b90,6437747109b6c8293b111725,2023-04-12_22h20.13.040,PRaM,2021.2.3,Linux x86_64,59.99160118,61b8f3437b89212fae0dfade
2,2.9312,space,1.5153,0,54,54,339,1,,,60fcd9699c3def3068403b90,6437747109b6c8293b111725,2023-04-12_22h20.13.040,PRaM,2021.2.3,Linux x86_64,59.99160118,61b8f3437b89212fae0dfade
6,4.7102,space,5.4859,0,55,55,143,1,,,60fcd9699c3def3068403b90,6437747109b6c8293b111725,2023-04-12_22h20.13.040,PRaM,2021.2.3,Linux x86_64,59.99160118,61b8f3437b89212fae0dfade
6,6.6055,space,5.1475,0,56,56,156,1,,,60fcd9699c3def3068403b90,6437747109b6c8293b111725,2023-04-12_22h20.13.040,PRaM,2021.2.3,Linux x86_64,59.99160118,61b8f3437b89212fae0dfade
5,2.6932,space,1.0171,0,57,57,218,1,,,60fcd9699c3def3068403b90,6437747109b6c8293b111725,2023-04-12_22h20.13.040,PRaM,2021.2.3,Linux x86_64,59.99160118,61b8f3437b89212fae0dfade
4,2.7233,space,1.0347,0,58,58,33,1,,,60fcd9699c3def3068403b90,6437747109b6c8293b111725,2023-04-12_22h20.13.040,PRaM,2021.2.3,Linux x86_64,59.99160118,61b8f3437b89212fae0dfade
4,2.1298,space,0.4196,0,59,59,44,1,,,60fcd9699c3def3068403b90,6437747109b6c8293b111725,2023-04-12_22h20.13.040,PRaM,2021.2.3,Linux x86_64,59.99160118,61b8f3437b89212fae0dfade
3,2.8799,space,1.218,0,60,60,176,1,,,60fcd9699c3def3068403b90,6437747109b6c8293b111725,2023-04-12_22h20.13.040,PRaM,2021.2.3,Linux x86_64,59.99160118,61b8f3437b89212fae0dfade
3,2.48,space,0.785,0,61,61,52,1,,,60fcd9699c3def3068403b90,6437747109b6c8293b111725,2023-04-12_22h20.13.040,PRaM,2021.2.3,Linux x86_64,59.99160118,61b8f3437b89212fae0dfade
3,2.5257,space,0.9022,0,62,62,345,1,,,60fcd9699c3def3068403b90,6437747109b6c8293b111725,2023-04-12_22h20.13.040,PRaM,2021.2.3,Linux x86_64,59.99160118,61b8f3437b89212fae0dfade
2,4.5055,space,3.4359,0,63,63,364,1,,,60fcd9699c3def3068403b90,6437747109b6c8293b111725,2023-04-12_22h20.13.040,PRaM,2021.2.3,Linux x86_64,59.99160118,61b8f3437b89212fae0dfade
3,3.8045,space,2.3195,0,64,64,263,1,,,60fcd9699c3def3068403b90,6437747109b6c8293b111725,2023-04-12_22h20.13.040,PRaM,2021.2.3,Linux x86_64,59.99160118,61b8f3437b89212fae0dfade
2,2.1993,space,0.452,0,65,65,18,1,,,60fcd9699c3def3068403b90,6437747109b6c8293b111725,2023-04-12_22h20.13.040,PRaM,2021.2.3,Linux x86_64,59.99160118,61b8f3437b89212fae0dfade
3,2.7934,space,1.7193,0,66,66,93,1,,,60fcd9699c3def3068403b90,6437747109b6c8293b111725,2023-04-12_22h20.13.040,PRaM,2021.2.3,Linux x86_64,59.99160118,61b8f3437b89212fae0dfade
4,3.7758,space,2.284,0,67,67,241,1,,,60fcd9699c3def3068403b90,6437747109b6c8293b111725,2023-04-12_22h20.13.040,PRaM,2021.2.3,Linux x86_64,59.99160118,61b8f3437b89212fae0dfade
6,4.3273,space,2.6614,0,68,68,69,1,,,60fcd9699c3def3068403b90,6437747109b6c8293b111725,2023-04-12_22h20.13.040,PRaM,2021.2.3,Linux x86_64,59.99160118,61b8f3437b89212fae0dfade
6,3.14,space,1.5127,0,69,69,131,1,,,60fcd9699c3def3068403b90,6437747109b6c8293b111725,2023-04-12_22h20.13.040,PRaM,2021.2.3,Linux x86_64,59.99160118,61b8f3437b89212fae0dfade
4,5.0236,space,3.384,0,70,70,321,1,,,60fcd9699c3def3068403b90,6437747109b6c8293b111725,2023-04-12_22h20.13.040,PRaM,2021.2.3,Linux x86_64,59.99160118,61b8f3437b89212fae0dfade
6,4.4558,space,4.2844,0,71,71,38,1,,,60fcd9699c3def3068403b90,6437747109b6c8293b111725,2023-04-12_22h20.13.040,PRaM,2021.2.3,Linux x86_64,59.99160118,61b8f3437b89212fae0dfade
4,2.4299,space,0.787,0,72,72,233,1,,,60fcd9699c3def3068403b90,6437747109b6c8293b111725,2023-04-12_22h20.13.040,PRaM,2021.2.3,Linux x86_64,59.99160118,61b8f3437b89212fae0dfade
2,2.7774,space,1.4996,0,73,73,28,1,,,60fcd9699c3def3068403b90,6437747109b6c8293b111725,2023-04-12_22h20.13.040,PRaM,2021.2.3,Linux x86_64,59.99160118,61b8f3437b89212fae0dfade
3,2.9937,space,1.2543,0,74,74,265,1,,,60fcd9699c3def3068403b90,6437747109b6c8293b111725,2023-04-12_22h20.13.040,PRaM,2021.2.3,Linux x86_64,59.99160118,61b8f3437b89212fae0dfade
4,2.288,space,0.69,0,75,75,374,1,,,60fcd9699c3def3068403b90,6437747109b6c8293b111725,2023-04-12_22h20.13.040,PRaM,2021.2.3,Linux x86_64,59.99160118,61b8f3437b89212fae0dfade
4,2.6966,space,1.4831,0,76,76,262,1,,,60fcd9699c3def3068403b90,6437747109b6c8293b111725,2023-04-12_22h20.13.040,PRaM,2021.2.3,Linux x86_64,59.99160118,61b8f3437b89212fae0dfade
6,2.0894,space,0.4805,0,77,77,336,1,,,60fcd9699c3def3068403b90,6437747109b6c8293b111725,2023-04-12_22h20.13.040,PRaM,2021.2.3,Linux x86_64,59.99160118,61b8f3437b89212fae0dfade
8,2.7596,space,1.3026,0,78,78,64,1,,,60fcd9699c3def3068403b90,6437747109b6c8293b111725,2023-04-12_22h20.13.040,PRaM,2021.2.3,Linux x86_64,59.99160118,61b8f3437b89212fae0dfade
5,4.0929,space,2.8714,0,79,79,31,1,,,60fcd9699c3def3068403b90,6437747109b6c8293b111725,2023-04-12_22h20.13.040,PRaM,2021.2.3,Linux x86_64,59.99160118,61b8f3437b89212fae0dfade
7,2.9771,space,1.9201,0,80,80,277,1,,,60fcd9699c3def3068403b90,6437747109b6c8293b111725,2023-04-12_22h20.13.040,PRaM,2021.2.3,Linux x86_64,59.99160118,61b8f3437b89212fae0dfade
5,3.1093,space,1.451,0,81,81,368,1,,,60fcd9699c3def3068403b90,6437747109b6c8293b111725,2023-04-12_22h20.13.040,PRaM,2021.2.3,Linux x86_64,59.99160118,61b8f3437b89212fae0dfade
4,3.3419,space,1.7032,0,82,82,249,1,,,60fcd9699c3def3068403b90,6437747109b6c8293b111725,2023-04-12_22h20.13.040,PRaM,2021.2.3,Linux x86_64,59.99160118,61b8f3437b89212fae0dfade
6,2.3424,space,1.4685,0,83,83,357,1,,,60fcd9699c3def3068403b90,6437747109b6c8293b111725,2023-04-12_22h20.13.040,PRaM,2021.2.3,Linux x86_64,59.99160118,61b8f3437b89212fae0dfade
7,2.5278,space,1.1547,0,84,84,105,1,,,60fcd9699c3def3068403b90,6437747109b6c8293b111725,2023-04-12_22h20.13.040,PRaM,2021.2.3,Linux x86_64,59.99160118,61b8f3437b89212fae0dfade
6,2.025,space,0.6241,0,85,85,199,1,,,60fcd9699c3def3068403b90,6437747109b6c8293b111725,2023-04-12_22h20.13.040,PRaM,2021.2.3,Linux x86_64,59.99160118,61b8f3437b89212fae0dfade
6,6.8379,space,5.3826,0,86,86,32,1,,,60fcd9699c3def3068403b90,6437747109b6c8293b111725,2023-04-12_22h20.13.040,PRaM,2021.2.3,Linux x86_64,59.99160118,61b8f3437b89212fae0dfade
7,2.2918,space,0.9195,0,87,87,366,1,,,60fcd9699c3def3068403b90,6437747109b6c8293b111725,2023-04-12_22h20.13.040,PRaM,2021.2.3,Linux x86_64,59.99160118,61b8f3437b89212fae0dfade
4,2.4432,space,0.9348,0,88,88,237,1,,,60fcd9699c3def3068403b90,6437747109b6c8293b111725,2023-04-12_22h20.13.040,PRaM,2021.2.3,Linux x86_64,59.99160118,61b8f3437b89212fae0dfade
7,1.9946,space,1.0201,0,89,89,136,1,,,60fcd9699c3def3068403b90,6437747109b6c8293b111725,2023-04-12_22h20.13.040,PRaM,2021.2.3,Linux x86_64,59.99160118,61b8f3437b89212fae0dfade
8,3.3408,space,2.3187,0,90,90,53,1,,,60fcd9699c3def3068403b90,6437747109b6c8293b111725,2023-04-12_22h20.13.040,PRaM,2021.2.3,Linux x86_64,59.99160118,61b8f3437b89212fae0dfade
4,4.5201,space,2.8149,0,91,91,278,1,,,60fcd9699c3def3068403b90,6437747109b6c8293b111725,2023-04-12_22h20.13.040,PRaM,2021.2.3,Linux x86_64,59.99160118,61b8f3437b89212fae0dfade
4,2.146,space,0.4722,0,92,92,356,1,,,60fcd9699c3def3068403b90,6437747109b6c8293b111725,2023-04-12_22h20.13.040,PRaM,2021.2.3,Linux x86_64,59.99160118,61b8f3437b89212fae0dfade
3,5.8525,space,4.3158,0,93,93,283,1,,,60fcd9699c3def3068403b90,6437747109b6c8293b111725,2023-04-12_22h20.13.040,PRaM,2021.2.3,Linux x86_64,59.99160118,61b8f3437b89212fae0dfade
3,4.0058,space,2.3864,0,94,94,35,1,,,60fcd9699c3def3068403b90,6437747109b6c8293b111725,2023-04-12_22h20.13.040,PRaM,2021.2.3,Linux x86_64,59.99160118,61b8f3437b89212fae0dfade
2,2.9579,space,1.2505,0,95,95,129,1,,,60fcd9699c3def3068403b90,6437747109b6c8293b111725,2023-04-12_22h20.13.040,PRaM,2021.2.3,Linux x86_64,59.99160118,61b8f3437b89212fae0dfade
5,3.6603,space,2.0183,0,96,96,235,1,,,60fcd9699c3def3068403b90,6437747109b6c8293b111725,2023-04-12_22h20.13.040,PRaM,2021.2.3,Linux x86_64,59.99160118,61b8f3437b89212fae0dfade
6,2.2596,space,0.7226,0,97,97,239,1,,,60fcd9699c3def3068403b90,6437747109b6c8293b111725,2023-04-12_22h20.13.040,PRaM,2021.2.3,Linux x86_64,59.99160118,61b8f3437b89212fae0dfade
6,2.5247,space,0.8658,0,98,98,138,1,,,60fcd9699c3def3068403b90,6437747109b6c8293b111725,2023-04-12_22h20.13.040,PRaM,2021.2.3,Linux x86_64,59.99160118,61b8f3437b89212fae0dfade
4,2.9774,space,1.8053,0,99,99,362,1,,,60fcd9699c3def3068403b90,6437747109b6c8293b111725,2023-04-12_22h20.13.040,PRaM,2021.2.3,Linux x86_64,59.99160118,61b8f3437b89212fae0dfade
3,2.8408,space,1.3175,0,100,100,86,1,,,60fcd9699c3def3068403b90,6437747109b6c8293b111725,2023-04-12_22h20.13.040,PRaM,2021.2.3,Linux x86_64,59.99160118,61b8f3437b89212fae0dfade
7,4.5404,space,3.053,0,101,101,192,1,,,60fcd9699c3def3068403b90,6437747109b6c8293b111725,2023-04-12_22h20.13.040,PRaM,2021.2.3,Linux x86_64,59.99160118,61b8f3437b89212fae0dfade
7,2.0621,space,0.3529,0,102,102,56,1,,,60fcd9699c3def3068403b90,6437747109b6c8293b111725,2023-04-12_22h20.13.040,PRaM,2021.2.3,Linux x86_64,59.99160118,61b8f3437b89212fae0dfade
4,2.377,space,0.8681,0,103,103,166,1,,,60fcd9699c3def3068403b90,6437747109b6c8293b111725,2023-04-12_22h20.13.040,PRaM,2021.2.3,Linux x86_64,59.99160118,61b8f3437b89212fae0dfade
5,1.9919,space,0.4715,0,104,104,376,1,,,60fcd9699c3def3068403b90,6437747109b6c8293b111725,2023-04-12_22h20.13.040,PRaM,2021.2.3,Linux x86_64,59.99160118,61b8f3437b89212fae0dfade
6,2.0591,space,0.3703,0,105,105,304,1,,,60fcd9699c3def3068403b90,6437747109b6c8293b111725,2023-04-12_22h20.13.040,PRaM,2021.2.3,Linux x86_64,59.99160118,61b8f3437b89212fae0dfade
5,2.8088,space,1.1835,0,106,106,365,1,,,60fcd9699c3def3068403b90,6437747109b6c8293b111725,2023-04-12_22h20.13.040,PRaM,2021.2.3,Linux x86_64,59.99160118,61b8f3437b89212fae0dfade
6,1.7758,space,0.0707,0,107,107,141,1,,,60fcd9699c3def3068403b90,6437747109b6c8293b111725,2023-04-12_22h20.13.040,PRaM,2021.2.3,Linux x86_64,59.99160118,61b8f3437b89212fae0dfade
3,2.6311,space,1.1894,0,108,108,60,1,,,60fcd9699c3def3068403b90,6437747109b6c8293b111725,2023-04-12_22h20.13.040,PRaM,2021.2.3,Linux x86_64,59.99160118,61b8f3437b89212fae0dfade
6,2.7418,space,1.1501,0,109,109,118,1,,,60fcd9699c3def3068403b90,6437747109b6c8293b111725,2023-04-12_22h20.13.040,PRaM,2021.2.3,Linux x86_64,59.99160118,61b8f3437b89212fae0dfade
3,2.7461,space,1.353,0,110,110,313,1,,,60fcd9699c3def3068403b90,6437747109b6c8293b111725,2023-04-12_22h20.13.040,PRaM,2021.2.3,Linux x86_64,59.99160118,61b8f3437b89212fae0dfade
6,3.7304,space,2.2195,0,111,111,126,1,,,60fcd9699c3def3068403b90,6437747109b6c8293b111725,2023-04-12_22h20.13.040,PRaM,2021.2.3,Linux x86_64,59.99160118,61b8f3437b89212fae0dfade
6,2.0955,space,0.4033,0,112,112,127,1,,,60fcd9699c3def3068403b90,6437747109b6c8293b111725,2023-04-12_22h20.13.040,PRaM,2021.2.3,Linux x86_64,59.99160118,61b8f3437b89212fae0dfade
7,1.6948,space,0.0537,0,113,113,350,1,,,60fcd9699c3def3068403b90,6437747109b6c8293b111725,2023-04-12_22h20.13.040,PRaM,2021.2.3,Linux x86_64,59.99160118,61b8f3437b89212fae0dfade
8,2.5129,space,0.8151,0,114,114,115,1,,,60fcd9699c3def3068403b90,6437747109b6c8293b111725,2023-04-12_22h20.13.040,PRaM,2021.2.3,Linux x86_64,59.99160118,61b8f3437b89212fae0dfade
7,2.8415,space,1.2508,0,115,115,355,1,,,60fcd9699c3def3068403b90,6437747109b6c8293b111725,2023-04-12_22h20.13.040,PRaM,2021.2.3,Linux x86_64,59.99160118,61b8f3437b89212fae0dfade
2,3.3644,space,2.066,0,116,116,242,1,,,60fcd9699c3def3068403b90,6437747109b6c8293b111725,2023-04-12_22h20.13.040,PRaM,2021.2.3,Linux x86_64,59.99160118,61b8f3437b89212fae0dfade
6,2.5094,space,1.5184,0,117,117,285,1,,,60fcd9699c3def3068403b90,6437747109b6c8293b111725,2023-04-12_22h20.13.040,PRaM,2021.2.3,Linux x86_64,59.99160118,61b8f3437b89212fae0dfade
7,2.6109,space,0.9364,0,118,118,154,1,,,60fcd9699c3def3068403b90,6437747109b6c8293b111725,2023-04-12_22h20.13.040,PRaM,2021.2.3,Linux x86_64,59.99160118,61b8f3437b89212fae0dfade
2,2.8084,space,1.2523,0,119,119,91,1,,,60fcd9699c3def3068403b90,6437747109b6c8293b111725,2023-04-12_22h20.13.040,PRaM,2021.2.3,Linux x86_64,59.99160118,61b8f3437b89212fae0dfade
6,3.1093,space,1.486,0,120,120,261,1,,,60fcd9699c3def3068403b90,6437747109b6c8293b111725,2023-04-12_22h20.13.040,PRaM,2021.2.3,Linux x86_64,59.99160118,61b8f3437b89212fae0dfade
4,3.2305,space,1.6181,0,121,121,348,1,,,60fcd9699c3def3068403b90,6437747109b6c8293b111725,2023-04-12_22h20.13.040,PRaM,2021.2.3,Linux x86_64,59.99160118,61b8f3437b89212fae0dfade
2,3.7389,space,2.1004,0,122,122,150,1,,,60fcd9699c3def3068403b90,6437747109b6c8293b111725,2023-04-12_22h20.13.040,PRaM,2021.2.3,Linux x86_64,59.99160118,61b8f3437b89212fae0dfade
6,3.6756,space,2.0148,0,123,123,49,1,,,60fcd9699c3def3068403b90,6437747109b6c8293b111725,2023-04-12_22h20.13.040,PRaM,2021.2.3,Linux x86_64,59.99160118,61b8f3437b89212fae0dfade
6,3.6088,space,1.9906,0,124,124,25,1,,,60fcd9699c3def3068403b90,6437747109b6c8293b111725,2023-04-12_22h20.13.040,PRaM,2021.2.3,Linux x86_64,59.99160118,61b8f3437b89212fae0dfade
2,2.6598,space,1.0522,0,125,125,217,1,,,60fcd9699c3def3068403b90,6437747109b6c8293b111725,2023-04-12_22h20.13.040,PRaM,2021.2.3,Linux x86_64,59.99160118,61b8f3437b89212fae0dfade
6,2.4281,space,1.0833,0,126,126,104,1,,,60fcd9699c3def3068403b90,6437747109b6c8293b111725,2023-04-12_22h20.13.040,PRaM,2021.2.3,Linux x86_64,59.99160118,61b8f3437b89212fae0dfade
3,2.8942,space,1.8373,0,127,127,257,1,,,60fcd9699c3def3068403b90,6437747109b6c8293b111725,2023-04-12_22h20.13.040,PRaM,2021.2.3,Linux x86_64,59.99160118,61b8f3437b89212fae0dfade
3,4.4406,space,2.8381,0,128,128,101,1,,,60fcd9699c3def3068403b90,6437747109b6c8293b111725,2023-04-12_22h20.13.040,PRaM,2021.2.3,Linux x86_64,59.99160118,61b8f3437b89212fae0dfade
4,3.4247,space,1.7985,0,129,129,95,1,,,60fcd9699c3def3068403b90,6437747109b6c8293b111725,2023-04-12_22h20.13.040,PRaM,2021.2.3,Linux x86_64,59.99160118,61b8f3437b89212fae0dfade
7,2.8991,space,1.2603,0,130,130,276,1,,,60fcd9699c3def3068403b90,6437747109b6c8293b111725,2023-04-12_22h20.13.040,PRaM,2021.2.3,Linux x86_64,59.99160118,61b8f3437b89212fae0dfade
4,2.4142,space,0.8162,0,131,131,230,1,,,60fcd9699c3def3068403b90,6437747109b6c8293b111725,2023-04-12_22h20.13.040,PRaM,2021.2.3,Linux x86_64,59.99160118,61b8f3437b89212fae0dfade
6,3.4927,space,1.837,0,132,132,145,1,,,60fcd9699c3def3068403b90,6437747109b6c8293b111725,2023-04-12_22h20.13.040,PRaM,2021.2.3,Linux x86_64,59.99160118,61b8f3437b89212fae0dfade
6,2.3285,space,0.6529,0,133,133,219,1,,,60fcd9699c3def3068403b90,6437747109b6c8293b111725,2023-04-12_22h20.13.040,PRaM,2021.2.3,Linux x86_64,59.99160118,61b8f3437b89212fae0dfade
8,2.8265,space,1.1689,0,134,134,110,1,,,60fcd9699c3def3068403b90,6437747109b6c8293b111725,2023-04-12_22h20.13.040,PRaM,2021.2.3,Linux x86_64,59.99160118,61b8f3437b89212fae0dfade
4,3.1769,space,1.4313,0,135,135,202,1,,,60fcd9699c3def3068403b90,6437747109b6c8293b111725,2023-04-12_22h20.13.040,PRaM,2021.2.3,Linux x86_64,59.99160118,61b8f3437b89212fae0dfade
3,2.8977,space,1.1487,0,136,136,151,1,,,60fcd9699c3def3068403b90,6437747109b6c8293b111725,2023-04-12_22h20.13.040,PRaM,2021.2.3,Linux x86_64,59.99160118,61b8f3437b89212fae0dfade
2,2.1762,space,0.9671,0,137,137,270,1,,,60fcd9699c3def3068403b90,6437747109b6c8293b111725,2023-04-12_22h20.13.040,PRaM,2021.2.3,Linux x86_64,59.99160118,61b8f3437b89212fae0dfade
6,12.8892,space,11.9481,0,138,138,168,1,,,60fcd9699c3def3068403b90,6437747109b6c8293b111725,2023-04-12_22h20.13.040,PRaM,2021.2.3,Linux x86_64,59.99160118,61b8f3437b89212fae0dfade
3,3.8741,space,2.3726,0,139,139,295,1,,,60fcd9699c3def3068403b90,6437747109b6c8293b111725,2023-04-12_22h20.13.040,PRaM,2021.2.3,Linux x86_64,59.99160118,61b8f3437b89212fae0dfade
6,2.7753,space,1.1039,0,140,140,274,1,,,60fcd9699c3def3068403b90,6437747109b6c8293b111725,2023-04-12_22h20.13.040,PRaM,2021.2.3,Linux x86_64,59.99160118,61b8f3437b89212fae0dfade
6,2.9283,space,1.2722,0,141,141,134,1,,,60fcd9699c3def3068403b90,6437747109b6c8293b111725,2023-04-12_22h20.13.040,PRaM,2021.2.3,Linux x86_64,59.99160118,61b8f3437b89212fae0dfade
3,2.6927,space,1.5694,0,142,142,96,1,,,60fcd9699c3def3068403b90,6437747109b6c8293b111725,2023-04-12_22h20.13.040,PRaM,2021.2.3,Linux x86_64,59.99160118,61b8f3437b89212fae0dfade
2,2.8577,space,1.2674,0,143,143,68,1,,,60fcd9699c3def3068403b90,6437747109b6c8293b111725,2023-04-12_22h20.13.040,PRaM,2021.2.3,Linux x86_64,59.99160118,61b8f3437b89212fae0dfade
4,2.6292,space,0.9834,0,144,144,322,1,,,60fcd9699c3def3068403b90,6437747109b6c8293b111725,2023-04-12_22h20.13.040,PRaM,2021.2.3,Linux x86_64,59.99160118,61b8f3437b89212fae0dfade
7,2.5095,space,1.4007,0,145,145,281,1,,,60fcd9699c3def3068403b90,6437747109b6c8293b111725,2023-04-12_22h20.13.040,PRaM,2021.2.3,Linux x86_64,59.99160118,61b8f3437b89212fae0dfade
3,3.9267,space,2.684,0,146,146,195,1,,,60fcd9699c3def3068403b90,6437747109b6c8293b111725,2023-04-12_22h20.13.040,PRaM,2021.2.3,Linux x86_64,59.99160118,61b8f3437b89212fae0dfade
8,3.7036,space,2.0858,0,147,147,208,1,,,60fcd9699c3def3068403b90,6437747109b6c8293b111725,2023-04-12_22h20.13.040,PRaM,2021.2.3,Linux x86_64,59.99160118,61b8f3437b89212fae0dfade
3,2.9094,space,1.3668,0,148,148,77,1,,,60fcd9699c3def3068403b90,6437747109b6c8293b111725,2023-04-12_22h20.13.040,PRaM,2021.2.3,Linux x86_64,59.99160118,61b8f3437b89212fae0dfade
2,2.8964,space,1.2327,0,149,149,10,1,,,60fcd9699c3def3068403b90,6437747109b6c8293b111725,2023-04-12_22h20.13.040,PRaM,2021.2.3,Linux x86_64,59.99160118,61b8f3437b89212fae0dfade
6,2.7938,space,1.3523,0,150,150,173,1,,,60fcd9699c3def3068403b90,6437747109b6c8293b111725,2023-04-12_22h20.13.040,PRaM,2021.2.3,Linux x86_64,59.99160118,61b8f3437b89212fae0dfade
3,3.7744,space,2.1184,0,151,151,353,1,,,60fcd9699c3def3068403b90,6437747109b6c8293b111725,2023-04-12_22h20.13.040,PRaM,2021.2.3,Linux x86_64,59.99160118,61b8f3437b89212fae0dfade
6,2.6113,space,1.3032,0,152,152,45,1,,,60fcd9699c3def3068403b90,6437747109b6c8293b111725,2023-04-12_22h20.13.040,PRaM,2021.2.3,Linux x86_64,59.99160118,61b8f3437b89212fae0dfade
7,4.1107,space,2.4489,0,153,153,139,1,,,60fcd9699c3def3068403b90,6437747109b6c8293b111725,2023-04-12_22h20.13.040,PRaM,2021.2.3,Linux x86_64,59.99160118,61b8f3437b89212fae0dfade
1,3.709,space,2.3351,0,154,154,107,1,,,60fcd9699c3def3068403b90,6437747109b6c8293b111725,2023-04-12_22h20.13.040,PRaM,2021.2.3,Linux x86_64,59.99160118,61b8f3437b89212fae0dfade
6,2.7432,space,1.0882,0,155,155,20,1,,,60fcd9699c3def3068403b90,6437747109b6c8293b111725,2023-04-12_22h20.13.040,PRaM,2021.2.3,Linux x86_64,59.99160118,61b8f3437b89212fae0dfade
8,9.8555,space,8.4463,0,156,156,75,1,,,60fcd9699c3def3068403b90,6437747109b6c8293b111725,2023-04-12_22h20.13.040,PRaM,2021.2.3,Linux x86_64,59.99160118,61b8f3437b89212fae0dfade
2,2.8268,space,1.9813,0,157,157,8,1,,,60fcd9699c3def3068403b90,6437747109b6c8293b111725,2023-04-12_22h20.13.040,PRaM,2021.2.3,Linux x86_64,59.99160118,61b8f3437b89212fae0dfade
4,2.3643,space,0.9853,0,158,158,174,1,,,60fcd9699c3def3068403b90,6437747109b6c8293b111725,2023-04-12_22h20.13.040,PRaM,2021.2.3,Linux x86_64,59.99160118,61b8f3437b89212fae0dfade
3,3.7423,space,2.1294,0,159,159,289,1,,,60fcd9699c3def3068403b90,6437747109b6c8293b111725,2023-04-12_22h20.13.040,PRaM,2021.2.3,Linux x86_64,59.99160118,61b8f3437b89212fae0dfade
3,2.9449,space,1.2674,0,160,160,184,1,,,60fcd9699c3def3068403b90,6437747109b6c8293b111725,2023-04-12_22h20.13.040,PRaM,2021.2.3,Linux x86_64,59.99160118,61b8f3437b89212fae0dfade
3,2.5285,space,0.9027,0,161,161,253,1,,,60fcd9699c3def3068403b90,6437747109b6c8293b111725,2023-04-12_22h20.13.040,PRaM,2021.2.3,Linux x86_64,59.99160118,61b8f3437b89212fae0dfade
4,3.3257,space,1.6391,0,162,162,311,1,,,60fcd9699c3def3068403b90,6437747109b6c8293b111725,2023-04-12_22h20.13.040,PRaM,2021.2.3,Linux x86_64,59.99160118,61b8f3437b89212fae0dfade
2,3.8932,space,2.3179,0,163,163,144,1,,,60fcd9699c3def3068403b90,6437747109b6c8293b111725,2023-04-12_22h20.13.040,PRaM,2021.2.3,Linux x86_64,59.99160118,61b8f3437b89212fae0dfade
7,3.4395,space,1.8734,0,164,164,259,1,,,60fcd9699c3def3068403b90,6437747109b6c8293b111725,2023-04-12_22h20.13.040,PRaM,2021.2.3,Linux x86_64,59.99160118,61b8f3437b89212fae0dfade
3,3.4435,space,1.8508,0,165,165,191,1,,,60fcd9699c3def3068403b90,6437747109b6c8293b111725,2023-04-12_22h20.13.040,PRaM,2021.2.3,Linux x86_64,59.99160118,61b8f3437b89212fae0dfade
7,2.9766,space,1.3714,0,166,166,255,1,,,60fcd9699c3def3068403b90,6437747109b6c8293b111725,2023-04-12_22h20.13.040,PRaM,2021.2.3,Linux x86_64,59.99160118,61b8f3437b89212fae0dfade
3,3.0573,space,1.5476,0,167,167,124,1,,,60fcd9699c3def3068403b90,6437747109b6c8293b111725,2023-04-12_22h20.13.040,PRaM,2021.2.3,Linux x86_64,59.99160118,61b8f3437b89212fae0dfade
2,2.5425,space,1.2813,0,168,168,185,1,,,60fcd9699c3def3068403b90,6437747109b6c8293b111725,2023-04-12_22h20.13.040,PRaM,2021.2.3,Linux x86_64,59.99160118,61b8f3437b89212fae0dfade
8,3.7263,space,2.086,0,169,169,209,1,,,60fcd9699c3def3068403b90,6437747109b6c8293b111725,2023-04-12_22h20.13.040,PRaM,2021.2.3,Linux x86_64,59.99160118,61b8f3437b89212fae0dfade
4,4.1913,space,2.6842,0,170,170,307,1,,,60fcd9699c3def3068403b90,6437747109b6c8293b111725,2023-04-12_22h20.13.040,PRaM,2021.2.3,Linux x86_64,59.99160118,61b8f3437b89212fae0dfade
4,5.572,space,4.1816,0,171,171,103,1,,,60fcd9699c3def3068403b90,6437747109b6c8293b111725,2023-04-12_22h20.13.040,PRaM,2021.2.3,Linux x86_64,59.99160118,61b8f3437b89212fae0dfade
4,7.9233,space,7.1155,0,172,172,90,1,,,60fcd9699c3def3068403b90,6437747109b6c8293b111725,2023-04-12_22h20.13.040,PRaM,2021.2.3,Linux x86_64,59.99160118,61b8f3437b89212fae0dfade
6,4.0539,space,2.4496,0,173,173,55,1,,,60fcd9699c3def3068403b90,6437747109b6c8293b111725,2023-04-12_22h20.13.040,PRaM,2021.2.3,Linux x86_64,59.99160118,61b8f3437b89212fae0dfade
7,2.0103,space,0.3746,0,174,174,123,1,,,60fcd9699c3def3068403b90,6437747109b6c8293b111725,2023-04-12_22h20.13.040,PRaM,2021.2.3,Linux x86_64,59.99160118,61b8f3437b89212fae0dfade
7,2.1087,space,0.3864,0,175,175,200,1,,,60fcd9699c3def3068403b90,6437747109b6c8293b111725,2023-04-12_22h20.13.040,PRaM,2021.2.3,Linux x86_64,59.99160118,61b8f3437b89212fae0dfade
2,5.8569,space,4.2317,0,176,176,227,1,,,60fcd9699c3def3068403b90,6437747109b6c8293b111725,2023-04-12_22h20.13.040,PRaM,2021.2.3,Linux x86_64,59.99160118,61b8f3437b89212fae0dfade
7,3.4575,space,1.7995,0,177,177,246,1,,,60fcd9699c3def3068403b90,6437747109b6c8293b111725,2023-04-12_22h20.13.040,PRaM,2021.2.3,Linux x86_64,59.99160118,61b8f3437b89212fae0dfade
4,4.5576,space,2.9502,0,178,178,269,1,,,60fcd9699c3def3068403b90,6437747109b6c8293b111725,2023-04-12_22h20.13.040,PRaM,2021.2.3,Linux x86_64,59.99160118,61b8f3437b89212fae0dfade
6,2.5776,space,1.1716,0,179,179,147,1,,,60fcd9699c3def3068403b90,6437747109b6c8293b111725,2023-04-12_22h20.13.040,PRaM,2021.2.3,Linux x86_64,59.99160118,61b8f3437b89212fae0dfade
7,5.0071,space,3.4201,0,180,180,14,1,,,60fcd9699c3def3068403b90,6437747109b6c8293b111725,2023-04-12_22h20.13.040,PRaM,2021.2.3,Linux x86_64,59.99160118,61b8f3437b89212fae0dfade
4,2.6282,space,1.2711,0,181,181,244,1,,,60fcd9699c3def3068403b90,6437747109b6c8293b111725,2023-04-12_22h20.13.040,PRaM,2021.2.3,Linux x86_64,59.99160118,61b8f3437b89212fae0dfade
6,2.2287,space,0.6074,0,182,182,40,1,,,60fcd9699c3def3068403b90,6437747109b6c8293b111725,2023-04-12_22h20.13.040,PRaM,2021.2.3,Linux x86_64,59.99160118,61b8f3437b89212fae0dfade
7,5.5128,space,3.9182,0,183,183,196,1,,,60fcd9699c3def3068403b90,6437747109b6c8293b111725,2023-04-12_22h20.13.040,PRaM,2021.2.3,Linux x86_64,59.99160118,61b8f3437b89212fae0dfade
8,3.1079,space,1.6645,0,184,184,197,1,,,60fcd9699c3def3068403b90,6437747109b6c8293b111725,2023-04-12_22h20.13.040,PRaM,2021.2.3,Linux x86_64,59.99160118,61b8f3437b89212fae0dfade
5,3.9086,space,2.2367,0,185,185,142,1,,,60fcd9699c3def3068403b90,6437747109b6c8293b111725,2023-04-12_22h20.13.040,PRaM,2021.2.3,Linux x86_64,59.99160118,61b8f3437b89212fae0dfade
6,5.0721,space,3.3987,0,186,186,288,1,,,60fcd9699c3def3068403b90,6437747109b6c8293b111725,2023-04-12_22h20.13.040,PRaM,2021.2.3,Linux x86_64,59.99160118,61b8f3437b89212fae0dfade
3,3.3635,space,2.171,0,187,187,152,1,,,60fcd9699c3def3068403b90,6437747109b6c8293b111725,2023-04-12_22h20.13.040,PRaM,2021.2.3,Linux x86_64,59.99160118,61b8f3437b89212fae0dfade
3,3.0947,space,1.4673,0,188,188,125,1,,,60fcd9699c3def3068403b90,6437747109b6c8293b111725,2023-04-12_22h20.13.040,PRaM,2021.2.3,Linux x86_64,59.99160118,61b8f3437b89212fae0dfade
6,3.3284,space,1.9343,0,189,189,182,1,,,60fcd9699c3def3068403b90,6437747109b6c8293b111725,2023-04-12_22h20.13.040,PRaM,2021.2.3,Linux x86_64,59.99160118,61b8f3437b89212fae0dfade
7,3.5387,space,1.8729,0,190,190,301,1,,,60fcd9699c3def3068403b90,6437747109b6c8293b111725,2023-04-12_22h20.13.040,PRaM,2021.2.3,Linux x86_64,59.99160118,61b8f3437b89212fae0dfade
4,2.445,space,0.8695,0,191,191,332,1,,,60fcd9699c3def3068403b90,6437747109b6c8293b111725,2023-04-12_22h20.13.040,PRaM,2021.2.3,Linux x86_64,59.99160118,61b8f3437b89212fae0dfade
7,2.8795,space,1.5724,0,192,192,74,1,,,60fcd9699c3def3068403b90,6437747109b6c8293b111725,2023-04-12_22h20.13.040,PRaM,2021.2.3,Linux x86_64,59.99160118,61b8f3437b89212fae0dfade
6,3.3281,space,1.7381,0,193,193,328,1,,,60fcd9699c3def3068403b90,6437747109b6c8293b111725,2023-04-12_22h20.13.040,PRaM,2021.2.3,Linux x86_64,59.99160118,61b8f3437b89212fae0dfade
3,8.4095,space,6.9357,0,194,194,109,1,,,60fcd9699c3def3068403b90,6437747109b6c8293b111725,2023-04-12_22h20.13.040,PRaM,2021.2.3,Linux x86_64,59.99160118,61b8f3437b89212fae0dfade
3,3.6562,space,2.0679,0,195,195,9,1,,,60fcd9699c3def3068403b90,6437747109b6c8293b111725,2023-04-12_22h20.13.040,PRaM,2021.2.3,Linux x86_64,59.99160118,61b8f3437b89212fae0dfade
2,2.2436,space,0.5829,0,196,196,78,1,,,60fcd9699c3def3068403b90,6437747109b6c8293b111725,2023-04-12_22h20.13.040,PRaM,2021.2.3,Linux x86_64,59.99160118,61b8f3437b89212fae0dfade
4,3.0935,space,1.4508,0,197,197,344,1,,,60fcd9699c3def3068403b90,6437747109b6c8293b111725,2023-04-12_22h20.13.040,PRaM,2021.2.3,Linux x86_64,59.99160118,61b8f3437b89212fae0dfade
6,2.7776,space,1.1328,0,198,198,119,1,,,60fcd9699c3def3068403b90,6437747109b6c8293b111725,2023-04-12_22h20.13.040,PRaM,2021.2.3,Linux x86_64,59.99160118,61b8f3437b89212fae0dfade
4,3.1282,space,1.4728,0,199,199,121,1,,,60fcd9699c3def3068403b90,6437747109b6c8293b111725,2023-04-12_22h20.13.040,PRaM,2021.2.3,Linux x86_64,59.99160118,61b8f3437b89212fae0dfade
4,2.6105,space,1.6036,0,200,200,146,1,,,60fcd9699c3def3068403b90,6437747109b6c8293b111725,2023-04-12_22h20.13.040,PRaM,2021.2.3,Linux x86_64,59.99160118,61b8f3437b89212fae0dfade
7,2.2813,space,0.7703,0,201,201,334,1,,,60fcd9699c3def3068403b90,6437747109b6c8293b111725,2023-04-12_22h20.13.040,PRaM,2021.2.3,Linux x86_64,59.99160118,61b8f3437b89212fae0dfade
2,3.6584,space,2.0025,0,202,202,76,1,,,60fcd9699c3def3068403b90,6437747109b6c8293b111725,2023-04-12_22h20.13.040,PRaM,2021.2.3,Linux x86_64,59.99160118,61b8f3437b89212fae0dfade
6,3.0399,space,1.9338,0,203,203,19,1,,,60fcd9699c3def3068403b90,6437747109b6c8293b111725,2023-04-12_22h20.13.040,PRaM,2021.2.3,Linux x86_64,59.99160118,61b8f3437b89212fae0dfade
2,6.0535,space,4.4505,0,204,204,308,1,,,60fcd9699c3def3068403b90,6437747109b6c8293b111725,2023-04-12_22h20.13.040,PRaM,2021.2.3,Linux x86_64,59.99160118,61b8f3437b89212fae0dfade
3,4.2768,space,2.7653,0,205,205,220,1,,,60fcd9699c3def3068403b90,6437747109b6c8293b111725,2023-04-12_22h20.13.040,PRaM,2021.2.3,Linux x86_64,59.99160118,61b8f3437b89212fae0dfade
3,4.9069,space,3.7679,0,206,206,252,1,,,60fcd9699c3def3068403b90,6437747109b6c8293b111725,2023-04-12_22h20.13.040,PRaM,2021.2.3,Linux x86_64,59.99160118,61b8f3437b89212fae0dfade
3,3.1771,space,1.569,0,207,207,359,1,,,60fcd9699c3def3068403b90,6437747109b6c8293b111725,2023-04-12_22h20.13.040,PRaM,2021.2.3,Linux x86_64,59.99160118,61b8f3437b89212fae0dfade
6,4.8241,space,3.5856,0,208,208,149,1,,,60fcd9699c3def3068403b90,6437747109b6c8293b111725,2023-04-12_22h20.13.040,PRaM,2021.2.3,Linux x86_64,59.99160118,61b8f3437b89212fae0dfade
2,2.5052,space,0.8509,0,209,209,214,1,,,60fcd9699c3def3068403b90,6437747109b6c8293b111725,2023-04-12_22h20.13.040,PRaM,2021.2.3,Linux x86_64,59.99160118,61b8f3437b89212fae0dfade
2,2.4322,space,0.7553,0,210,210,375,1,,,60fcd9699c3def3068403b90,6437747109b6c8293b111725,2023-04-12_22h20.13.040,PRaM,2021.2.3,Linux x86_64,59.99160118,61b8f3437b89212fae0dfade
6,2.9129,space,1.1659,0,211,211,133,1,,,60fcd9699c3def3068403b90,6437747109b6c8293b111725,2023-04-12_22h20.13.040,PRaM,2021.2.3,Linux x86_64,59.99160118,61b8f3437b89212fae0dfade
3,3.8831,space,2.2174,0,212,212,268,1,,,60fcd9699c3def3068403b90,6437747109b6c8293b111725,2023-04-12_22h20.13.040,PRaM,2021.2.3,Linux x86_64,59.99160118,61b8f3437b89212fae0dfade
2,2.544,space,1.0725,0,213,213,116,1,,,60fcd9699c3def3068403b90,6437747109b6c8293b111725,2023-04-12_22h20.13.040,PRaM,2021.2.3,Linux x86_64,59.99160118,61b8f3437b89212fae0dfade
3,2.3967,space,0.6862,0,214,214,183,1,,,60fcd9699c3def3068403b90,6437747109b6c8293b111725,2023-04-12_22h20.13.040,PRaM,2021.2.3,Linux x86_64,59.99160118,61b8f3437b89212fae0dfade
2,2.9622,space,1.4427,0,215,215,330,1,,,60fcd9699c3def3068403b90,6437747109b6c8293b111725,2023-04-12_22h20.13.040,PRaM,2021.2.3,Linux x86_64,59.99160118,61b8f3437b89212fae0dfade
4,6.8244,space,5.2544,0,216,216,201,1,,,60fcd9699c3def3068403b90,6437747109b6c8293b111725,2023-04-12_22h20.13.040,PRaM,2021.2.3,Linux x86_64,59.99160118,61b8f3437b89212fae0dfade
7,2.9049,space,1.4012,0,217,217,3,1,,,60fcd9699c3def3068403b90,6437747109b6c8293b111725,2023-04-12_22h20.13.040,PRaM,2021.2.3,Linux x86_64,59.99160118,61b8f3437b89212fae0dfade
7,3.4795,space,1.936,0,218,218,325,1,,,60fcd9699c3def3068403b90,6437747109b6c8293b111725,2023-04-12_22h20.13.040,PRaM,2021.2.3,Linux x86_64,59.99160118,61b8f3437b89212fae0dfade
3,3.6601,space,3.2056,0,219,219,97,1,,,60fcd9699c3def3068403b90,6437747109b6c8293b111725,2023-04-12_22h20.13.040,PRaM,2021.2.3,Linux x86_64,59.99160118,61b8f3437b89212fae0dfade
3,3.5765,space,3.4499,0,220,220,210,1,,,60fcd9699c3def3068403b90,6437747109b6c8293b111725,2023-04-12_22h20.13.040,PRaM,2021.2.3,Linux x86_64,59.99160118,61b8f3437b89212fae0dfade
6,2.3478,space,1.8365,0,221,221,228,1,,,60fcd9699c3def3068403b90,6437747109b6c8293b111725,2023-04-12_22h20.13.040,PRaM,2021.2.3,Linux x86_64,59.99160118,61b8f3437b89212fae0dfade
3,4.3758,space,2.9338,0,222,222,287,1,,,60fcd9699c3def3068403b90,6437747109b6c8293b111725,2023-04-12_22h20.13.040,PRaM,2021.2.3,Linux x86_64,59.99160118,61b8f3437b89212fae0dfade
3,1.9756,space,0.4517,0,223,223,193,1,,,60fcd9699c3def3068403b90,6437747109b6c8293b111725,2023-04-12_22h20.13.040,PRaM,2021.2.3,Linux x86_64,59.99160118,61b8f3437b89212fae0dfade
2,2.7449,space,1.2012,0,224,224,54,1,,,60fcd9699c3def3068403b90,6437747109b6c8293b111725,2023-04-12_22h20.13.040,PRaM,2021.2.3,Linux x86_64,59.99160118,61b8f3437b89212fae0dfade
8,4.2589,space,2.7821,0,225,225,72,1,,,60fcd9699c3def3068403b90,6437747109b6c8293b111725,2023-04-12_22h20.13.040,PRaM,2021.2.3,Linux x86_64,59.99160118,61b8f3437b89212fae0dfade
2,3.291,space,2.4048,0,226,226,24,1,,,60fcd9699c3def3068403b90,6437747109b6c8293b111725,2023-04-12_22h20.13.040,PRaM,2021.2.3,Linux x86_64,59.99160118,61b8f3437b89212fae0dfade
3,3.2763,space,3.8446,0,227,227,240,1,,,60fcd9699c3def3068403b90,6437747109b6c8293b111725,2023-04-12_22h20.13.040,PRaM,2021.2.3,Linux x86_64,59.99160118,61b8f3437b89212fae0dfade
3,3.589,space,1.9315,0,228,228,48,1,,,60fcd9699c3def3068403b90,6437747109b6c8293b111725,2023-04-12_22h20.13.040,PRaM,2021.2.3,Linux x86_64,59.99160118,61b8f3437b89212fae0dfade
2,2.228,space,0.7887,0,229,229,70,1,,,60fcd9699c3def3068403b90,6437747109b6c8293b111725,2023-04-12_22h20.13.040,PRaM,2021.2.3,Linux x86_64,59.99160118,61b8f3437b89212fae0dfade
3,1.8628,space,0.1367,0,230,230,162,1,,,60fcd9699c3def3068403b90,6437747109b6c8293b111725,2023-04-12_22h20.13.040,PRaM,2021.2.3,Linux x86_64,59.99160118,61b8f3437b89212fae0dfade
2,2.008,space,0.4695,0,231,231,245,1,,,60fcd9699c3def3068403b90,6437747109b6c8293b111725,2023-04-12_22h20.13.040,PRaM,2021.2.3,Linux x86_64,59.99160118,61b8f3437b89212fae0dfade
3,1.9936,space,0.3903,0,232,232,291,1,,,60fcd9699c3def3068403b90,6437747109b6c8293b111725,2023-04-12_22h20.13.040,PRaM,2021.2.3,Linux x86_64,59.99160118,61b8f3437b89212fae0dfade
3,1.4108,space,0.6714,0,233,233,358,1,,,60fcd9699c3def3068403b90,6437747109b6c8293b111725,2023-04-12_22h20.13.040,PRaM,2021.2.3,Linux x86_64,59.99160118,61b8f3437b89212fae0dfade
7,5.1199,space,3.5689,0,234,234,251,1,,,60fcd9699c3def3068403b90,6437747109b6c8293b111725,2023-04-12_22h20.13.040,PRaM,2021.2.3,Linux x86_64,59.99160118,61b8f3437b89212fae0dfade
7,4.5704,space,3.8663,0,235,235,296,1,,,60fcd9699c3def3068403b90,6437747109b6c8293b111725,2023-04-12_22h20.13.040,PRaM,2021.2.3,Linux x86_64,59.99160118,61b8f3437b89212fae0dfade
2,2.6271,space,1.4996,0,236,236,238,1,,,60fcd9699c3def3068403b90,6437747109b6c8293b111725,2023-04-12_22h20.13.040,PRaM,2021.2.3,Linux x86_64,59.99160118,61b8f3437b89212fae0dfade
4,2.1447,space,0.6208,0,237,237,158,1,,,60fcd9699c3def3068403b90,6437747109b6c8293b111725,2023-04-12_22h20.13.040,PRaM,2021.2.3,Linux x86_64,59.99160118,61b8f3437b89212fae0dfade
3,3.6096,space,1.917,0,238,238,299,1,,,60fcd9699c3def3068403b90,6437747109b6c8293b111725,2023-04-12_22h20.13.040,PRaM,2021.2.3,Linux x86_64,59.99160118,61b8f3437b89212fae0dfade
2,1.8609,space,0.1712,0,239,239,66,1,,,60fcd9699c3def3068403b90,6437747109b6c8293b111725,2023-04-12_22h20.13.040,PRaM,2021.2.3,Linux x86_64,59.99160118,61b8f3437b89212fae0dfade
2,4.4204,space,3.3207,0,240,240,189,1,,,60fcd9699c3def3068403b90,6437747109b6c8293b111725,2023-04-12_22h20.13.040,PRaM,2021.2.3,Linux x86_64,59.99160118,61b8f3437b89212fae0dfade
2,2.1253,space,0.5362,0,241,241,260,1,,,60fcd9699c3def3068403b90,6437747109b6c8293b111725,2023-04-12_22h20.13.040,PRaM,2021.2.3,Linux x86_64,59.99160118,61b8f3437b89212fae0dfade
3,1.7097,space,0.2518,0,242,242,338,1,,,60fcd9699c3def3068403b90,6437747109b6c8293b111725,2023-04-12_22h20.13.040,PRaM,2021.2.3,Linux x86_64,59.99160118,61b8f3437b89212fae0dfade
1,6.4926,space,5.2332,0,243,243,67,1,,,60fcd9699c3def3068403b90,6437747109b6c8293b111725,2023-04-12_22h20.13.040,PRaM,2021.2.3,Linux x86_64,59.99160118,61b8f3437b89212fae0dfade
2,2.3818,space,0.8879,0,244,244,303,1,,,60fcd9699c3def3068403b90,6437747109b6c8293b111725,2023-04-12_22h20.13.040,PRaM,2021.2.3,Linux x86_64,59.99160118,61b8f3437b89212fae0dfade
7,2.5214,space,1.385,0,245,245,42,1,,,60fcd9699c3def3068403b90,6437747109b6c8293b111725,2023-04-12_22h20.13.040,PRaM,2021.2.3,Linux x86_64,59.99160118,61b8f3437b89212fae0dfade
3,8.4413,space,9.7642,0,246,246,169,1,,,60fcd9699c3def3068403b90,6437747109b6c8293b111725,2023-04-12_22h20.13.040,PRaM,2021.2.3,Linux x86_64,59.99160118,61b8f3437b89212fae0dfade
7,2.7592,space,1.1708,0,247,247,225,1,,,60fcd9699c3def3068403b90,6437747109b6c8293b111725,2023-04-12_22h20.13.040,PRaM,2021.2.3,Linux x86_64,59.99160118,61b8f3437b89212fae0dfade
7,2.6885,space,1.0861,0,248,248,29,1,,,60fcd9699c3def3068403b90,6437747109b6c8293b111725,2023-04-12_22h20.13.040,PRaM,2021.2.3,Linux x86_64,59.99160118,61b8f3437b89212fae0dfade
8,3.2247,space,1.6198,0,249,249,4,1,,,60fcd9699c3def3068403b90,6437747109b6c8293b111725,2023-04-12_22h20.13.040,PRaM,2021.2.3,Linux x86_64,59.99160118,61b8f3437b89212fae0dfade
8,1.797,space,0.1188,0,250,250,327,1,,,60fcd9699c3def3068403b90,6437747109b6c8293b111725,2023-04-12_22h20.13.040,PRaM,2021.2.3,Linux x86_64,59.99160118,61b8f3437b89212fae0dfade
7,2.8617,space,1.2029,0,251,251,172,1,,,60fcd9699c3def3068403b90,6437747109b6c8293b111725,2023-04-12_22h20.13.040,PRaM,2021.2.3,Linux x86_64,59.99160118,61b8f3437b89212fae0dfade
2,3.2945,space,1.9358,0,252,252,347,1,,,60fcd9699c3def3068403b90,6437747109b6c8293b111725,2023-04-12_22h20.13.040,PRaM,2021.2.3,Linux x86_64,59.99160118,61b8f3437b89212fae0dfade
3,1.8294,space,0.1523,0,253,253,206,1,,,60fcd9699c3def3068403b90,6437747109b6c8293b111725,2023-04-12_22h20.13.040,PRaM,2021.2.3,Linux x86_64,59.99160118,61b8f3437b89212fae0dfade
2,1.5282,space,0.6193,0,254,254,315,1,,,60fcd9699c3def3068403b90,6437747109b6c8293b111725,2023-04-12_22h20.13.040,PRaM,2021.2.3,Linux x86_64,59.99160118,61b8f3437b89212fae0dfade
3,3.3758,space,1.6522,0,255,255,89,1,,,60fcd9699c3def3068403b90,6437747109b6c8293b111725,2023-04-12_22h20.13.040,PRaM,2021.2.3,Linux x86_64,59.99160118,61b8f3437b89212fae0dfade
4,1.1762,space,0.2358,0,256,256,273,1,,,60fcd9699c3def3068403b90,6437747109b6c8293b111725,2023-04-12_22h20.13.040,PRaM,2021.2.3,Linux x86_64,59.99160118,61b8f3437b89212fae0dfade
2,1.9788,space,0.2873,0,257,257,254,1,,,60fcd9699c3def3068403b90,6437747109b6c8293b111725,2023-04-12_22h20.13.040,PRaM,2021.2.3,Linux x86_64,59.99160118,61b8f3437b89212fae0dfade
4,3.1591,space,1.4626,0,258,258,57,1,,,60fcd9699c3def3068403b90,6437747109b6c8293b111725,2023-04-12_22h20.13.040,PRaM,2021.2.3,Linux x86_64,59.99160118,61b8f3437b89212fae0dfade
2,2.7947,space,1.0875,0,259,259,290,1,,,60fcd9699c3def3068403b90,6437747109b6c8293b111725,2023-04-12_22h20.13.040,PRaM,2021.2.3,Linux x86_64,59.99160118,61b8f3437b89212fae0dfade
3,2.0284,space,0.4486,0,260,260,305,1,,,60fcd9699c3def3068403b90,6437747109b6c8293b111725,2023-04-12_22h20.13.040,PRaM,2021.2.3,Linux x86_64,59.99160118,61b8f3437b89212fae0dfade
2,2.5786,space,0.9542,0,261,261,94,1,,,60fcd9699c3def3068403b90,6437747109b6c8293b111725,2023-04-12_22h20.13.040,PRaM,2021.2.3,Linux x86_64,59.99160118,61b8f3437b89212fae0dfade
3,1.5632,space,0.6828,0,262,262,360,1,,,60fcd9699c3def3068403b90,6437747109b6c8293b111725,2023-04-12_22h20.13.040,PRaM,2021.2.3,Linux x86_64,59.99160118,61b8f3437b89212fae0dfade
3,3.5882,space,1.8638,0,263,263,7,1,,,60fcd9699c3def3068403b90,6437747109b6c8293b111725,2023-04-12_22h20.13.040,PRaM,2021.2.3,Linux x86_64,59.99160118,61b8f3437b89212fae0dfade
2,2.4289,space,0.7695,0,264,264,329,1,,,60fcd9699c3def3068403b90,6437747109b6c8293b111725,2023-04-12_22h20.13.040,PRaM,2021.2.3,Linux x86_64,59.99160118,61b8f3437b89212fae0dfade
3,1.8935,space,0.187,0,265,265,292,1,,,60fcd9699c3def3068403b90,6437747109b6c8293b111725,2023-04-12_22h20.13.040,PRaM,2021.2.3,Linux x86_64,59.99160118,61b8f3437b89212fae0dfade
4,1.6767,space,0.2145,0,266,266,320,1,,,60fcd9699c3def3068403b90,6437747109b6c8293b111725,2023-04-12_22h20.13.040,PRaM,2021.2.3,Linux x86_64,59.99160118,61b8f3437b89212fae0dfade
3,2.0772,space,0.5528,0,267,267,164,1,,,60fcd9699c3def3068403b90,6437747109b6c8293b111725,2023-04-12_22h20.13.040,PRaM,2021.2.3,Linux x86_64,59.99160118,61b8f3437b89212fae0dfade
6,2.5908,space,0.9541,0,268,268,216,1,,,60fcd9699c3def3068403b90,6437747109b6c8293b111725,2023-04-12_22h20.13.040,PRaM,2021.2.3,Linux x86_64,59.99160118,61b8f3437b89212fae0dfade
6,3.345,space,1.6529,0,269,269,62,1,,,60fcd9699c3def3068403b90,6437747109b6c8293b111725,2023-04-12_22h20.13.040,PRaM,2021.2.3,Linux x86_64,59.99160118,61b8f3437b89212fae0dfade
2,2.6944,space,0.9701,0,270,270,318,1,,,60fcd9699c3def3068403b90,6437747109b6c8293b111725,2023-04-12_22h20.13.040,PRaM,2021.2.3,Linux x86_64,59.99160118,61b8f3437b89212fae0dfade
6,4.1909,space,2.615,0,271,271,306,1,,,60fcd9699c3def3068403b90,6437747109b6c8293b111725,2023-04-12_22h20.13.040,PRaM,2021.2.3,Linux x86_64,59.99160118,61b8f3437b89212fae0dfade
7,3.2728,space,2.5318,0,272,272,331,1,,,60fcd9699c3def3068403b90,6437747109b6c8293b111725,2023-04-12_22h20.13.040,PRaM,2021.2.3,Linux x86_64,59.99160118,61b8f3437b89212fae0dfade
3,3.5798,space,1.9357,0,273,273,377,1,,,60fcd9699c3def3068403b90,6437747109b6c8293b111725,2023-04-12_22h20.13.040,PRaM,2021.2.3,Linux x86_64,59.99160118,61b8f3437b89212fae0dfade
2,1.9943,space,0.2176,0,274,274,229,1,,,60fcd9699c3def3068403b90,6437747109b6c8293b111725,2023-04-12_22h20.13.040,PRaM,2021.2.3,Linux x86_64,59.99160118,61b8f3437b89212fae0dfade
2,2.8105,space,1.2678,0,275,275,373,1,,,60fcd9699c3def3068403b90,6437747109b6c8293b111725,2023-04-12_22h20.13.040,PRaM,2021.2.3,Linux x86_64,59.99160118,61b8f3437b89212fae0dfade
3,2.3425,space,0.6568,0,276,276,98,1,,,60fcd9699c3def3068403b90,6437747109b6c8293b111725,2023-04-12_22h20.13.040,PRaM,2021.2.3,Linux x86_64,59.99160118,61b8f3437b89212fae0dfade
3,2.0985,space,0.3833,0,277,277,256,1,,,60fcd9699c3def3068403b90,6437747109b6c8293b111725,2023-04-12_22h20.13.040,PRaM,2021.2.3,Linux x86_64,59.99160118,61b8f3437b89212fae0dfade
2,2.5279,space,0.9852,0,278,278,140,1,,,60fcd9699c3def3068403b90,6437747109b6c8293b111725,2023-04-12_22h20.13.040,PRaM,2021.2.3,Linux x86_64,59.99160118,61b8f3437b89212fae0dfade
3,1.9947,space,0.2526,0,279,279,11,1,,,60fcd9699c3def3068403b90,6437747109b6c8293b111725,2023-04-12_22h20.13.040,PRaM,2021.2.3,Linux x86_64,59.99160118,61b8f3437b89212fae0dfade
2,2.5295,space,1.5515,0,280,280,37,1,,,60fcd9699c3def3068403b90,6437747109b6c8293b111725,2023-04-12_22h20.13.040,PRaM,2021.2.3,Linux x86_64,59.99160118,61b8f3437b89212fae0dfade
3,3.6462,space,2.0201,0,281,281,155,1,,,60fcd9699c3def3068403b90,6437747109b6c8293b111725,2023-04-12_22h20.13.040,PRaM,2021.2.3,Linux x86_64,59.99160118,61b8f3437b89212fae0dfade
4,2.1935,space,0.5414,0,282,282,194,1,,,60fcd9699c3def3068403b90,6437747109b6c8293b111725,2023-04-12_22h20.13.040,PRaM,2021.2.3,Linux x86_64,59.99160118,61b8f3437b89212fae0dfade
3,18.036,space,16.461,0,283,283,157,1,,,60fcd9699c3def3068403b90,6437747109b6c8293b111725,2023-04-12_22h20.13.040,PRaM,2021.2.3,Linux x86_64,59.99160118,61b8f3437b89212fae0dfade
4,1.445,space,0.9706,0,284,284,205,1,,,60fcd9699c3def3068403b90,6437747109b6c8293b111725,2023-04-12_22h20.13.040,PRaM,2021.2.3,Linux x86_64,59.99160118,61b8f3437b89212fae0dfade
6,1.8628,space,0.1852,0,285,285,272,1,,,60fcd9699c3def3068403b90,6437747109b6c8293b111725,2023-04-12_22h20.13.040,PRaM,2021.2.3,Linux x86_64,59.99160118,61b8f3437b89212fae0dfade
3,2.7762,space,1.2798,0,286,286,85,1,,,60fcd9699c3def3068403b90,6437747109b6c8293b111725,2023-04-12_22h20.13.040,PRaM,2021.2.3,Linux x86_64,59.99160118,61b8f3437b89212fae0dfade
4,2.072,space,0.4522,0,287,287,51,1,,,60fcd9699c3def3068403b90,6437747109b6c8293b111725,2023-04-12_22h20.13.040,PRaM,2021.2.3,Linux x86_64,59.99160118,61b8f3437b89212fae0dfade
6,2.1132,space,0.4703,0,288,288,352,1,,,60fcd9699c3def3068403b90,6437747109b6c8293b111725,2023-04-12_22h20.13.040,PRaM,2021.2.3,Linux x86_64,59.99160118,61b8f3437b89212fae0dfade
7,1.3782,space,0.6684,0,289,289,21,1,,,60fcd9699c3def3068403b90,6437747109b6c8293b111725,2023-04-12_22h20.13.040,PRaM,2021.2.3,Linux x86_64,59.99160118,61b8f3437b89212fae0dfade
3,2.8761,space,1.2848,0,290,290,41,1,,,60fcd9699c3def3068403b90,6437747109b6c8293b111725,2023-04-12_22h20.13.040,PRaM,2021.2.3,Linux x86_64,59.99160118,61b8f3437b89212fae0dfade
4,1.4936,space,0.5187,0,291,291,5,1,,,60fcd9699c3def3068403b90,6437747109b6c8293b111725,2023-04-12_22h20.13.040,PRaM,2021.2.3,Linux x86_64,59.99160118,61b8f3437b89212fae0dfade
2,5.2067,space,3.5364,0,292,292,243,1,,,60fcd9699c3def3068403b90,6437747109b6c8293b111725,2023-04-12_22h20.13.040,PRaM,2021.2.3,Linux x86_64,59.99160118,61b8f3437b89212fae0dfade
2,2.5271,space,0.8521,0,293,293,309,1,,,60fcd9699c3def3068403b90,6437747109b6c8293b111725,2023-04-12_22h20.13.040,PRaM,2021.2.3,Linux x86_64,59.99160118,61b8f3437b89212fae0dfade
7,2.7756,space,1.0672,0,294,294,17,1,,,60fcd9699c3def3068403b90,6437747109b6c8293b111725,2023-04-12_22h20.13.040,PRaM,2021.2.3,Linux x86_64,59.99160118,61b8f3437b89212fae0dfade
4,3.6239,space,1.9359,0,295,295,71,1,,,60fcd9699c3def3068403b90,6437747109b6c8293b111725,2023-04-12_22h20.13.040,PRaM,2021.2.3,Linux x86_64,59.99160118,61b8f3437b89212fae0dfade
2,3.4385,space,1.7332,0,296,296,298,1,,,60fcd9699c3def3068403b90,6437747109b6c8293b111725,2023-04-12_22h20.13.040,PRaM,2021.2.3,Linux x86_64,59.99160118,61b8f3437b89212fae0dfade
3,1.8463,space,0.1045,0,297,297,346,1,,,60fcd9699c3def3068403b90,6437747109b6c8293b111725,2023-04-12_22h20.13.040,PRaM,2021.2.3,Linux x86_64,59.99160118,61b8f3437b89212fae0dfade
4,1.6946,space,0.6639,0,298,298,337,1,,,60fcd9699c3def3068403b90,6437747109b6c8293b111725,2023-04-12_22h20.13.040,PRaM,2021.2.3,Linux x86_64,59.99160118,61b8f3437b89212fae0dfade
2,2.1594,space,0.5021,0,299,299,137,1,,,60fcd9699c3def3068403b90,6437747109b6c8293b111725,2023-04-12_22h20.13.040,PRaM,2021.2.3,Linux x86_64,59.99160118,61b8f3437b89212fae0dfade
3,2.1094,space,0.5143,0,300,300,178,1,,,60fcd9699c3def3068403b90,6437747109b6c8293b111725,2023-04-12_22h20.13.040,PRaM,2021.2.3,Linux x86_64,59.99160118,61b8f3437b89212fae0dfade
8,2.9362,space,1.2506,0,301,301,59,1,,,60fcd9699c3def3068403b90,6437747109b6c8293b111725,2023-04-12_22h20.13.040,PRaM,2021.2.3,Linux x86_64,59.99160118,61b8f3437b89212fae0dfade
7,2.0449,space,0.5369,0,302,302,180,1,,,60fcd9699c3def3068403b90,6437747109b6c8293b111725,2023-04-12_22h20.13.040,PRaM,2021.2.3,Linux x86_64,59.99160118,61b8f3437b89212fae0dfade
3,2.1937,space,0.5236,0,303,303,223,1,,,60fcd9699c3def3068403b90,6437747109b6c8293b111725,2023-04-12_22h20.13.040,PRaM,2021.2.3,Linux x86_64,59.99160118,61b8f3437b89212fae0dfade
7,2.175,space,0.4539,0,304,304,323,1,,,60fcd9699c3def3068403b90,6437747109b6c8293b111725,2023-04-12_22h20.13.040,PRaM,2021.2.3,Linux x86_64,59.99160118,61b8f3437b89212fae0dfade
2,1.9648,space,0.4373,0,305,305,15,1,,,60fcd9699c3def3068403b90,6437747109b6c8293b111725,2023-04-12_22h20.13.040,PRaM,2021.2.3,Linux x86_64,59.99160118,61b8f3437b89212fae0dfade
2,3.9283,space,2.1158,0,306,306,284,1,,,60fcd9699c3def3068403b90,6437747109b6c8293b111725,2023-04-12_22h20.13.040,PRaM,2021.2.3,Linux x86_64,59.99160118,61b8f3437b89212fae0dfade
2,2.1764,space,0.6364,0,307,307,282,1,,,60fcd9699c3def3068403b90,6437747109b6c8293b111725,2023-04-12_22h20.13.040,PRaM,2021.2.3,Linux x86_64,59.99160118,61b8f3437b89212fae0dfade
7,4.5405,space,3.9473,0,308,308,279,1,,,60fcd9699c3def3068403b90,6437747109b6c8293b111725,2023-04-12_22h20.13.040,PRaM,2021.2.3,Linux x86_64,59.99160118,61b8f3437b89212fae0dfade
3,3.7905,space,1.999,0,309,309,221,1,,,60fcd9699c3def3068403b90,6437747109b6c8293b111725,2023-04-12_22h20.13.040,PRaM,2021.2.3,Linux x86_64,59.99160118,61b8f3437b89212fae0dfade
2,3.0115,space,1.2666,0,310,310,312,1,,,60fcd9699c3def3068403b90,6437747109b6c8293b111725,2023-04-12_22h20.13.040,PRaM,2021.2.3,Linux x86_64,59.99160118,61b8f3437b89212fae0dfade
2,1.8122,space,1.0559,0,311,311,99,1,,,60fcd9699c3def3068403b90,6437747109b6c8293b111725,2023-04-12_22h20.13.040,PRaM,2021.2.3,Linux x86_64,59.99160118,61b8f3437b89212fae0dfade
2,2.2434,space,0.7033,0,312,312,333,1,,,60fcd9699c3def3068403b90,6437747109b6c8293b111725,2023-04-12_22h20.13.040,PRaM,2021.2.3,Linux x86_64,59.99160118,61b8f3437b89212fae0dfade
4,2.5449,space,0.8503,0,313,313,341,1,,,60fcd9699c3def3068403b90,6437747109b6c8293b111725,2023-04-12_22h20.13.040,PRaM,2021.2.3,Linux x86_64,59.99160118,61b8f3437b89212fae0dfade
2,3.0264,space,1.5497,0,314,314,27,1,,,60fcd9699c3def3068403b90,6437747109b6c8293b111725,2023-04-12_22h20.13.040,PRaM,2021.2.3,Linux x86_64,59.99160118,61b8f3437b89212fae0dfade
3,2.0456,space,0.4032,0,315,315,343,1,,,60fcd9699c3def3068403b90,6437747109b6c8293b111725,2023-04-12_22h20.13.040,PRaM,2021.2.3,Linux x86_64,59.99160118,61b8f3437b89212fae0dfade
2,1.7939,space,0.1034,0,316,316,222,1,,,60fcd9699c3def3068403b90,6437747109b6c8293b111725,2023-04-12_22h20.13.040,PRaM,2021.2.3,Linux x86_64,59.99160118,61b8f3437b89212fae0dfade
3,1.9476,space,0.7859,0,317,317,26,1,,,60fcd9699c3def3068403b90,6437747109b6c8293b111725,2023-04-12_22h20.13.040,PRaM,2021.2.3,Linux x86_64,59.99160118,61b8f3437b89212fae0dfade
6,4.4935,space,2.8385,0,318,318,46,1,,,60fcd9699c3def3068403b90,6437747109b6c8293b111725,2023-04-12_22h20.13.040,PRaM,2021.2.3,Linux x86_64,59.99160118,61b8f3437b89212fae0dfade
3,2.2971,space,0.5345,0,319,319,234,1,,,60fcd9699c3def3068403b90,6437747109b6c8293b111725,2023-04-12_22h20.13.040,PRaM,2021.2.3,Linux x86_64,59.99160118,61b8f3437b89212fae0dfade
8,3.2001,space,1.5378,0,320,320,102,1,,,60fcd9699c3def3068403b90,6437747109b6c8293b111725,2023-04-12_22h20.13.040,PRaM,2021.2.3,Linux x86_64,59.99160118,61b8f3437b89212fae0dfade
7,3.0401,space,1.4513,0,321,321,88,1,,,60fcd9699c3def3068403b90,6437747109b6c8293b111725,2023-04-12_22h20.13.040,PRaM,2021.2.3,Linux x86_64,59.99160118,61b8f3437b89212fae0dfade
7,16.3025,space,14.7263,0,322,322,84,1,,,60fcd9699c3def3068403b90,6437747109b6c8293b111725,2023-04-12_22h20.13.040,PRaM,2021.2.3,Linux x86_64,59.99160118,61b8f3437b89212fae0dfade
2,3.0108,space,1.4332,0,323,323,215,1,,,60fcd9699c3def3068403b90,6437747109b6c8293b111725,2023-04-12_22h20.13.040,PRaM,2021.2.3,Linux x86_64,59.99160118,61b8f3437b89212fae0dfade
3,2.6921,space,0.9353,0,324,324,324,1,,,60fcd9699c3def3068403b90,6437747109b6c8293b111725,2023-04-12_22h20.13.040,PRaM,2021.2.3,Linux x86_64,59.99160118,61b8f3437b89212fae0dfade
2,2.1769,space,0.5858,0,325,325,87,1,,,60fcd9699c3def3068403b90,6437747109b6c8293b111725,2023-04-12_22h20.13.040,PRaM,2021.2.3,Linux x86_64,59.99160118,61b8f3437b89212fae0dfade
2,2.2934,space,0.6046,0,326,326,250,1,,,60fcd9699c3def3068403b90,6437747109b6c8293b111725,2023-04-12_22h20.13.040,PRaM,2021.2.3,Linux x86_64,59.99160118,61b8f3437b89212fae0dfade
8,4.0742,space,2.4517,0,327,327,226,1,,,60fcd9699c3def3068403b90,6437747109b6c8293b111725,2023-04-12_22h20.13.040,PRaM,2021.2.3,Linux x86_64,59.99160118,61b8f3437b89212fae0dfade
8,9.987,space,14.5609,0,328,328,112,1,,,60fcd9699c3def3068403b90,6437747109b6c8293b111725,2023-04-12_22h20.13.040,PRaM,2021.2.3,Linux x86_64,59.99160118,61b8f3437b89212fae0dfade
3,4.805,space,3.1315,0,329,329,369,1,,,60fcd9699c3def3068403b90,6437747109b6c8293b111725,2023-04-12_22h20.13.040,PRaM,2021.2.3,Linux x86_64,59.99160118,61b8f3437b89212fae0dfade
2,1.9971,space,1.2183,0,330,330,159,1,,,60fcd9699c3def3068403b90,6437747109b6c8293b111725,2023-04-12_22h20.13.040,PRaM,2021.2.3,Linux x86_64,59.99160118,61b8f3437b89212fae0dfade
3,2.6432,space,1.4348,0,331,331,286,1,,,60fcd9699c3def3068403b90,6437747109b6c8293b111725,2023-04-12_22h20.13.040,PRaM,2021.2.3,Linux x86_64,59.99160118,61b8f3437b89212fae0dfade
7,2.7419,space,1.7786,0,332,332,117,1,,,60fcd9699c3def3068403b90,6437747109b6c8293b111725,2023-04-12_22h20.13.040,PRaM,2021.2.3,Linux x86_64,59.99160118,61b8f3437b89212fae0dfade
2,2.9443,space,1.7012,0,333,333,204,1,,,60fcd9699c3def3068403b90,6437747109b6c8293b111725,2023-04-12_22h20.13.040,PRaM,2021.2.3,Linux x86_64,59.99160118,61b8f3437b89212fae0dfade
3,2.4428,space,0.7543,0,334,334,65,1,,,60fcd9699c3def3068403b90,6437747109b6c8293b111725,2023-04-12_22h20.13.040,PRaM,2021.2.3,Linux x86_64,59.99160118,61b8f3437b89212fae0dfade
7,2.628,space,0.9162,0,335,335,319,1,,,60fcd9699c3def3068403b90,6437747109b6c8293b111725,2023-04-12_22h20.13.040,PRaM,2021.2.3,Linux x86_64,59.99160118,61b8f3437b89212fae0dfade
2,2.9401,space,1.6386,0,336,336,13,1,,,60fcd9699c3def3068403b90,6437747109b6c8293b111725,2023-04-12_22h20.13.040,PRaM,2021.2.3,Linux x86_64,59.99160118,61b8f3437b89212fae0dfade
3,2.33,space,0.622,0,337,337,187,1,,,60fcd9699c3def3068403b90,6437747109b6c8293b111725,2023-04-12_22h20.13.040,PRaM,2021.2.3,Linux x86_64,59.99160118,61b8f3437b89212fae0dfade
2,2.2891,space,0.6017,0,338,338,203,1,,,60fcd9699c3def3068403b90,6437747109b6c8293b111725,2023-04-12_22h20.13.040,PRaM,2021.2.3,Linux x86_64,59.99160118,61b8f3437b89212fae0dfade
4,3.7722,space,2.0885,0,339,339,236,1,,,60fcd9699c3def3068403b90,6437747109b6c8293b111725,2023-04-12_22h20.13.040,PRaM,2021.2.3,Linux x86_64,59.99160118,61b8f3437b89212fae0dfade
2,3.3438,space,1.7345,0,340,340,231,1,,,60fcd9699c3def3068403b90,6437747109b6c8293b111725,2023-04-12_22h20.13.040,PRaM,2021.2.3,Linux x86_64,59.99160118,61b8f3437b89212fae0dfade
6,3.5745,space,2.048,0,341,341,297,1,,,60fcd9699c3def3068403b90,6437747109b6c8293b111725,2023-04-12_22h20.13.040,PRaM,2021.2.3,Linux x86_64,59.99160118,61b8f3437b89212fae0dfade
7,3.7908,space,2.2485,0,342,342,43,1,,,60fcd9699c3def3068403b90,6437747109b6c8293b111725,2023-04-12_22h20.13.040,PRaM,2021.2.3,Linux x86_64,59.99160118,61b8f3437b89212fae0dfade
7,2.9307,space,1.284,0,343,343,198,1,,,60fcd9699c3def3068403b90,6437747109b6c8293b111725,2023-04-12_22h20.13.040,PRaM,2021.2.3,Linux x86_64,59.99160118,61b8f3437b89212fae0dfade
,,space,3.2018,0,344,344,264,1,,,60fcd9699c3def3068403b90,6437747109b6c8293b111725,2023-04-12_22h20.13.040,PRaM,2021.2.3,Linux x86_64,59.99160118,61b8f3437b89212fae0dfade
,,space,0.1861,0,345,345,61,1,,,60fcd9699c3def3068403b90,6437747109b6c8293b111725,2023-04-12_22h20.13.040,PRaM,2021.2.3,Linux x86_64,59.99160118,61b8f3437b89212fae0dfade
,,space,1.5851,0,346,346,122,1,,,60fcd9699c3def3068403b90,6437747109b6c8293b111725,2023-04-12_22h20.13.040,PRaM,2021.2.3,Linux x86_64,59.99160118,61b8f3437b89212fae0dfade
,,space,3.917,0,347,347,50,1,,,60fcd9699c3def3068403b90,6437747109b6c8293b111725,2023-04-12_22h20.13.040,PRaM,2021.2.3,Linux x86_64,59.99160118,61b8f3437b89212fae0dfade
,,space,1.3559,0,348,348,326,1,,,60fcd9699c3def3068403b90,6437747109b6c8293b111725,2023-04-12_22h20.13.040,PRaM,2021.2.3,Linux x86_64,59.99160118,61b8f3437b89212fae0dfade
,,space,0.1875,0,349,349,186,1,,,60fcd9699c3def3068403b90,6437747109b6c8293b111725,2023-04-12_22h20.13.040,PRaM,2021.2.3,Linux x86_64,59.99160118,61b8f3437b89212fae0dfade
,,space,1.0025,0,350,350,16,1,,,60fcd9699c3def3068403b90,6437747109b6c8293b111725,2023-04-12_22h20.13.040,PRaM,2021.2.3,Linux x86_64,59.99160118,61b8f3437b89212fae0dfade
,,space,0.9994,0,351,351,349,1,,,60fcd9699c3def3068403b90,6437747109b6c8293b111725,2023-04-12_22h20.13.040,PRaM,2021.2.3,Linux x86_64,59.99160118,61b8f3437b89212fae0dfade
,,space,0.801,0,352,352,73,1,,,60fcd9699c3def3068403b90,6437747109b6c8293b111725,2023-04-12_22h20.13.040,PRaM,2021.2.3,Linux x86_64,59.99160118,61b8f3437b89212fae0dfade
,,space,0.6484,0,353,353,2,1,,,60fcd9699c3def3068403b90,6437747109b6c8293b111725,2023-04-12_22h20.13.040,PRaM,2021.2.3,Linux x86_64,59.99160118,61b8f3437b89212fae0dfade
,,space,3.5179,0,354,354,342,1,,,60fcd9699c3def3068403b90,6437747109b6c8293b111725,2023-04-12_22h20.13.040,PRaM,2021.2.3,Linux x86_64,59.99160118,61b8f3437b89212fae0dfade
,,space,0.6867,0,355,355,280,1,,,60fcd9699c3def3068403b90,6437747109b6c8293b111725,2023-04-12_22h20.13.040,PRaM,2021.2.3,Linux x86_64,59.99160118,61b8f3437b89212fae0dfade
,,space,0.69,0,356,356,363,1,,,60fcd9699c3def3068403b90,6437747109b6c8293b111725,2023-04-12_22h20.13.040,PRaM,2021.2.3,Linux x86_64,59.99160118,61b8f3437b89212fae0dfade
,,space,0.2422,0,357,357,153,1,,,60fcd9699c3def3068403b90,6437747109b6c8293b111725,2023-04-12_22h20.13.040,PRaM,2021.2.3,Linux x86_64,59.99160118,61b8f3437b89212fae0dfade
8,5.2714,space,3.8342,0,358,358,80,1,,,60fcd9699c3def3068403b90,6437747109b6c8293b111725,2023-04-12_22h20.13.040,PRaM,2021.2.3,Linux x86_64,59.99160118,61b8f3437b89212fae0dfade
,,space,0.0699,0,359,359,161,1,,,60fcd9699c3def3068403b90,6437747109b6c8293b111725,2023-04-12_22h20.13.040,PRaM,2021.2.3,Linux x86_64,59.99160118,61b8f3437b89212fae0dfade
,,space,1.2327,0,360,360,316,1,,,60fcd9699c3def3068403b90,6437747109b6c8293b111725,2023-04-12_22h20.13.040,PRaM,2021.2.3,Linux x86_64,59.99160118,61b8f3437b89212fae0dfade
,,space,0.1513,0,361,361,135,1,,,60fcd9699c3def3068403b90,6437747109b6c8293b111725,2023-04-12_22h20.13.040,PRaM,2021.2.3,Linux x86_64,59.99160118,61b8f3437b89212fae0dfade
5,3.3421,space,1.8179,0,362,362,370,1,,,60fcd9699c3def3068403b90,6437747109b6c8293b111725,2023-04-12_22h20.13.040,PRaM,2021.2.3,Linux x86_64,59.99160118,61b8f3437b89212fae0dfade
4,3.7064,space,2.0997,0,363,363,294,1,,,60fcd9699c3def3068403b90,6437747109b6c8293b111725,2023-04-12_22h20.13.040,PRaM,2021.2.3,Linux x86_64,59.99160118,61b8f3437b89212fae0dfade
2,2.8806,space,1.3327,0,364,364,275,1,,,60fcd9699c3def3068403b90,6437747109b6c8293b111725,2023-04-12_22h20.13.040,PRaM,2021.2.3,Linux x86_64,59.99160118,61b8f3437b89212fae0dfade
3,2.6598,space,1.1511,0,365,365,300,1,,,60fcd9699c3def3068403b90,6437747109b6c8293b111725,2023-04-12_22h20.13.040,PRaM,2021.2.3,Linux x86_64,59.99160118,61b8f3437b89212fae0dfade
1,2.9911,space,1.6511,0,366,366,160,1,,,60fcd9699c3def3068403b90,6437747109b6c8293b111725,2023-04-12_22h20.13.040,PRaM,2021.2.3,Linux x86_64,59.99160118,61b8f3437b89212fae0dfade
5,3.2588,space,2.1005,0,367,367,12,1,,,60fcd9699c3def3068403b90,6437747109b6c8293b111725,2023-04-12_22h20.13.040,PRaM,2021.2.3,Linux x86_64,59.99160118,61b8f3437b89212fae0dfade
1,4.0239,space,2.3962,0,368,368,247,1,,,60fcd9699c3def3068403b90,6437747109b6c8293b111725,2023-04-12_22h20.13.040,PRaM,2021.2.3,Linux x86_64,59.99160118,61b8f3437b89212fae0dfade
,,space,0.3728,0,369,369,190,1,,,60fcd9699c3def3068403b90,6437747109b6c8293b111725,2023-04-12_22h20.13.040,PRaM,2021.2.3,Linux x86_64,59.99160118,61b8f3437b89212fae0dfade
,,space,0.4163,0,370,370,175,1,,,60fcd9699c3def3068403b90,6437747109b6c8293b111725,2023-04-12_22h20.13.040,PRaM,2021.2.3,Linux x86_64,59.99160118,61b8f3437b89212fae0dfade
,,space,0.5215,0,371,371,267,1,,,60fcd9699c3def3068403b90,6437747109b6c8293b111725,2023-04-12_22h20.13.040,PRaM,2021.2.3,Linux x86_64,59.99160118,61b8f3437b89212fae0dfade
8,5.3039,space,3.7013,0,372,372,317,1,,,60fcd9699c3def3068403b90,6437747109b6c8293b111725,2023-04-12_22h20.13.040,PRaM,2021.2.3,Linux x86_64,59.99160118,61b8f3437b89212fae0dfade
4,6.9091,space,5.9854,0,373,373,79,1,,,60fcd9699c3def3068403b90,6437747109b6c8293b111725,2023-04-12_22h20.13.040,PRaM,2021.2.3,Linux x86_64,59.99160118,61b8f3437b89212fae0dfade
,,space,1.1684,0,374,374,361,1,,,60fcd9699c3def3068403b90,6437747109b6c8293b111725,2023-04-12_22h20.13.040,PRaM,2021.2.3,Linux x86_64,59.99160118,61b8f3437b89212fae0dfade
,,space,0.4471,0,375,375,82,1,,,60fcd9699c3def3068403b90,6437747109b6c8293b111725,2023-04-12_22h20.13.040,PRaM,2021.2.3,Linux x86_64,59.99160118,61b8f3437b89212fae0dfade
,,space,0.3922,0,376,376,22,1,,,60fcd9699c3def3068403b90,6437747109b6c8293b111725,2023-04-12_22h20.13.040,PRaM,2021.2.3,Linux x86_64,59.99160118,61b8f3437b89212fae0dfade
6,2.2612,space,0.6207,0,377,377,120,1,,,60fcd9699c3def3068403b90,6437747109b6c8293b111725,2023-04-12_22h20.13.040,PRaM,2021.2.3,Linux x86_64,59.99160118,61b8f3437b89212fae0dfade
