Rating.response,Rating.rt,EndTrial.keys,EndTrial.rt,trials.thisRepN,trials.thisTrialN,trials.thisN,trials.thisIndex,trials.ran,Pos1,Pos2,participant,session,date,expName,psychopyVersion,OS,frameRate,study_id
1,10.2812,space,8.9858,0,0,0,266,1,,,61001bf79490f8d38e8325fa,61b90969ca5c4f7ad9ed783b,2021-12-14_15h15.52.651,PRaM,2021.2.3,Win32,60.0060006,61b8f3437b89212fae0dfadf
5,6.4063,space,4.7352,0,1,1,365,1,,,61001bf79490f8d38e8325fa,61b90969ca5c4f7ad9ed783b,2021-12-14_15h15.52.651,PRaM,2021.2.3,Win32,60.0060006,61b8f3437b89212fae0dfadf
2,5.4263,space,3.8504,0,2,2,189,1,,,61001bf79490f8d38e8325fa,61b90969ca5c4f7ad9ed783b,2021-12-14_15h15.52.651,PRaM,2021.2.3,Win32,60.0060006,61b8f3437b89212fae0dfadf
7,3.4125,space,1.7602,0,3,3,209,1,,,61001bf79490f8d38e8325fa,61b90969ca5c4f7ad9ed783b,2021-12-14_15h15.52.651,PRaM,2021.2.3,Win32,60.0060006,61b8f3437b89212fae0dfadf
3,2.7159,space,0.8197,0,4,4,233,1,,,61001bf79490f8d38e8325fa,61b90969ca5c4f7ad9ed783b,2021-12-14_15h15.52.651,PRaM,2021.2.3,Win32,60.0060006,61b8f3437b89212fae0dfadf
5,3.9927,space,2.2675,0,5,5,115,1,,,61001bf79490f8d38e8325fa,61b90969ca5c4f7ad9ed783b,2021-12-14_15h15.52.651,PRaM,2021.2.3,Win32,60.0060006,61b8f3437b89212fae0dfadf
4,2.0059,space,0.2863,0,6,6,132,1,,,61001bf79490f8d38e8325fa,61b90969ca5c4f7ad9ed783b,2021-12-14_15h15.52.651,PRaM,2021.2.3,Win32,60.0060006,61b8f3437b89212fae0dfadf
3,2.2205,space,0.4527,0,7,7,102,1,,,61001bf79490f8d38e8325fa,61b90969ca5c4f7ad9ed783b,2021-12-14_15h15.52.651,PRaM,2021.2.3,Win32,60.0060006,61b8f3437b89212fae0dfadf
1,1.937,space,0.2361,0,8,8,79,1,,,61001bf79490f8d38e8325fa,61b90969ca5c4f7ad9ed783b,2021-12-14_15h15.52.651,PRaM,2021.2.3,Win32,60.0060006,61b8f3437b89212fae0dfadf
2,2.419,space,0.5351,0,9,9,246,1,,,61001bf79490f8d38e8325fa,61b90969ca5c4f7ad9ed783b,2021-12-14_15h15.52.651,PRaM,2021.2.3,Win32,60.0060006,61b8f3437b89212fae0dfadf
6,2.4544,space,0.6098,0,10,10,118,1,,,61001bf79490f8d38e8325fa,61b90969ca5c4f7ad9ed783b,2021-12-14_15h15.52.651,PRaM,2021.2.3,Win32,60.0060006,61b8f3437b89212fae0dfadf
2,9.1521,space,7.2519,0,11,11,8,1,,,61001bf79490f8d38e8325fa,61b90969ca5c4f7ad9ed783b,2021-12-14_15h15.52.651,PRaM,2021.2.3,Win32,60.0060006,61b8f3437b89212fae0dfadf
,,space,0.184,0,12,12,95,1,,,61001bf79490f8d38e8325fa,61b90969ca5c4f7ad9ed783b,2021-12-14_15h15.52.651,PRaM,2021.2.3,Win32,60.0060006,61b8f3437b89212fae0dfadf
2,2.9088,space,1.008,0,13,13,113,1,,,61001bf79490f8d38e8325fa,61b90969ca5c4f7ad9ed783b,2021-12-14_15h15.52.651,PRaM,2021.2.3,Win32,60.0060006,61b8f3437b89212fae0dfadf
2,2.1056,space,0.262,0,14,14,29,1,,,61001bf79490f8d38e8325fa,61b90969ca5c4f7ad9ed783b,2021-12-14_15h15.52.651,PRaM,2021.2.3,Win32,60.0060006,61b8f3437b89212fae0dfadf
6,3.3084,space,1.3909,0,15,15,133,1,,,61001bf79490f8d38e8325fa,61b90969ca5c4f7ad9ed783b,2021-12-14_15h15.52.651,PRaM,2021.2.3,Win32,60.0060006,61b8f3437b89212fae0dfadf
3,2.544,space,0.6623,0,16,16,46,1,,,61001bf79490f8d38e8325fa,61b90969ca5c4f7ad9ed783b,2021-12-14_15h15.52.651,PRaM,2021.2.3,Win32,60.0060006,61b8f3437b89212fae0dfadf
8,2.6589,space,0.9184,0,17,17,269,1,,,61001bf79490f8d38e8325fa,61b90969ca5c4f7ad9ed783b,2021-12-14_15h15.52.651,PRaM,2021.2.3,Win32,60.0060006,61b8f3437b89212fae0dfadf
3,9.4685,space,7.5691,0,18,18,355,1,,,61001bf79490f8d38e8325fa,61b90969ca5c4f7ad9ed783b,2021-12-14_15h15.52.651,PRaM,2021.2.3,Win32,60.0060006,61b8f3437b89212fae0dfadf
2,2.476,space,0.5328,0,19,19,258,1,,,61001bf79490f8d38e8325fa,61b90969ca5c4f7ad9ed783b,2021-12-14_15h15.52.651,PRaM,2021.2.3,Win32,60.0060006,61b8f3437b89212fae0dfadf
6,2.2901,space,0.327,0,20,20,277,1,,,61001bf79490f8d38e8325fa,61b90969ca5c4f7ad9ed783b,2021-12-14_15h15.52.651,PRaM,2021.2.3,Win32,60.0060006,61b8f3437b89212fae0dfadf
2,2.0865,space,0.4722,0,21,21,284,1,,,61001bf79490f8d38e8325fa,61b90969ca5c4f7ad9ed783b,2021-12-14_15h15.52.651,PRaM,2021.2.3,Win32,60.0060006,61b8f3437b89212fae0dfadf
2,2.2175,space,0.4621,0,22,22,160,1,,,61001bf79490f8d38e8325fa,61b90969ca5c4f7ad9ed783b,2021-12-14_15h15.52.651,PRaM,2021.2.3,Win32,60.0060006,61b8f3437b89212fae0dfadf
2,2.3271,space,0.4587,0,23,23,124,1,,,61001bf79490f8d38e8325fa,61b90969ca5c4f7ad9ed783b,2021-12-14_15h15.52.651,PRaM,2021.2.3,Win32,60.0060006,61b8f3437b89212fae0dfadf
2,1.5992,space,3.4819,0,24,24,130,1,,,61001bf79490f8d38e8325fa,61b90969ca5c4f7ad9ed783b,2021-12-14_15h15.52.651,PRaM,2021.2.3,Win32,60.0060006,61b8f3437b89212fae0dfadf
2,4.0471,space,2.3194,0,25,25,311,1,,,61001bf79490f8d38e8325fa,61b90969ca5c4f7ad9ed783b,2021-12-14_15h15.52.651,PRaM,2021.2.3,Win32,60.0060006,61b8f3437b89212fae0dfadf
8,4.2114,space,2.2671,0,26,26,18,1,,,61001bf79490f8d38e8325fa,61b90969ca5c4f7ad9ed783b,2021-12-14_15h15.52.651,PRaM,2021.2.3,Win32,60.0060006,61b8f3437b89212fae0dfadf
5,6.7449,space,5.06,0,27,27,348,1,,,61001bf79490f8d38e8325fa,61b90969ca5c4f7ad9ed783b,2021-12-14_15h15.52.651,PRaM,2021.2.3,Win32,60.0060006,61b8f3437b89212fae0dfadf
3,2.3053,space,0.3479,0,28,28,342,1,,,61001bf79490f8d38e8325fa,61b90969ca5c4f7ad9ed783b,2021-12-14_15h15.52.651,PRaM,2021.2.3,Win32,60.0060006,61b8f3437b89212fae0dfadf
7,2.1712,space,0.4371,0,29,29,239,1,,,61001bf79490f8d38e8325fa,61b90969ca5c4f7ad9ed783b,2021-12-14_15h15.52.651,PRaM,2021.2.3,Win32,60.0060006,61b8f3437b89212fae0dfadf
7,2.2113,space,0.3541,0,30,30,45,1,,,61001bf79490f8d38e8325fa,61b90969ca5c4f7ad9ed783b,2021-12-14_15h15.52.651,PRaM,2021.2.3,Win32,60.0060006,61b8f3437b89212fae0dfadf
2,1.7791,space,1.7185,0,31,31,27,1,,,61001bf79490f8d38e8325fa,61b90969ca5c4f7ad9ed783b,2021-12-14_15h15.52.651,PRaM,2021.2.3,Win32,60.0060006,61b8f3437b89212fae0dfadf
5,1.9429,space,0.0771,0,32,32,25,1,,,61001bf79490f8d38e8325fa,61b90969ca5c4f7ad9ed783b,2021-12-14_15h15.52.651,PRaM,2021.2.3,Win32,60.0060006,61b8f3437b89212fae0dfadf
3,2.0053,space,0.103,0,33,33,252,1,,,61001bf79490f8d38e8325fa,61b90969ca5c4f7ad9ed783b,2021-12-14_15h15.52.651,PRaM,2021.2.3,Win32,60.0060006,61b8f3437b89212fae0dfadf
8,2.4541,space,0.5644,0,34,34,304,1,,,61001bf79490f8d38e8325fa,61b90969ca5c4f7ad9ed783b,2021-12-14_15h15.52.651,PRaM,2021.2.3,Win32,60.0060006,61b8f3437b89212fae0dfadf
3,3.2196,space,1.2713,0,35,35,138,1,,,61001bf79490f8d38e8325fa,61b90969ca5c4f7ad9ed783b,2021-12-14_15h15.52.651,PRaM,2021.2.3,Win32,60.0060006,61b8f3437b89212fae0dfadf
3,4.289,space,2.4675,0,36,36,169,1,,,61001bf79490f8d38e8325fa,61b90969ca5c4f7ad9ed783b,2021-12-14_15h15.52.651,PRaM,2021.2.3,Win32,60.0060006,61b8f3437b89212fae0dfadf
2,3.09,space,1.1496,0,37,37,293,1,,,61001bf79490f8d38e8325fa,61b90969ca5c4f7ad9ed783b,2021-12-14_15h15.52.651,PRaM,2021.2.3,Win32,60.0060006,61b8f3437b89212fae0dfadf
4,2.2972,space,0.4924,0,38,38,219,1,,,61001bf79490f8d38e8325fa,61b90969ca5c4f7ad9ed783b,2021-12-14_15h15.52.651,PRaM,2021.2.3,Win32,60.0060006,61b8f3437b89212fae0dfadf
3,2.0266,space,0.173,0,39,39,62,1,,,61001bf79490f8d38e8325fa,61b90969ca5c4f7ad9ed783b,2021-12-14_15h15.52.651,PRaM,2021.2.3,Win32,60.0060006,61b8f3437b89212fae0dfadf
1,2.0623,space,0.1901,0,40,40,77,1,,,61001bf79490f8d38e8325fa,61b90969ca5c4f7ad9ed783b,2021-12-14_15h15.52.651,PRaM,2021.2.3,Win32,60.0060006,61b8f3437b89212fae0dfadf
7,2.6659,space,1.3734,0,41,41,4,1,,,61001bf79490f8d38e8325fa,61b90969ca5c4f7ad9ed783b,2021-12-14_15h15.52.651,PRaM,2021.2.3,Win32,60.0060006,61b8f3437b89212fae0dfadf
1,2.8097,space,1.3824,0,42,42,174,1,,,61001bf79490f8d38e8325fa,61b90969ca5c4f7ad9ed783b,2021-12-14_15h15.52.651,PRaM,2021.2.3,Win32,60.0060006,61b8f3437b89212fae0dfadf
2,3.3217,space,1.5169,0,43,43,295,1,,,61001bf79490f8d38e8325fa,61b90969ca5c4f7ad9ed783b,2021-12-14_15h15.52.651,PRaM,2021.2.3,Win32,60.0060006,61b8f3437b89212fae0dfadf
4,2.2544,space,0.2849,0,44,44,199,1,,,61001bf79490f8d38e8325fa,61b90969ca5c4f7ad9ed783b,2021-12-14_15h15.52.651,PRaM,2021.2.3,Win32,60.0060006,61b8f3437b89212fae0dfadf
9,1.7294,space,1.1631,0,45,45,276,1,,,61001bf79490f8d38e8325fa,61b90969ca5c4f7ad9ed783b,2021-12-14_15h15.52.651,PRaM,2021.2.3,Win32,60.0060006,61b8f3437b89212fae0dfadf
3,2.0418,space,0.2535,0,46,46,26,1,,,61001bf79490f8d38e8325fa,61b90969ca5c4f7ad9ed783b,2021-12-14_15h15.52.651,PRaM,2021.2.3,Win32,60.0060006,61b8f3437b89212fae0dfadf
2,1.8202,space,0.5394,0,47,47,2,1,,,61001bf79490f8d38e8325fa,61b90969ca5c4f7ad9ed783b,2021-12-14_15h15.52.651,PRaM,2021.2.3,Win32,60.0060006,61b8f3437b89212fae0dfadf
5,2.2626,space,0.3231,0,48,48,200,1,,,61001bf79490f8d38e8325fa,61b90969ca5c4f7ad9ed783b,2021-12-14_15h15.52.651,PRaM,2021.2.3,Win32,60.0060006,61b8f3437b89212fae0dfadf
2,2.1382,space,0.2591,0,49,49,341,1,,,61001bf79490f8d38e8325fa,61b90969ca5c4f7ad9ed783b,2021-12-14_15h15.52.651,PRaM,2021.2.3,Win32,60.0060006,61b8f3437b89212fae0dfadf
8,2.3405,space,0.6525,0,50,50,75,1,,,61001bf79490f8d38e8325fa,61b90969ca5c4f7ad9ed783b,2021-12-14_15h15.52.651,PRaM,2021.2.3,Win32,60.0060006,61b8f3437b89212fae0dfadf
2,1.6088,space,1.2499,0,51,51,82,1,,,61001bf79490f8d38e8325fa,61b90969ca5c4f7ad9ed783b,2021-12-14_15h15.52.651,PRaM,2021.2.3,Win32,60.0060006,61b8f3437b89212fae0dfadf
7,2.3972,space,0.5521,0,52,52,194,1,,,61001bf79490f8d38e8325fa,61b90969ca5c4f7ad9ed783b,2021-12-14_15h15.52.651,PRaM,2021.2.3,Win32,60.0060006,61b8f3437b89212fae0dfadf
,,space,0.5494,0,53,53,139,1,,,61001bf79490f8d38e8325fa,61b90969ca5c4f7ad9ed783b,2021-12-14_15h15.52.651,PRaM,2021.2.3,Win32,60.0060006,61b8f3437b89212fae0dfadf
7,3.7785,space,1.8852,0,54,54,280,1,,,61001bf79490f8d38e8325fa,61b90969ca5c4f7ad9ed783b,2021-12-14_15h15.52.651,PRaM,2021.2.3,Win32,60.0060006,61b8f3437b89212fae0dfadf
7,1.7362,space,0.6718,0,55,55,61,1,,,61001bf79490f8d38e8325fa,61b90969ca5c4f7ad9ed783b,2021-12-14_15h15.52.651,PRaM,2021.2.3,Win32,60.0060006,61b8f3437b89212fae0dfadf
2,2.1448,space,0.3012,0,56,56,70,1,,,61001bf79490f8d38e8325fa,61b90969ca5c4f7ad9ed783b,2021-12-14_15h15.52.651,PRaM,2021.2.3,Win32,60.0060006,61b8f3437b89212fae0dfadf
8,2.1805,space,0.3249,0,57,57,264,1,,,61001bf79490f8d38e8325fa,61b90969ca5c4f7ad9ed783b,2021-12-14_15h15.52.651,PRaM,2021.2.3,Win32,60.0060006,61b8f3437b89212fae0dfadf
8,2.964,space,1.0827,0,58,58,198,1,,,61001bf79490f8d38e8325fa,61b90969ca5c4f7ad9ed783b,2021-12-14_15h15.52.651,PRaM,2021.2.3,Win32,60.0060006,61b8f3437b89212fae0dfadf
2,2.0558,space,0.195,0,59,59,28,1,,,61001bf79490f8d38e8325fa,61b90969ca5c4f7ad9ed783b,2021-12-14_15h15.52.651,PRaM,2021.2.3,Win32,60.0060006,61b8f3437b89212fae0dfadf
8,2.5633,space,0.7202,0,60,60,301,1,,,61001bf79490f8d38e8325fa,61b90969ca5c4f7ad9ed783b,2021-12-14_15h15.52.651,PRaM,2021.2.3,Win32,60.0060006,61b8f3437b89212fae0dfadf
2,1.6629,space,0.7596,0,61,61,167,1,,,61001bf79490f8d38e8325fa,61b90969ca5c4f7ad9ed783b,2021-12-14_15h15.52.651,PRaM,2021.2.3,Win32,60.0060006,61b8f3437b89212fae0dfadf
2,2.1396,space,0.2672,0,62,62,48,1,,,61001bf79490f8d38e8325fa,61b90969ca5c4f7ad9ed783b,2021-12-14_15h15.52.651,PRaM,2021.2.3,Win32,60.0060006,61b8f3437b89212fae0dfadf
6,2.3041,space,0.4171,0,63,63,110,1,,,61001bf79490f8d38e8325fa,61b90969ca5c4f7ad9ed783b,2021-12-14_15h15.52.651,PRaM,2021.2.3,Win32,60.0060006,61b8f3437b89212fae0dfadf
3,2.5211,space,0.6538,0,64,64,90,1,,,61001bf79490f8d38e8325fa,61b90969ca5c4f7ad9ed783b,2021-12-14_15h15.52.651,PRaM,2021.2.3,Win32,60.0060006,61b8f3437b89212fae0dfadf
,,space,0.2436,0,65,65,329,1,,,61001bf79490f8d38e8325fa,61b90969ca5c4f7ad9ed783b,2021-12-14_15h15.52.651,PRaM,2021.2.3,Win32,60.0060006,61b8f3437b89212fae0dfadf
7,3.1037,space,1.3411,0,66,66,38,1,,,61001bf79490f8d38e8325fa,61b90969ca5c4f7ad9ed783b,2021-12-14_15h15.52.651,PRaM,2021.2.3,Win32,60.0060006,61b8f3437b89212fae0dfadf
7,1.9529,space,0.0859,0,67,67,85,1,,,61001bf79490f8d38e8325fa,61b90969ca5c4f7ad9ed783b,2021-12-14_15h15.52.651,PRaM,2021.2.3,Win32,60.0060006,61b8f3437b89212fae0dfadf
,,space,0.0597,0,68,68,230,1,,,61001bf79490f8d38e8325fa,61b90969ca5c4f7ad9ed783b,2021-12-14_15h15.52.651,PRaM,2021.2.3,Win32,60.0060006,61b8f3437b89212fae0dfadf
6,7.1306,space,5.234,0,69,69,193,1,,,61001bf79490f8d38e8325fa,61b90969ca5c4f7ad9ed783b,2021-12-14_15h15.52.651,PRaM,2021.2.3,Win32,60.0060006,61b8f3437b89212fae0dfadf
8,2.0628,space,0.1838,0,70,70,74,1,,,61001bf79490f8d38e8325fa,61b90969ca5c4f7ad9ed783b,2021-12-14_15h15.52.651,PRaM,2021.2.3,Win32,60.0060006,61b8f3437b89212fae0dfadf
5,2.4303,space,0.5575,0,71,71,128,1,,,61001bf79490f8d38e8325fa,61b90969ca5c4f7ad9ed783b,2021-12-14_15h15.52.651,PRaM,2021.2.3,Win32,60.0060006,61b8f3437b89212fae0dfadf
,,space,0.2476,0,72,72,60,1,,,61001bf79490f8d38e8325fa,61b90969ca5c4f7ad9ed783b,2021-12-14_15h15.52.651,PRaM,2021.2.3,Win32,60.0060006,61b8f3437b89212fae0dfadf
5,3.3977,space,1.7044,0,73,73,6,1,,,61001bf79490f8d38e8325fa,61b90969ca5c4f7ad9ed783b,2021-12-14_15h15.52.651,PRaM,2021.2.3,Win32,60.0060006,61b8f3437b89212fae0dfadf
3,1.6856,space,1.3032,0,74,74,287,1,,,61001bf79490f8d38e8325fa,61b90969ca5c4f7ad9ed783b,2021-12-14_15h15.52.651,PRaM,2021.2.3,Win32,60.0060006,61b8f3437b89212fae0dfadf
8,1.9274,space,0.212,0,75,75,53,1,,,61001bf79490f8d38e8325fa,61b90969ca5c4f7ad9ed783b,2021-12-14_15h15.52.651,PRaM,2021.2.3,Win32,60.0060006,61b8f3437b89212fae0dfadf
7,2.073,space,0.3562,0,76,76,83,1,,,61001bf79490f8d38e8325fa,61b90969ca5c4f7ad9ed783b,2021-12-14_15h15.52.651,PRaM,2021.2.3,Win32,60.0060006,61b8f3437b89212fae0dfadf
4,1.9868,space,0.2691,0,77,77,176,1,,,61001bf79490f8d38e8325fa,61b90969ca5c4f7ad9ed783b,2021-12-14_15h15.52.651,PRaM,2021.2.3,Win32,60.0060006,61b8f3437b89212fae0dfadf
3,2.3619,space,0.6199,0,78,78,184,1,,,61001bf79490f8d38e8325fa,61b90969ca5c4f7ad9ed783b,2021-12-14_15h15.52.651,PRaM,2021.2.3,Win32,60.0060006,61b8f3437b89212fae0dfadf
4,8.5708,space,7.0726,0,79,79,156,1,,,61001bf79490f8d38e8325fa,61b90969ca5c4f7ad9ed783b,2021-12-14_15h15.52.651,PRaM,2021.2.3,Win32,60.0060006,61b8f3437b89212fae0dfadf
5,2.1728,space,0.6357,0,80,80,141,1,,,61001bf79490f8d38e8325fa,61b90969ca5c4f7ad9ed783b,2021-12-14_15h15.52.651,PRaM,2021.2.3,Win32,60.0060006,61b8f3437b89212fae0dfadf
6,2.5436,space,0.9358,0,81,81,147,1,,,61001bf79490f8d38e8325fa,61b90969ca5c4f7ad9ed783b,2021-12-14_15h15.52.651,PRaM,2021.2.3,Win32,60.0060006,61b8f3437b89212fae0dfadf
7,1.7234,space,0.1088,0,82,82,228,1,,,61001bf79490f8d38e8325fa,61b90969ca5c4f7ad9ed783b,2021-12-14_15h15.52.651,PRaM,2021.2.3,Win32,60.0060006,61b8f3437b89212fae0dfadf
3,2.4779,space,0.8919,0,83,83,31,1,,,61001bf79490f8d38e8325fa,61b90969ca5c4f7ad9ed783b,2021-12-14_15h15.52.651,PRaM,2021.2.3,Win32,60.0060006,61b8f3437b89212fae0dfadf
2,2.5786,space,0.9524,0,84,84,318,1,,,61001bf79490f8d38e8325fa,61b90969ca5c4f7ad9ed783b,2021-12-14_15h15.52.651,PRaM,2021.2.3,Win32,60.0060006,61b8f3437b89212fae0dfadf
8,1.7093,space,0.0676,0,85,85,59,1,,,61001bf79490f8d38e8325fa,61b90969ca5c4f7ad9ed783b,2021-12-14_15h15.52.651,PRaM,2021.2.3,Win32,60.0060006,61b8f3437b89212fae0dfadf
3,1.9871,space,0.3394,0,86,86,81,1,,,61001bf79490f8d38e8325fa,61b90969ca5c4f7ad9ed783b,2021-12-14_15h15.52.651,PRaM,2021.2.3,Win32,60.0060006,61b8f3437b89212fae0dfadf
1,2.055,space,0.6752,0,87,87,107,1,,,61001bf79490f8d38e8325fa,61b90969ca5c4f7ad9ed783b,2021-12-14_15h15.52.651,PRaM,2021.2.3,Win32,60.0060006,61b8f3437b89212fae0dfadf
3,2.6029,space,1.4317,0,88,88,188,1,,,61001bf79490f8d38e8325fa,61b90969ca5c4f7ad9ed783b,2021-12-14_15h15.52.651,PRaM,2021.2.3,Win32,60.0060006,61b8f3437b89212fae0dfadf
8,2.0514,space,0.4332,0,89,89,86,1,,,61001bf79490f8d38e8325fa,61b90969ca5c4f7ad9ed783b,2021-12-14_15h15.52.651,PRaM,2021.2.3,Win32,60.0060006,61b8f3437b89212fae0dfadf
9,3.7768,space,2.1342,0,90,90,134,1,,,61001bf79490f8d38e8325fa,61b90969ca5c4f7ad9ed783b,2021-12-14_15h15.52.651,PRaM,2021.2.3,Win32,60.0060006,61b8f3437b89212fae0dfadf
5,4.783,space,3.1847,0,91,91,104,1,,,61001bf79490f8d38e8325fa,61b90969ca5c4f7ad9ed783b,2021-12-14_15h15.52.651,PRaM,2021.2.3,Win32,60.0060006,61b8f3437b89212fae0dfadf
1,1.9162,space,0.2518,0,92,92,67,1,,,61001bf79490f8d38e8325fa,61b90969ca5c4f7ad9ed783b,2021-12-14_15h15.52.651,PRaM,2021.2.3,Win32,60.0060006,61b8f3437b89212fae0dfadf
9,6.0717,space,4.9826,0,93,93,3,1,,,61001bf79490f8d38e8325fa,61b90969ca5c4f7ad9ed783b,2021-12-14_15h15.52.651,PRaM,2021.2.3,Win32,60.0060006,61b8f3437b89212fae0dfadf
7,1.8191,space,0.2962,0,94,94,114,1,,,61001bf79490f8d38e8325fa,61b90969ca5c4f7ad9ed783b,2021-12-14_15h15.52.651,PRaM,2021.2.3,Win32,60.0060006,61b8f3437b89212fae0dfadf
3,3.6252,space,2.1132,0,95,95,305,1,,,61001bf79490f8d38e8325fa,61b90969ca5c4f7ad9ed783b,2021-12-14_15h15.52.651,PRaM,2021.2.3,Win32,60.0060006,61b8f3437b89212fae0dfadf
1,2.5073,space,1.0496,0,96,96,87,1,,,61001bf79490f8d38e8325fa,61b90969ca5c4f7ad9ed783b,2021-12-14_15h15.52.651,PRaM,2021.2.3,Win32,60.0060006,61b8f3437b89212fae0dfadf
2,2.7656,space,1.1767,0,97,97,272,1,,,61001bf79490f8d38e8325fa,61b90969ca5c4f7ad9ed783b,2021-12-14_15h15.52.651,PRaM,2021.2.3,Win32,60.0060006,61b8f3437b89212fae0dfadf
5,2.5664,space,1.5553,0,98,98,140,1,,,61001bf79490f8d38e8325fa,61b90969ca5c4f7ad9ed783b,2021-12-14_15h15.52.651,PRaM,2021.2.3,Win32,60.0060006,61b8f3437b89212fae0dfadf
4,2.2407,space,1.7142,0,99,99,263,1,,,61001bf79490f8d38e8325fa,61b90969ca5c4f7ad9ed783b,2021-12-14_15h15.52.651,PRaM,2021.2.3,Win32,60.0060006,61b8f3437b89212fae0dfadf
2,2.4444,space,1.0071,0,100,100,34,1,,,61001bf79490f8d38e8325fa,61b90969ca5c4f7ad9ed783b,2021-12-14_15h15.52.651,PRaM,2021.2.3,Win32,60.0060006,61b8f3437b89212fae0dfadf
3,1.6867,space,0.2396,0,101,101,303,1,,,61001bf79490f8d38e8325fa,61b90969ca5c4f7ad9ed783b,2021-12-14_15h15.52.651,PRaM,2021.2.3,Win32,60.0060006,61b8f3437b89212fae0dfadf
4,7.261,space,6.4621,0,102,102,180,1,,,61001bf79490f8d38e8325fa,61b90969ca5c4f7ad9ed783b,2021-12-14_15h15.52.651,PRaM,2021.2.3,Win32,60.0060006,61b8f3437b89212fae0dfadf
6,1.9013,space,0.4,0,103,103,98,1,,,61001bf79490f8d38e8325fa,61b90969ca5c4f7ad9ed783b,2021-12-14_15h15.52.651,PRaM,2021.2.3,Win32,60.0060006,61b8f3437b89212fae0dfadf
4,1.5303,space,0.0439,0,104,104,314,1,,,61001bf79490f8d38e8325fa,61b90969ca5c4f7ad9ed783b,2021-12-14_15h15.52.651,PRaM,2021.2.3,Win32,60.0060006,61b8f3437b89212fae0dfadf
5,2.0776,space,0.5708,0,105,105,21,1,,,61001bf79490f8d38e8325fa,61b90969ca5c4f7ad9ed783b,2021-12-14_15h15.52.651,PRaM,2021.2.3,Win32,60.0060006,61b8f3437b89212fae0dfadf
4,1.7541,space,0.2356,0,106,106,162,1,,,61001bf79490f8d38e8325fa,61b90969ca5c4f7ad9ed783b,2021-12-14_15h15.52.651,PRaM,2021.2.3,Win32,60.0060006,61b8f3437b89212fae0dfadf
4,1.5592,space,0.0012,0,107,107,351,1,,,61001bf79490f8d38e8325fa,61b90969ca5c4f7ad9ed783b,2021-12-14_15h15.52.651,PRaM,2021.2.3,Win32,60.0060006,61b8f3437b89212fae0dfadf
2,1.7461,space,0.2389,0,108,108,50,1,,,61001bf79490f8d38e8325fa,61b90969ca5c4f7ad9ed783b,2021-12-14_15h15.52.651,PRaM,2021.2.3,Win32,60.0060006,61b8f3437b89212fae0dfadf
3,1.771,space,0.2365,0,109,109,185,1,,,61001bf79490f8d38e8325fa,61b90969ca5c4f7ad9ed783b,2021-12-14_15h15.52.651,PRaM,2021.2.3,Win32,60.0060006,61b8f3437b89212fae0dfadf
2,5.9426,space,4.8353,0,110,110,343,1,,,61001bf79490f8d38e8325fa,61b90969ca5c4f7ad9ed783b,2021-12-14_15h15.52.651,PRaM,2021.2.3,Win32,60.0060006,61b8f3437b89212fae0dfadf
7,4.4833,space,4.1501,0,111,111,42,1,,,61001bf79490f8d38e8325fa,61b90969ca5c4f7ad9ed783b,2021-12-14_15h15.52.651,PRaM,2021.2.3,Win32,60.0060006,61b8f3437b89212fae0dfadf
2,7.0017,space,5.4446,0,112,112,52,1,,,61001bf79490f8d38e8325fa,61b90969ca5c4f7ad9ed783b,2021-12-14_15h15.52.651,PRaM,2021.2.3,Win32,60.0060006,61b8f3437b89212fae0dfadf
2,1.2019,space,1.2286,0,113,113,36,1,,,61001bf79490f8d38e8325fa,61b90969ca5c4f7ad9ed783b,2021-12-14_15h15.52.651,PRaM,2021.2.3,Win32,60.0060006,61b8f3437b89212fae0dfadf
4,2.068,space,0.5553,0,114,114,306,1,,,61001bf79490f8d38e8325fa,61b90969ca5c4f7ad9ed783b,2021-12-14_15h15.52.651,PRaM,2021.2.3,Win32,60.0060006,61b8f3437b89212fae0dfadf
5,2.877,space,1.6887,0,115,115,352,1,,,61001bf79490f8d38e8325fa,61b90969ca5c4f7ad9ed783b,2021-12-14_15h15.52.651,PRaM,2021.2.3,Win32,60.0060006,61b8f3437b89212fae0dfadf
2,6.0785,space,4.6229,0,116,116,71,1,,,61001bf79490f8d38e8325fa,61b90969ca5c4f7ad9ed783b,2021-12-14_15h15.52.651,PRaM,2021.2.3,Win32,60.0060006,61b8f3437b89212fae0dfadf
2,1.563,space,0.4164,0,117,117,250,1,,,61001bf79490f8d38e8325fa,61b90969ca5c4f7ad9ed783b,2021-12-14_15h15.52.651,PRaM,2021.2.3,Win32,60.0060006,61b8f3437b89212fae0dfadf
3,1.6715,space,0.2007,0,118,118,172,1,,,61001bf79490f8d38e8325fa,61b90969ca5c4f7ad9ed783b,2021-12-14_15h15.52.651,PRaM,2021.2.3,Win32,60.0060006,61b8f3437b89212fae0dfadf
9,4.6806,space,4.1863,0,119,119,323,1,,,61001bf79490f8d38e8325fa,61b90969ca5c4f7ad9ed783b,2021-12-14_15h15.52.651,PRaM,2021.2.3,Win32,60.0060006,61b8f3437b89212fae0dfadf
1,6.1167,space,4.7689,0,120,120,214,1,,,61001bf79490f8d38e8325fa,61b90969ca5c4f7ad9ed783b,2021-12-14_15h15.52.651,PRaM,2021.2.3,Win32,60.0060006,61b8f3437b89212fae0dfadf
8,3.2558,space,2.0267,0,121,121,222,1,,,61001bf79490f8d38e8325fa,61b90969ca5c4f7ad9ed783b,2021-12-14_15h15.52.651,PRaM,2021.2.3,Win32,60.0060006,61b8f3437b89212fae0dfadf
2,2.6818,space,1.1526,0,122,122,316,1,,,61001bf79490f8d38e8325fa,61b90969ca5c4f7ad9ed783b,2021-12-14_15h15.52.651,PRaM,2021.2.3,Win32,60.0060006,61b8f3437b89212fae0dfadf
6,2.5436,space,1.9012,0,123,123,93,1,,,61001bf79490f8d38e8325fa,61b90969ca5c4f7ad9ed783b,2021-12-14_15h15.52.651,PRaM,2021.2.3,Win32,60.0060006,61b8f3437b89212fae0dfadf
6,2.1016,space,0.7966,0,124,124,216,1,,,61001bf79490f8d38e8325fa,61b90969ca5c4f7ad9ed783b,2021-12-14_15h15.52.651,PRaM,2021.2.3,Win32,60.0060006,61b8f3437b89212fae0dfadf
6,4.1595,space,2.7019,0,125,125,111,1,,,61001bf79490f8d38e8325fa,61b90969ca5c4f7ad9ed783b,2021-12-14_15h15.52.651,PRaM,2021.2.3,Win32,60.0060006,61b8f3437b89212fae0dfadf
1,3.6444,space,2.1798,0,126,126,377,1,,,61001bf79490f8d38e8325fa,61b90969ca5c4f7ad9ed783b,2021-12-14_15h15.52.651,PRaM,2021.2.3,Win32,60.0060006,61b8f3437b89212fae0dfadf
2,2.2006,space,0.6955,0,127,127,122,1,,,61001bf79490f8d38e8325fa,61b90969ca5c4f7ad9ed783b,2021-12-14_15h15.52.651,PRaM,2021.2.3,Win32,60.0060006,61b8f3437b89212fae0dfadf
2,1.2717,space,127.4209,0,128,128,354,1,,,61001bf79490f8d38e8325fa,61b90969ca5c4f7ad9ed783b,2021-12-14_15h15.52.651,PRaM,2021.2.3,Win32,60.0060006,61b8f3437b89212fae0dfadf
3,2.3863,space,1.0756,0,129,129,157,1,,,61001bf79490f8d38e8325fa,61b90969ca5c4f7ad9ed783b,2021-12-14_15h15.52.651,PRaM,2021.2.3,Win32,60.0060006,61b8f3437b89212fae0dfadf
5,3.0706,space,1.5014,0,130,130,116,1,,,61001bf79490f8d38e8325fa,61b90969ca5c4f7ad9ed783b,2021-12-14_15h15.52.651,PRaM,2021.2.3,Win32,60.0060006,61b8f3437b89212fae0dfadf
1,2.2544,space,0.635,0,131,131,91,1,,,61001bf79490f8d38e8325fa,61b90969ca5c4f7ad9ed783b,2021-12-14_15h15.52.651,PRaM,2021.2.3,Win32,60.0060006,61b8f3437b89212fae0dfadf
2,2.0198,space,0.5525,0,132,132,151,1,,,61001bf79490f8d38e8325fa,61b90969ca5c4f7ad9ed783b,2021-12-14_15h15.52.651,PRaM,2021.2.3,Win32,60.0060006,61b8f3437b89212fae0dfadf
4,2.5257,space,0.9165,0,133,133,271,1,,,61001bf79490f8d38e8325fa,61b90969ca5c4f7ad9ed783b,2021-12-14_15h15.52.651,PRaM,2021.2.3,Win32,60.0060006,61b8f3437b89212fae0dfadf
5,2.2543,space,0.6594,0,134,134,186,1,,,61001bf79490f8d38e8325fa,61b90969ca5c4f7ad9ed783b,2021-12-14_15h15.52.651,PRaM,2021.2.3,Win32,60.0060006,61b8f3437b89212fae0dfadf
1,3.4506,space,1.8878,0,135,135,330,1,,,61001bf79490f8d38e8325fa,61b90969ca5c4f7ad9ed783b,2021-12-14_15h15.52.651,PRaM,2021.2.3,Win32,60.0060006,61b8f3437b89212fae0dfadf
1,1.5863,space,2.7044,0,136,136,359,1,,,61001bf79490f8d38e8325fa,61b90969ca5c4f7ad9ed783b,2021-12-14_15h15.52.651,PRaM,2021.2.3,Win32,60.0060006,61b8f3437b89212fae0dfadf
4,5.6294,space,4.7356,0,137,137,178,1,,,61001bf79490f8d38e8325fa,61b90969ca5c4f7ad9ed783b,2021-12-14_15h15.52.651,PRaM,2021.2.3,Win32,60.0060006,61b8f3437b89212fae0dfadf
4,4.779,space,3.2139,0,138,138,165,1,,,61001bf79490f8d38e8325fa,61b90969ca5c4f7ad9ed783b,2021-12-14_15h15.52.651,PRaM,2021.2.3,Win32,60.0060006,61b8f3437b89212fae0dfadf
6,1.9605,space,0.3341,0,139,139,14,1,,,61001bf79490f8d38e8325fa,61b90969ca5c4f7ad9ed783b,2021-12-14_15h15.52.651,PRaM,2021.2.3,Win32,60.0060006,61b8f3437b89212fae0dfadf
4,3.2619,space,1.6739,0,140,140,99,1,,,61001bf79490f8d38e8325fa,61b90969ca5c4f7ad9ed783b,2021-12-14_15h15.52.651,PRaM,2021.2.3,Win32,60.0060006,61b8f3437b89212fae0dfadf
1,5.2311,space,3.9746,0,141,141,312,1,,,61001bf79490f8d38e8325fa,61b90969ca5c4f7ad9ed783b,2021-12-14_15h15.52.651,PRaM,2021.2.3,Win32,60.0060006,61b8f3437b89212fae0dfadf
6,12.8504,space,11.3177,0,142,142,66,1,,,61001bf79490f8d38e8325fa,61b90969ca5c4f7ad9ed783b,2021-12-14_15h15.52.651,PRaM,2021.2.3,Win32,60.0060006,61b8f3437b89212fae0dfadf
6,1.8584,space,0.8068,0,143,143,238,1,,,61001bf79490f8d38e8325fa,61b90969ca5c4f7ad9ed783b,2021-12-14_15h15.52.651,PRaM,2021.2.3,Win32,60.0060006,61b8f3437b89212fae0dfadf
3,3.7137,space,2.0689,0,144,144,217,1,,,61001bf79490f8d38e8325fa,61b90969ca5c4f7ad9ed783b,2021-12-14_15h15.52.651,PRaM,2021.2.3,Win32,60.0060006,61b8f3437b89212fae0dfadf
3,2.8621,space,1.36,0,145,145,290,1,,,61001bf79490f8d38e8325fa,61b90969ca5c4f7ad9ed783b,2021-12-14_15h15.52.651,PRaM,2021.2.3,Win32,60.0060006,61b8f3437b89212fae0dfadf
3,1.8227,space,0.1209,0,146,146,313,1,,,61001bf79490f8d38e8325fa,61b90969ca5c4f7ad9ed783b,2021-12-14_15h15.52.651,PRaM,2021.2.3,Win32,60.0060006,61b8f3437b89212fae0dfadf
6,2.0469,space,0.2237,0,147,147,285,1,,,61001bf79490f8d38e8325fa,61b90969ca5c4f7ad9ed783b,2021-12-14_15h15.52.651,PRaM,2021.2.3,Win32,60.0060006,61b8f3437b89212fae0dfadf
2,2.2815,space,0.4182,0,148,148,369,1,,,61001bf79490f8d38e8325fa,61b90969ca5c4f7ad9ed783b,2021-12-14_15h15.52.651,PRaM,2021.2.3,Win32,60.0060006,61b8f3437b89212fae0dfadf
3,1.8217,space,0.5671,0,149,149,33,1,,,61001bf79490f8d38e8325fa,61b90969ca5c4f7ad9ed783b,2021-12-14_15h15.52.651,PRaM,2021.2.3,Win32,60.0060006,61b8f3437b89212fae0dfadf
5,2.0973,space,0.3333,0,150,150,166,1,,,61001bf79490f8d38e8325fa,61b90969ca5c4f7ad9ed783b,2021-12-14_15h15.52.651,PRaM,2021.2.3,Win32,60.0060006,61b8f3437b89212fae0dfadf
2,1.981,space,0.2363,0,151,151,5,1,,,61001bf79490f8d38e8325fa,61b90969ca5c4f7ad9ed783b,2021-12-14_15h15.52.651,PRaM,2021.2.3,Win32,60.0060006,61b8f3437b89212fae0dfadf
6,3.0177,space,1.2669,0,152,152,149,1,,,61001bf79490f8d38e8325fa,61b90969ca5c4f7ad9ed783b,2021-12-14_15h15.52.651,PRaM,2021.2.3,Win32,60.0060006,61b8f3437b89212fae0dfadf
6,1.7878,space,0.5865,0,153,153,154,1,,,61001bf79490f8d38e8325fa,61b90969ca5c4f7ad9ed783b,2021-12-14_15h15.52.651,PRaM,2021.2.3,Win32,60.0060006,61b8f3437b89212fae0dfadf
1,3.1024,space,1.2315,0,154,154,353,1,,,61001bf79490f8d38e8325fa,61b90969ca5c4f7ad9ed783b,2021-12-14_15h15.52.651,PRaM,2021.2.3,Win32,60.0060006,61b8f3437b89212fae0dfadf
6,3.2511,space,1.3832,0,155,155,328,1,,,61001bf79490f8d38e8325fa,61b90969ca5c4f7ad9ed783b,2021-12-14_15h15.52.651,PRaM,2021.2.3,Win32,60.0060006,61b8f3437b89212fae0dfadf
5,2.1881,space,0.3023,0,156,156,202,1,,,61001bf79490f8d38e8325fa,61b90969ca5c4f7ad9ed783b,2021-12-14_15h15.52.651,PRaM,2021.2.3,Win32,60.0060006,61b8f3437b89212fae0dfadf
7,2.5259,space,0.7065,0,157,157,192,1,,,61001bf79490f8d38e8325fa,61b90969ca5c4f7ad9ed783b,2021-12-14_15h15.52.651,PRaM,2021.2.3,Win32,60.0060006,61b8f3437b89212fae0dfadf
7,2.5281,space,1.3839,0,158,158,279,1,,,61001bf79490f8d38e8325fa,61b90969ca5c4f7ad9ed783b,2021-12-14_15h15.52.651,PRaM,2021.2.3,Win32,60.0060006,61b8f3437b89212fae0dfadf
1,2.1074,space,0.6548,0,159,159,338,1,,,61001bf79490f8d38e8325fa,61b90969ca5c4f7ad9ed783b,2021-12-14_15h15.52.651,PRaM,2021.2.3,Win32,60.0060006,61b8f3437b89212fae0dfadf
2,3.0111,space,1.6699,0,160,160,88,1,,,61001bf79490f8d38e8325fa,61b90969ca5c4f7ad9ed783b,2021-12-14_15h15.52.651,PRaM,2021.2.3,Win32,60.0060006,61b8f3437b89212fae0dfadf
3,3.2113,space,1.9515,0,161,161,150,1,,,61001bf79490f8d38e8325fa,61b90969ca5c4f7ad9ed783b,2021-12-14_15h15.52.651,PRaM,2021.2.3,Win32,60.0060006,61b8f3437b89212fae0dfadf
1,2.4623,space,0.8833,0,162,162,224,1,,,61001bf79490f8d38e8325fa,61b90969ca5c4f7ad9ed783b,2021-12-14_15h15.52.651,PRaM,2021.2.3,Win32,60.0060006,61b8f3437b89212fae0dfadf
2,8.9853,space,7.7265,0,163,163,175,1,,,61001bf79490f8d38e8325fa,61b90969ca5c4f7ad9ed783b,2021-12-14_15h15.52.651,PRaM,2021.2.3,Win32,60.0060006,61b8f3437b89212fae0dfadf
2,13.6058,space,12.4157,0,164,164,357,1,,,61001bf79490f8d38e8325fa,61b90969ca5c4f7ad9ed783b,2021-12-14_15h15.52.651,PRaM,2021.2.3,Win32,60.0060006,61b8f3437b89212fae0dfadf
2,1.7153,space,0.1529,0,165,165,236,1,,,61001bf79490f8d38e8325fa,61b90969ca5c4f7ad9ed783b,2021-12-14_15h15.52.651,PRaM,2021.2.3,Win32,60.0060006,61b8f3437b89212fae0dfadf
8,5.7702,space,4.1842,0,166,166,296,1,,,61001bf79490f8d38e8325fa,61b90969ca5c4f7ad9ed783b,2021-12-14_15h15.52.651,PRaM,2021.2.3,Win32,60.0060006,61b8f3437b89212fae0dfadf
1,1.724,space,0.1349,0,167,167,248,1,,,61001bf79490f8d38e8325fa,61b90969ca5c4f7ad9ed783b,2021-12-14_15h15.52.651,PRaM,2021.2.3,Win32,60.0060006,61b8f3437b89212fae0dfadf
8,2.8836,space,1.3248,0,168,168,259,1,,,61001bf79490f8d38e8325fa,61b90969ca5c4f7ad9ed783b,2021-12-14_15h15.52.651,PRaM,2021.2.3,Win32,60.0060006,61b8f3437b89212fae0dfadf
2,5.4936,space,3.9695,0,169,169,345,1,,,61001bf79490f8d38e8325fa,61b90969ca5c4f7ad9ed783b,2021-12-14_15h15.52.651,PRaM,2021.2.3,Win32,60.0060006,61b8f3437b89212fae0dfadf
5,1.7417,space,0.2347,0,170,170,340,1,,,61001bf79490f8d38e8325fa,61b90969ca5c4f7ad9ed783b,2021-12-14_15h15.52.651,PRaM,2021.2.3,Win32,60.0060006,61b8f3437b89212fae0dfadf
2,3.2384,space,1.5866,0,171,171,283,1,,,61001bf79490f8d38e8325fa,61b90969ca5c4f7ad9ed783b,2021-12-14_15h15.52.651,PRaM,2021.2.3,Win32,60.0060006,61b8f3437b89212fae0dfadf
1,4.1771,space,2.6693,0,172,172,362,1,,,61001bf79490f8d38e8325fa,61b90969ca5c4f7ad9ed783b,2021-12-14_15h15.52.651,PRaM,2021.2.3,Win32,60.0060006,61b8f3437b89212fae0dfadf
9,2.2354,space,0.6681,0,173,173,334,1,,,61001bf79490f8d38e8325fa,61b90969ca5c4f7ad9ed783b,2021-12-14_15h15.52.651,PRaM,2021.2.3,Win32,60.0060006,61b8f3437b89212fae0dfadf
1,3.5184,space,1.9863,0,174,174,275,1,,,61001bf79490f8d38e8325fa,61b90969ca5c4f7ad9ed783b,2021-12-14_15h15.52.651,PRaM,2021.2.3,Win32,60.0060006,61b8f3437b89212fae0dfadf
1,3.0193,space,1.5171,0,175,175,73,1,,,61001bf79490f8d38e8325fa,61b90969ca5c4f7ad9ed783b,2021-12-14_15h15.52.651,PRaM,2021.2.3,Win32,60.0060006,61b8f3437b89212fae0dfadf
1,5.345,space,3.6985,0,176,176,289,1,,,61001bf79490f8d38e8325fa,61b90969ca5c4f7ad9ed783b,2021-12-14_15h15.52.651,PRaM,2021.2.3,Win32,60.0060006,61b8f3437b89212fae0dfadf
2,2.0882,space,0.4903,0,177,177,153,1,,,61001bf79490f8d38e8325fa,61b90969ca5c4f7ad9ed783b,2021-12-14_15h15.52.651,PRaM,2021.2.3,Win32,60.0060006,61b8f3437b89212fae0dfadf
6,2.2674,space,0.875,0,178,178,225,1,,,61001bf79490f8d38e8325fa,61b90969ca5c4f7ad9ed783b,2021-12-14_15h15.52.651,PRaM,2021.2.3,Win32,60.0060006,61b8f3437b89212fae0dfadf
1,1.605,space,1.2016,0,179,179,108,1,,,61001bf79490f8d38e8325fa,61b90969ca5c4f7ad9ed783b,2021-12-14_15h15.52.651,PRaM,2021.2.3,Win32,60.0060006,61b8f3437b89212fae0dfadf
2,3.3439,space,1.7393,0,180,180,191,1,,,61001bf79490f8d38e8325fa,61b90969ca5c4f7ad9ed783b,2021-12-14_15h15.52.651,PRaM,2021.2.3,Win32,60.0060006,61b8f3437b89212fae0dfadf
1,7.6602,space,6.19,0,181,181,63,1,,,61001bf79490f8d38e8325fa,61b90969ca5c4f7ad9ed783b,2021-12-14_15h15.52.651,PRaM,2021.2.3,Win32,60.0060006,61b8f3437b89212fae0dfadf
2,2.4874,space,0.8704,0,182,182,281,1,,,61001bf79490f8d38e8325fa,61b90969ca5c4f7ad9ed783b,2021-12-14_15h15.52.651,PRaM,2021.2.3,Win32,60.0060006,61b8f3437b89212fae0dfadf
7,1.945,space,0.3533,0,183,183,372,1,,,61001bf79490f8d38e8325fa,61b90969ca5c4f7ad9ed783b,2021-12-14_15h15.52.651,PRaM,2021.2.3,Win32,60.0060006,61b8f3437b89212fae0dfadf
3,3.5023,space,2.4712,0,184,184,210,1,,,61001bf79490f8d38e8325fa,61b90969ca5c4f7ad9ed783b,2021-12-14_15h15.52.651,PRaM,2021.2.3,Win32,60.0060006,61b8f3437b89212fae0dfadf
2,2.4263,space,1.201,0,185,185,310,1,,,61001bf79490f8d38e8325fa,61b90969ca5c4f7ad9ed783b,2021-12-14_15h15.52.651,PRaM,2021.2.3,Win32,60.0060006,61b8f3437b89212fae0dfadf
2,2.396,space,0.7929,0,186,186,360,1,,,61001bf79490f8d38e8325fa,61b90969ca5c4f7ad9ed783b,2021-12-14_15h15.52.651,PRaM,2021.2.3,Win32,60.0060006,61b8f3437b89212fae0dfadf
6,2.0397,space,2.1897,0,187,187,307,1,,,61001bf79490f8d38e8325fa,61b90969ca5c4f7ad9ed783b,2021-12-14_15h15.52.651,PRaM,2021.2.3,Win32,60.0060006,61b8f3437b89212fae0dfadf
8,1.886,space,0.7597,0,188,188,302,1,,,61001bf79490f8d38e8325fa,61b90969ca5c4f7ad9ed783b,2021-12-14_15h15.52.651,PRaM,2021.2.3,Win32,60.0060006,61b8f3437b89212fae0dfadf
1,1.8541,space,0.1886,0,189,189,10,1,,,61001bf79490f8d38e8325fa,61b90969ca5c4f7ad9ed783b,2021-12-14_15h15.52.651,PRaM,2021.2.3,Win32,60.0060006,61b8f3437b89212fae0dfadf
3,2.2704,space,0.7397,0,190,190,145,1,,,61001bf79490f8d38e8325fa,61b90969ca5c4f7ad9ed783b,2021-12-14_15h15.52.651,PRaM,2021.2.3,Win32,60.0060006,61b8f3437b89212fae0dfadf
2,2.6363,space,1.1855,0,191,191,335,1,,,61001bf79490f8d38e8325fa,61b90969ca5c4f7ad9ed783b,2021-12-14_15h15.52.651,PRaM,2021.2.3,Win32,60.0060006,61b8f3437b89212fae0dfadf
7,2.4719,space,0.8437,0,192,192,159,1,,,61001bf79490f8d38e8325fa,61b90969ca5c4f7ad9ed783b,2021-12-14_15h15.52.651,PRaM,2021.2.3,Win32,60.0060006,61b8f3437b89212fae0dfadf
2,2.5346,space,0.9316,0,193,193,125,1,,,61001bf79490f8d38e8325fa,61b90969ca5c4f7ad9ed783b,2021-12-14_15h15.52.651,PRaM,2021.2.3,Win32,60.0060006,61b8f3437b89212fae0dfadf
7,4.27,space,2.8809,0,194,194,120,1,,,61001bf79490f8d38e8325fa,61b90969ca5c4f7ad9ed783b,2021-12-14_15h15.52.651,PRaM,2021.2.3,Win32,60.0060006,61b8f3437b89212fae0dfadf
1,2.2069,space,0.7057,0,195,195,89,1,,,61001bf79490f8d38e8325fa,61b90969ca5c4f7ad9ed783b,2021-12-14_15h15.52.651,PRaM,2021.2.3,Win32,60.0060006,61b8f3437b89212fae0dfadf
1,5.4849,space,4.1625,0,196,196,35,1,,,61001bf79490f8d38e8325fa,61b90969ca5c4f7ad9ed783b,2021-12-14_15h15.52.651,PRaM,2021.2.3,Win32,60.0060006,61b8f3437b89212fae0dfadf
2,87.1216,space,85.6324,0,197,197,37,1,,,61001bf79490f8d38e8325fa,61b90969ca5c4f7ad9ed783b,2021-12-14_15h15.52.651,PRaM,2021.2.3,Win32,60.0060006,61b8f3437b89212fae0dfadf
6,2.8404,space,1.3678,0,198,198,273,1,,,61001bf79490f8d38e8325fa,61b90969ca5c4f7ad9ed783b,2021-12-14_15h15.52.651,PRaM,2021.2.3,Win32,60.0060006,61b8f3437b89212fae0dfadf
9,4.7171,space,3.2177,0,199,199,7,1,,,61001bf79490f8d38e8325fa,61b90969ca5c4f7ad9ed783b,2021-12-14_15h15.52.651,PRaM,2021.2.3,Win32,60.0060006,61b8f3437b89212fae0dfadf
4,2.4702,space,0.9267,0,200,200,344,1,,,61001bf79490f8d38e8325fa,61b90969ca5c4f7ad9ed783b,2021-12-14_15h15.52.651,PRaM,2021.2.3,Win32,60.0060006,61b8f3437b89212fae0dfadf
8,1.9863,space,0.4009,0,201,201,211,1,,,61001bf79490f8d38e8325fa,61b90969ca5c4f7ad9ed783b,2021-12-14_15h15.52.651,PRaM,2021.2.3,Win32,60.0060006,61b8f3437b89212fae0dfadf
1,1.4871,space,0.8495,0,202,202,257,1,,,61001bf79490f8d38e8325fa,61b90969ca5c4f7ad9ed783b,2021-12-14_15h15.52.651,PRaM,2021.2.3,Win32,60.0060006,61b8f3437b89212fae0dfadf
2,5.446,space,4.8068,0,203,203,292,1,,,61001bf79490f8d38e8325fa,61b90969ca5c4f7ad9ed783b,2021-12-14_15h15.52.651,PRaM,2021.2.3,Win32,60.0060006,61b8f3437b89212fae0dfadf
5,2.037,space,0.187,0,204,204,127,1,,,61001bf79490f8d38e8325fa,61b90969ca5c4f7ad9ed783b,2021-12-14_15h15.52.651,PRaM,2021.2.3,Win32,60.0060006,61b8f3437b89212fae0dfadf
2,1.7539,space,0.4224,0,205,205,309,1,,,61001bf79490f8d38e8325fa,61b90969ca5c4f7ad9ed783b,2021-12-14_15h15.52.651,PRaM,2021.2.3,Win32,60.0060006,61b8f3437b89212fae0dfadf
3,1.8412,space,0.0411,0,206,206,294,1,,,61001bf79490f8d38e8325fa,61b90969ca5c4f7ad9ed783b,2021-12-14_15h15.52.651,PRaM,2021.2.3,Win32,60.0060006,61b8f3437b89212fae0dfadf
6,1.8434,space,0.3445,0,207,207,274,1,,,61001bf79490f8d38e8325fa,61b90969ca5c4f7ad9ed783b,2021-12-14_15h15.52.651,PRaM,2021.2.3,Win32,60.0060006,61b8f3437b89212fae0dfadf
2,1.7576,space,0.319,0,208,208,155,1,,,61001bf79490f8d38e8325fa,61b90969ca5c4f7ad9ed783b,2021-12-14_15h15.52.651,PRaM,2021.2.3,Win32,60.0060006,61b8f3437b89212fae0dfadf
8,2.3017,space,0.5395,0,209,209,278,1,,,61001bf79490f8d38e8325fa,61b90969ca5c4f7ad9ed783b,2021-12-14_15h15.52.651,PRaM,2021.2.3,Win32,60.0060006,61b8f3437b89212fae0dfadf
2,1.8045,space,0.8867,0,210,210,24,1,,,61001bf79490f8d38e8325fa,61b90969ca5c4f7ad9ed783b,2021-12-14_15h15.52.651,PRaM,2021.2.3,Win32,60.0060006,61b8f3437b89212fae0dfadf
5,2.2348,space,0.4035,0,211,211,69,1,,,61001bf79490f8d38e8325fa,61b90969ca5c4f7ad9ed783b,2021-12-14_15h15.52.651,PRaM,2021.2.3,Win32,60.0060006,61b8f3437b89212fae0dfadf
2,1.6203,space,0.3563,0,212,212,131,1,,,61001bf79490f8d38e8325fa,61b90969ca5c4f7ad9ed783b,2021-12-14_15h15.52.651,PRaM,2021.2.3,Win32,60.0060006,61b8f3437b89212fae0dfadf
9,1.78,space,0.0004,0,213,213,17,1,,,61001bf79490f8d38e8325fa,61b90969ca5c4f7ad9ed783b,2021-12-14_15h15.52.651,PRaM,2021.2.3,Win32,60.0060006,61b8f3437b89212fae0dfadf
6,1.8739,space,0.1075,0,214,214,56,1,,,61001bf79490f8d38e8325fa,61b90969ca5c4f7ad9ed783b,2021-12-14_15h15.52.651,PRaM,2021.2.3,Win32,60.0060006,61b8f3437b89212fae0dfadf
5,2.2786,space,0.4004,0,215,215,336,1,,,61001bf79490f8d38e8325fa,61b90969ca5c4f7ad9ed783b,2021-12-14_15h15.52.651,PRaM,2021.2.3,Win32,60.0060006,61b8f3437b89212fae0dfadf
1,1.6321,space,0.401,0,216,216,299,1,,,61001bf79490f8d38e8325fa,61b90969ca5c4f7ad9ed783b,2021-12-14_15h15.52.651,PRaM,2021.2.3,Win32,60.0060006,61b8f3437b89212fae0dfadf
3,1.9063,space,0.21,0,217,217,223,1,,,61001bf79490f8d38e8325fa,61b90969ca5c4f7ad9ed783b,2021-12-14_15h15.52.651,PRaM,2021.2.3,Win32,60.0060006,61b8f3437b89212fae0dfadf
1,2.3797,space,0.536,0,218,218,321,1,,,61001bf79490f8d38e8325fa,61b90969ca5c4f7ad9ed783b,2021-12-14_15h15.52.651,PRaM,2021.2.3,Win32,60.0060006,61b8f3437b89212fae0dfadf
1,1.9185,space,0.017,0,219,219,23,1,,,61001bf79490f8d38e8325fa,61b90969ca5c4f7ad9ed783b,2021-12-14_15h15.52.651,PRaM,2021.2.3,Win32,60.0060006,61b8f3437b89212fae0dfadf
2,1.4709,space,1.37,0,220,220,376,1,,,61001bf79490f8d38e8325fa,61b90969ca5c4f7ad9ed783b,2021-12-14_15h15.52.651,PRaM,2021.2.3,Win32,60.0060006,61b8f3437b89212fae0dfadf
8,2.7174,space,1.0029,0,221,221,64,1,,,61001bf79490f8d38e8325fa,61b90969ca5c4f7ad9ed783b,2021-12-14_15h15.52.651,PRaM,2021.2.3,Win32,60.0060006,61b8f3437b89212fae0dfadf
6,1.9695,space,0.0675,0,222,222,19,1,,,61001bf79490f8d38e8325fa,61b90969ca5c4f7ad9ed783b,2021-12-14_15h15.52.651,PRaM,2021.2.3,Win32,60.0060006,61b8f3437b89212fae0dfadf
1,2.3116,space,0.4125,0,223,223,121,1,,,61001bf79490f8d38e8325fa,61b90969ca5c4f7ad9ed783b,2021-12-14_15h15.52.651,PRaM,2021.2.3,Win32,60.0060006,61b8f3437b89212fae0dfadf
7,2.1387,space,0.3024,0,224,224,226,1,,,61001bf79490f8d38e8325fa,61b90969ca5c4f7ad9ed783b,2021-12-14_15h15.52.651,PRaM,2021.2.3,Win32,60.0060006,61b8f3437b89212fae0dfadf
1,2.0084,space,0.1578,0,225,225,206,1,,,61001bf79490f8d38e8325fa,61b90969ca5c4f7ad9ed783b,2021-12-14_15h15.52.651,PRaM,2021.2.3,Win32,60.0060006,61b8f3437b89212fae0dfadf
2,2.7186,space,0.8332,0,226,226,358,1,,,61001bf79490f8d38e8325fa,61b90969ca5c4f7ad9ed783b,2021-12-14_15h15.52.651,PRaM,2021.2.3,Win32,60.0060006,61b8f3437b89212fae0dfadf
1,2.2891,space,0.4172,0,227,227,268,1,,,61001bf79490f8d38e8325fa,61b90969ca5c4f7ad9ed783b,2021-12-14_15h15.52.651,PRaM,2021.2.3,Win32,60.0060006,61b8f3437b89212fae0dfadf
1,1.7992,space,0.4497,0,228,228,218,1,,,61001bf79490f8d38e8325fa,61b90969ca5c4f7ad9ed783b,2021-12-14_15h15.52.651,PRaM,2021.2.3,Win32,60.0060006,61b8f3437b89212fae0dfadf
1,1.5257,space,0.2775,0,229,229,143,1,,,61001bf79490f8d38e8325fa,61b90969ca5c4f7ad9ed783b,2021-12-14_15h15.52.651,PRaM,2021.2.3,Win32,60.0060006,61b8f3437b89212fae0dfadf
2,1.6871,space,1.5625,0,230,230,126,1,,,61001bf79490f8d38e8325fa,61b90969ca5c4f7ad9ed783b,2021-12-14_15h15.52.651,PRaM,2021.2.3,Win32,60.0060006,61b8f3437b89212fae0dfadf
2,22.9164,space,21.1064,0,231,231,183,1,,,61001bf79490f8d38e8325fa,61b90969ca5c4f7ad9ed783b,2021-12-14_15h15.52.651,PRaM,2021.2.3,Win32,60.0060006,61b8f3437b89212fae0dfadf
1,2.2116,space,0.5105,0,232,232,15,1,,,61001bf79490f8d38e8325fa,61b90969ca5c4f7ad9ed783b,2021-12-14_15h15.52.651,PRaM,2021.2.3,Win32,60.0060006,61b8f3437b89212fae0dfadf
,,space,0.4,0,233,233,367,1,,,61001bf79490f8d38e8325fa,61b90969ca5c4f7ad9ed783b,2021-12-14_15h15.52.651,PRaM,2021.2.3,Win32,60.0060006,61b8f3437b89212fae0dfadf
1,1.1966,space,1.09,0,234,234,9,1,,,61001bf79490f8d38e8325fa,61b90969ca5c4f7ad9ed783b,2021-12-14_15h15.52.651,PRaM,2021.2.3,Win32,60.0060006,61b8f3437b89212fae0dfadf
7,1.886,space,0.1731,0,235,235,152,1,,,61001bf79490f8d38e8325fa,61b90969ca5c4f7ad9ed783b,2021-12-14_15h15.52.651,PRaM,2021.2.3,Win32,60.0060006,61b8f3437b89212fae0dfadf
1,18.1335,space,2.5532,0,236,236,161,1,,,61001bf79490f8d38e8325fa,61b90969ca5c4f7ad9ed783b,2021-12-14_15h15.52.651,PRaM,2021.2.3,Win32,60.0060006,61b8f3437b89212fae0dfadf
6,3.818,space,1.93,0,237,237,288,1,,,61001bf79490f8d38e8325fa,61b90969ca5c4f7ad9ed783b,2021-12-14_15h15.52.651,PRaM,2021.2.3,Win32,60.0060006,61b8f3437b89212fae0dfadf
3,2.5971,space,0.7484,0,238,238,68,1,,,61001bf79490f8d38e8325fa,61b90969ca5c4f7ad9ed783b,2021-12-14_15h15.52.651,PRaM,2021.2.3,Win32,60.0060006,61b8f3437b89212fae0dfadf
1,2.4445,space,0.7518,0,239,239,20,1,,,61001bf79490f8d38e8325fa,61b90969ca5c4f7ad9ed783b,2021-12-14_15h15.52.651,PRaM,2021.2.3,Win32,60.0060006,61b8f3437b89212fae0dfadf
2,15.1812,space,13.8577,0,240,240,43,1,,,61001bf79490f8d38e8325fa,61b90969ca5c4f7ad9ed783b,2021-12-14_15h15.52.651,PRaM,2021.2.3,Win32,60.0060006,61b8f3437b89212fae0dfadf
7,2.5025,space,0.6121,0,241,241,197,1,,,61001bf79490f8d38e8325fa,61b90969ca5c4f7ad9ed783b,2021-12-14_15h15.52.651,PRaM,2021.2.3,Win32,60.0060006,61b8f3437b89212fae0dfadf
3,2.5826,space,0.7335,0,242,242,331,1,,,61001bf79490f8d38e8325fa,61b90969ca5c4f7ad9ed783b,2021-12-14_15h15.52.651,PRaM,2021.2.3,Win32,60.0060006,61b8f3437b89212fae0dfadf
1,1.5618,space,0.386,0,243,243,227,1,,,61001bf79490f8d38e8325fa,61b90969ca5c4f7ad9ed783b,2021-12-14_15h15.52.651,PRaM,2021.2.3,Win32,60.0060006,61b8f3437b89212fae0dfadf
6,8.9828,space,7.1107,0,244,244,173,1,,,61001bf79490f8d38e8325fa,61b90969ca5c4f7ad9ed783b,2021-12-14_15h15.52.651,PRaM,2021.2.3,Win32,60.0060006,61b8f3437b89212fae0dfadf
1,2.1826,space,0.3351,0,245,245,265,1,,,61001bf79490f8d38e8325fa,61b90969ca5c4f7ad9ed783b,2021-12-14_15h15.52.651,PRaM,2021.2.3,Win32,60.0060006,61b8f3437b89212fae0dfadf
1,1.5644,space,0.6684,0,246,246,243,1,,,61001bf79490f8d38e8325fa,61b90969ca5c4f7ad9ed783b,2021-12-14_15h15.52.651,PRaM,2021.2.3,Win32,60.0060006,61b8f3437b89212fae0dfadf
1,1.4451,space,0.4062,0,247,247,101,1,,,61001bf79490f8d38e8325fa,61b90969ca5c4f7ad9ed783b,2021-12-14_15h15.52.651,PRaM,2021.2.3,Win32,60.0060006,61b8f3437b89212fae0dfadf
6,3.536,space,1.7912,0,248,248,333,1,,,61001bf79490f8d38e8325fa,61b90969ca5c4f7ad9ed783b,2021-12-14_15h15.52.651,PRaM,2021.2.3,Win32,60.0060006,61b8f3437b89212fae0dfadf
6,3.1719,space,1.3656,0,249,249,346,1,,,61001bf79490f8d38e8325fa,61b90969ca5c4f7ad9ed783b,2021-12-14_15h15.52.651,PRaM,2021.2.3,Win32,60.0060006,61b8f3437b89212fae0dfadf
2,8.2051,space,6.4042,0,250,250,40,1,,,61001bf79490f8d38e8325fa,61b90969ca5c4f7ad9ed783b,2021-12-14_15h15.52.651,PRaM,2021.2.3,Win32,60.0060006,61b8f3437b89212fae0dfadf
1,4.2678,space,2.3997,0,251,251,171,1,,,61001bf79490f8d38e8325fa,61b90969ca5c4f7ad9ed783b,2021-12-14_15h15.52.651,PRaM,2021.2.3,Win32,60.0060006,61b8f3437b89212fae0dfadf
1,2.7986,space,1.0165,0,252,252,245,1,,,61001bf79490f8d38e8325fa,61b90969ca5c4f7ad9ed783b,2021-12-14_15h15.52.651,PRaM,2021.2.3,Win32,60.0060006,61b8f3437b89212fae0dfadf
1,2.0159,space,0.2673,0,253,253,262,1,,,61001bf79490f8d38e8325fa,61b90969ca5c4f7ad9ed783b,2021-12-14_15h15.52.651,PRaM,2021.2.3,Win32,60.0060006,61b8f3437b89212fae0dfadf
1,4.3737,space,2.6477,0,254,254,182,1,,,61001bf79490f8d38e8325fa,61b90969ca5c4f7ad9ed783b,2021-12-14_15h15.52.651,PRaM,2021.2.3,Win32,60.0060006,61b8f3437b89212fae0dfadf
1,11.5591,space,9.6508,0,255,255,212,1,,,61001bf79490f8d38e8325fa,61b90969ca5c4f7ad9ed783b,2021-12-14_15h15.52.651,PRaM,2021.2.3,Win32,60.0060006,61b8f3437b89212fae0dfadf
1,1.4681,space,0.4252,0,256,256,181,1,,,61001bf79490f8d38e8325fa,61b90969ca5c4f7ad9ed783b,2021-12-14_15h15.52.651,PRaM,2021.2.3,Win32,60.0060006,61b8f3437b89212fae0dfadf
2,1.6828,space,0.5962,0,257,257,30,1,,,61001bf79490f8d38e8325fa,61b90969ca5c4f7ad9ed783b,2021-12-14_15h15.52.651,PRaM,2021.2.3,Win32,60.0060006,61b8f3437b89212fae0dfadf
1,4.3014,space,2.4077,0,258,258,232,1,,,61001bf79490f8d38e8325fa,61b90969ca5c4f7ad9ed783b,2021-12-14_15h15.52.651,PRaM,2021.2.3,Win32,60.0060006,61b8f3437b89212fae0dfadf
2,2.243,space,0.4042,0,259,259,78,1,,,61001bf79490f8d38e8325fa,61b90969ca5c4f7ad9ed783b,2021-12-14_15h15.52.651,PRaM,2021.2.3,Win32,60.0060006,61b8f3437b89212fae0dfadf
7,3.2499,space,1.4504,0,260,260,325,1,,,61001bf79490f8d38e8325fa,61b90969ca5c4f7ad9ed783b,2021-12-14_15h15.52.651,PRaM,2021.2.3,Win32,60.0060006,61b8f3437b89212fae0dfadf
5,2.8026,space,1.1007,0,261,261,267,1,,,61001bf79490f8d38e8325fa,61b90969ca5c4f7ad9ed783b,2021-12-14_15h15.52.651,PRaM,2021.2.3,Win32,60.0060006,61b8f3437b89212fae0dfadf
1,1.8302,space,0.051,0,262,262,146,1,,,61001bf79490f8d38e8325fa,61b90969ca5c4f7ad9ed783b,2021-12-14_15h15.52.651,PRaM,2021.2.3,Win32,60.0060006,61b8f3437b89212fae0dfadf
3,3.5744,space,1.901,0,263,263,356,1,,,61001bf79490f8d38e8325fa,61b90969ca5c4f7ad9ed783b,2021-12-14_15h15.52.651,PRaM,2021.2.3,Win32,60.0060006,61b8f3437b89212fae0dfadf
3,2.7838,space,0.9175,0,264,264,112,1,,,61001bf79490f8d38e8325fa,61b90969ca5c4f7ad9ed783b,2021-12-14_15h15.52.651,PRaM,2021.2.3,Win32,60.0060006,61b8f3437b89212fae0dfadf
4,2.6352,space,0.8175,0,265,265,339,1,,,61001bf79490f8d38e8325fa,61b90969ca5c4f7ad9ed783b,2021-12-14_15h15.52.651,PRaM,2021.2.3,Win32,60.0060006,61b8f3437b89212fae0dfadf
4,2.3768,space,0.4171,0,266,266,129,1,,,61001bf79490f8d38e8325fa,61b90969ca5c4f7ad9ed783b,2021-12-14_15h15.52.651,PRaM,2021.2.3,Win32,60.0060006,61b8f3437b89212fae0dfadf
3,1.7034,space,0.0276,0,267,267,215,1,,,61001bf79490f8d38e8325fa,61b90969ca5c4f7ad9ed783b,2021-12-14_15h15.52.651,PRaM,2021.2.3,Win32,60.0060006,61b8f3437b89212fae0dfadf
5,2.2903,space,0.6977,0,268,268,72,1,,,61001bf79490f8d38e8325fa,61b90969ca5c4f7ad9ed783b,2021-12-14_15h15.52.651,PRaM,2021.2.3,Win32,60.0060006,61b8f3437b89212fae0dfadf
1,2.5712,space,0.7242,0,269,269,220,1,,,61001bf79490f8d38e8325fa,61b90969ca5c4f7ad9ed783b,2021-12-14_15h15.52.651,PRaM,2021.2.3,Win32,60.0060006,61b8f3437b89212fae0dfadf
1,1.4713,space,0.2141,0,270,270,332,1,,,61001bf79490f8d38e8325fa,61b90969ca5c4f7ad9ed783b,2021-12-14_15h15.52.651,PRaM,2021.2.3,Win32,60.0060006,61b8f3437b89212fae0dfadf
2,1.8112,space,0.5834,0,271,271,80,1,,,61001bf79490f8d38e8325fa,61b90969ca5c4f7ad9ed783b,2021-12-14_15h15.52.651,PRaM,2021.2.3,Win32,60.0060006,61b8f3437b89212fae0dfadf
3,2.3327,space,0.5511,0,272,272,254,1,,,61001bf79490f8d38e8325fa,61b90969ca5c4f7ad9ed783b,2021-12-14_15h15.52.651,PRaM,2021.2.3,Win32,60.0060006,61b8f3437b89212fae0dfadf
1,4.1048,space,2.4198,0,273,273,240,1,,,61001bf79490f8d38e8325fa,61b90969ca5c4f7ad9ed783b,2021-12-14_15h15.52.651,PRaM,2021.2.3,Win32,60.0060006,61b8f3437b89212fae0dfadf
1,1.5291,space,0.7084,0,274,274,103,1,,,61001bf79490f8d38e8325fa,61b90969ca5c4f7ad9ed783b,2021-12-14_15h15.52.651,PRaM,2021.2.3,Win32,60.0060006,61b8f3437b89212fae0dfadf
1,2.0161,space,0.202,0,275,275,57,1,,,61001bf79490f8d38e8325fa,61b90969ca5c4f7ad9ed783b,2021-12-14_15h15.52.651,PRaM,2021.2.3,Win32,60.0060006,61b8f3437b89212fae0dfadf
2,1.9816,space,0.2856,0,276,276,92,1,,,61001bf79490f8d38e8325fa,61b90969ca5c4f7ad9ed783b,2021-12-14_15h15.52.651,PRaM,2021.2.3,Win32,60.0060006,61b8f3437b89212fae0dfadf
1,1.7994,space,0.1369,0,277,277,96,1,,,61001bf79490f8d38e8325fa,61b90969ca5c4f7ad9ed783b,2021-12-14_15h15.52.651,PRaM,2021.2.3,Win32,60.0060006,61b8f3437b89212fae0dfadf
3,2.9807,space,1.2181,0,278,278,0,1,,,61001bf79490f8d38e8325fa,61b90969ca5c4f7ad9ed783b,2021-12-14_15h15.52.651,PRaM,2021.2.3,Win32,60.0060006,61b8f3437b89212fae0dfadf
2,2.3797,space,0.5002,0,279,279,213,1,,,61001bf79490f8d38e8325fa,61b90969ca5c4f7ad9ed783b,2021-12-14_15h15.52.651,PRaM,2021.2.3,Win32,60.0060006,61b8f3437b89212fae0dfadf
6,2.547,space,0.7503,0,280,280,207,1,,,61001bf79490f8d38e8325fa,61b90969ca5c4f7ad9ed783b,2021-12-14_15h15.52.651,PRaM,2021.2.3,Win32,60.0060006,61b8f3437b89212fae0dfadf
6,3.1061,space,1.4019,0,281,281,135,1,,,61001bf79490f8d38e8325fa,61b90969ca5c4f7ad9ed783b,2021-12-14_15h15.52.651,PRaM,2021.2.3,Win32,60.0060006,61b8f3437b89212fae0dfadf
4,2.2125,space,0.6382,0,282,282,363,1,,,61001bf79490f8d38e8325fa,61b90969ca5c4f7ad9ed783b,2021-12-14_15h15.52.651,PRaM,2021.2.3,Win32,60.0060006,61b8f3437b89212fae0dfadf
1,1.8997,space,0.1505,0,283,283,41,1,,,61001bf79490f8d38e8325fa,61b90969ca5c4f7ad9ed783b,2021-12-14_15h15.52.651,PRaM,2021.2.3,Win32,60.0060006,61b8f3437b89212fae0dfadf
1,1.98,space,0.2813,0,284,284,298,1,,,61001bf79490f8d38e8325fa,61b90969ca5c4f7ad9ed783b,2021-12-14_15h15.52.651,PRaM,2021.2.3,Win32,60.0060006,61b8f3437b89212fae0dfadf
1,3.6887,space,1.8647,0,285,285,65,1,,,61001bf79490f8d38e8325fa,61b90969ca5c4f7ad9ed783b,2021-12-14_15h15.52.651,PRaM,2021.2.3,Win32,60.0060006,61b8f3437b89212fae0dfadf
1,1.6839,space,0.4466,0,286,286,253,1,,,61001bf79490f8d38e8325fa,61b90969ca5c4f7ad9ed783b,2021-12-14_15h15.52.651,PRaM,2021.2.3,Win32,60.0060006,61b8f3437b89212fae0dfadf
1,8.7724,space,7.6804,0,287,287,235,1,,,61001bf79490f8d38e8325fa,61b90969ca5c4f7ad9ed783b,2021-12-14_15h15.52.651,PRaM,2021.2.3,Win32,60.0060006,61b8f3437b89212fae0dfadf
2,1.9113,space,0.1829,0,288,288,244,1,,,61001bf79490f8d38e8325fa,61b90969ca5c4f7ad9ed783b,2021-12-14_15h15.52.651,PRaM,2021.2.3,Win32,60.0060006,61b8f3437b89212fae0dfadf
2,2.1964,space,0.3485,0,289,289,364,1,,,61001bf79490f8d38e8325fa,61b90969ca5c4f7ad9ed783b,2021-12-14_15h15.52.651,PRaM,2021.2.3,Win32,60.0060006,61b8f3437b89212fae0dfadf
6,3.0726,space,1.2051,0,290,290,196,1,,,61001bf79490f8d38e8325fa,61b90969ca5c4f7ad9ed783b,2021-12-14_15h15.52.651,PRaM,2021.2.3,Win32,60.0060006,61b8f3437b89212fae0dfadf
1,10.5546,space,8.9008,0,291,291,54,1,,,61001bf79490f8d38e8325fa,61b90969ca5c4f7ad9ed783b,2021-12-14_15h15.52.651,PRaM,2021.2.3,Win32,60.0060006,61b8f3437b89212fae0dfadf
1,1.3868,space,0.4075,0,292,292,231,1,,,61001bf79490f8d38e8325fa,61b90969ca5c4f7ad9ed783b,2021-12-14_15h15.52.651,PRaM,2021.2.3,Win32,60.0060006,61b8f3437b89212fae0dfadf
1,8.0262,space,6.1831,0,293,293,190,1,,,61001bf79490f8d38e8325fa,61b90969ca5c4f7ad9ed783b,2021-12-14_15h15.52.651,PRaM,2021.2.3,Win32,60.0060006,61b8f3437b89212fae0dfadf
1,1.4725,space,0.2818,0,294,294,286,1,,,61001bf79490f8d38e8325fa,61b90969ca5c4f7ad9ed783b,2021-12-14_15h15.52.651,PRaM,2021.2.3,Win32,60.0060006,61b8f3437b89212fae0dfadf
2,2.1991,space,0.3277,0,295,295,100,1,,,61001bf79490f8d38e8325fa,61b90969ca5c4f7ad9ed783b,2021-12-14_15h15.52.651,PRaM,2021.2.3,Win32,60.0060006,61b8f3437b89212fae0dfadf
2,6.7532,space,4.9319,0,296,296,84,1,,,61001bf79490f8d38e8325fa,61b90969ca5c4f7ad9ed783b,2021-12-14_15h15.52.651,PRaM,2021.2.3,Win32,60.0060006,61b8f3437b89212fae0dfadf
2,1.7168,space,0.6013,0,297,297,163,1,,,61001bf79490f8d38e8325fa,61b90969ca5c4f7ad9ed783b,2021-12-14_15h15.52.651,PRaM,2021.2.3,Win32,60.0060006,61b8f3437b89212fae0dfadf
8,3.2713,space,1.5313,0,298,298,105,1,,,61001bf79490f8d38e8325fa,61b90969ca5c4f7ad9ed783b,2021-12-14_15h15.52.651,PRaM,2021.2.3,Win32,60.0060006,61b8f3437b89212fae0dfadf
1,3.2753,space,1.4534,0,299,299,251,1,,,61001bf79490f8d38e8325fa,61b90969ca5c4f7ad9ed783b,2021-12-14_15h15.52.651,PRaM,2021.2.3,Win32,60.0060006,61b8f3437b89212fae0dfadf
2,4.2212,space,2.453,0,300,300,203,1,,,61001bf79490f8d38e8325fa,61b90969ca5c4f7ad9ed783b,2021-12-14_15h15.52.651,PRaM,2021.2.3,Win32,60.0060006,61b8f3437b89212fae0dfadf
1,6.1995,space,4.3212,0,301,301,308,1,,,61001bf79490f8d38e8325fa,61b90969ca5c4f7ad9ed783b,2021-12-14_15h15.52.651,PRaM,2021.2.3,Win32,60.0060006,61b8f3437b89212fae0dfadf
1,1.3526,space,0.0887,0,302,302,374,1,,,61001bf79490f8d38e8325fa,61b90969ca5c4f7ad9ed783b,2021-12-14_15h15.52.651,PRaM,2021.2.3,Win32,60.0060006,61b8f3437b89212fae0dfadf
3,1.6703,space,0.3818,0,303,303,177,1,,,61001bf79490f8d38e8325fa,61b90969ca5c4f7ad9ed783b,2021-12-14_15h15.52.651,PRaM,2021.2.3,Win32,60.0060006,61b8f3437b89212fae0dfadf
5,1.9476,space,0.2192,0,304,304,117,1,,,61001bf79490f8d38e8325fa,61b90969ca5c4f7ad9ed783b,2021-12-14_15h15.52.651,PRaM,2021.2.3,Win32,60.0060006,61b8f3437b89212fae0dfadf
4,3.8596,space,2.1282,0,305,305,208,1,,,61001bf79490f8d38e8325fa,61b90969ca5c4f7ad9ed783b,2021-12-14_15h15.52.651,PRaM,2021.2.3,Win32,60.0060006,61b8f3437b89212fae0dfadf
7,2.009,space,0.171,0,306,306,297,1,,,61001bf79490f8d38e8325fa,61b90969ca5c4f7ad9ed783b,2021-12-14_15h15.52.651,PRaM,2021.2.3,Win32,60.0060006,61b8f3437b89212fae0dfadf
5,2.476,space,0.6143,0,307,307,324,1,,,61001bf79490f8d38e8325fa,61b90969ca5c4f7ad9ed783b,2021-12-14_15h15.52.651,PRaM,2021.2.3,Win32,60.0060006,61b8f3437b89212fae0dfadf
3,2.0234,space,0.2981,0,308,308,144,1,,,61001bf79490f8d38e8325fa,61b90969ca5c4f7ad9ed783b,2021-12-14_15h15.52.651,PRaM,2021.2.3,Win32,60.0060006,61b8f3437b89212fae0dfadf
1,3.4516,space,1.8016,0,309,309,241,1,,,61001bf79490f8d38e8325fa,61b90969ca5c4f7ad9ed783b,2021-12-14_15h15.52.651,PRaM,2021.2.3,Win32,60.0060006,61b8f3437b89212fae0dfadf
,,space,0.8841,0,310,310,300,1,,,61001bf79490f8d38e8325fa,61b90969ca5c4f7ad9ed783b,2021-12-14_15h15.52.651,PRaM,2021.2.3,Win32,60.0060006,61b8f3437b89212fae0dfadf
7,3.0065,space,1.2512,0,311,311,270,1,,,61001bf79490f8d38e8325fa,61b90969ca5c4f7ad9ed783b,2021-12-14_15h15.52.651,PRaM,2021.2.3,Win32,60.0060006,61b8f3437b89212fae0dfadf
3,2.0498,space,0.3515,0,312,312,366,1,,,61001bf79490f8d38e8325fa,61b90969ca5c4f7ad9ed783b,2021-12-14_15h15.52.651,PRaM,2021.2.3,Win32,60.0060006,61b8f3437b89212fae0dfadf
1,4.6182,space,4.3002,0,313,313,55,1,,,61001bf79490f8d38e8325fa,61b90969ca5c4f7ad9ed783b,2021-12-14_15h15.52.651,PRaM,2021.2.3,Win32,60.0060006,61b8f3437b89212fae0dfadf
1,13.2628,space,11.5152,0,314,314,94,1,,,61001bf79490f8d38e8325fa,61b90969ca5c4f7ad9ed783b,2021-12-14_15h15.52.651,PRaM,2021.2.3,Win32,60.0060006,61b8f3437b89212fae0dfadf
4,2.6065,space,0.9205,0,315,315,142,1,,,61001bf79490f8d38e8325fa,61b90969ca5c4f7ad9ed783b,2021-12-14_15h15.52.651,PRaM,2021.2.3,Win32,60.0060006,61b8f3437b89212fae0dfadf
1,2.6002,space,0.8349,0,316,316,97,1,,,61001bf79490f8d38e8325fa,61b90969ca5c4f7ad9ed783b,2021-12-14_15h15.52.651,PRaM,2021.2.3,Win32,60.0060006,61b8f3437b89212fae0dfadf
1,2.3904,space,0.7698,0,317,317,1,1,,,61001bf79490f8d38e8325fa,61b90969ca5c4f7ad9ed783b,2021-12-14_15h15.52.651,PRaM,2021.2.3,Win32,60.0060006,61b8f3437b89212fae0dfadf
9,3.4851,space,1.8033,0,318,318,320,1,,,61001bf79490f8d38e8325fa,61b90969ca5c4f7ad9ed783b,2021-12-14_15h15.52.651,PRaM,2021.2.3,Win32,60.0060006,61b8f3437b89212fae0dfadf
2,1.897,space,0.2182,0,319,319,187,1,,,61001bf79490f8d38e8325fa,61b90969ca5c4f7ad9ed783b,2021-12-14_15h15.52.651,PRaM,2021.2.3,Win32,60.0060006,61b8f3437b89212fae0dfadf
3,5.0534,space,3.2314,0,320,320,327,1,,,61001bf79490f8d38e8325fa,61b90969ca5c4f7ad9ed783b,2021-12-14_15h15.52.651,PRaM,2021.2.3,Win32,60.0060006,61b8f3437b89212fae0dfadf
1,3.1383,space,1.5131,0,321,321,119,1,,,61001bf79490f8d38e8325fa,61b90969ca5c4f7ad9ed783b,2021-12-14_15h15.52.651,PRaM,2021.2.3,Win32,60.0060006,61b8f3437b89212fae0dfadf
3,2.5293,space,0.7699,0,322,322,317,1,,,61001bf79490f8d38e8325fa,61b90969ca5c4f7ad9ed783b,2021-12-14_15h15.52.651,PRaM,2021.2.3,Win32,60.0060006,61b8f3437b89212fae0dfadf
2,2.4428,space,0.6364,0,323,323,123,1,,,61001bf79490f8d38e8325fa,61b90969ca5c4f7ad9ed783b,2021-12-14_15h15.52.651,PRaM,2021.2.3,Win32,60.0060006,61b8f3437b89212fae0dfadf
1,1.9905,space,0.2191,0,324,324,47,1,,,61001bf79490f8d38e8325fa,61b90969ca5c4f7ad9ed783b,2021-12-14_15h15.52.651,PRaM,2021.2.3,Win32,60.0060006,61b8f3437b89212fae0dfadf
2,4.6749,space,3.3351,0,325,325,201,1,,,61001bf79490f8d38e8325fa,61b90969ca5c4f7ad9ed783b,2021-12-14_15h15.52.651,PRaM,2021.2.3,Win32,60.0060006,61b8f3437b89212fae0dfadf
,,space,1.1974,0,326,326,261,1,,,61001bf79490f8d38e8325fa,61b90969ca5c4f7ad9ed783b,2021-12-14_15h15.52.651,PRaM,2021.2.3,Win32,60.0060006,61b8f3437b89212fae0dfadf
6,2.9383,space,1.1675,0,327,327,39,1,,,61001bf79490f8d38e8325fa,61b90969ca5c4f7ad9ed783b,2021-12-14_15h15.52.651,PRaM,2021.2.3,Win32,60.0060006,61b8f3437b89212fae0dfadf
2,1.8132,space,0.1343,0,328,328,76,1,,,61001bf79490f8d38e8325fa,61b90969ca5c4f7ad9ed783b,2021-12-14_15h15.52.651,PRaM,2021.2.3,Win32,60.0060006,61b8f3437b89212fae0dfadf
1,2.0749,space,0.2003,0,329,329,375,1,,,61001bf79490f8d38e8325fa,61b90969ca5c4f7ad9ed783b,2021-12-14_15h15.52.651,PRaM,2021.2.3,Win32,60.0060006,61b8f3437b89212fae0dfadf
2,3.0785,space,1.3887,0,330,330,368,1,,,61001bf79490f8d38e8325fa,61b90969ca5c4f7ad9ed783b,2021-12-14_15h15.52.651,PRaM,2021.2.3,Win32,60.0060006,61b8f3437b89212fae0dfadf
2,1.6873,space,0.7259,0,331,331,109,1,,,61001bf79490f8d38e8325fa,61b90969ca5c4f7ad9ed783b,2021-12-14_15h15.52.651,PRaM,2021.2.3,Win32,60.0060006,61b8f3437b89212fae0dfadf
4,2.1258,space,0.3916,0,332,332,347,1,,,61001bf79490f8d38e8325fa,61b90969ca5c4f7ad9ed783b,2021-12-14_15h15.52.651,PRaM,2021.2.3,Win32,60.0060006,61b8f3437b89212fae0dfadf
3,5.8969,space,4.0347,0,333,333,326,1,,,61001bf79490f8d38e8325fa,61b90969ca5c4f7ad9ed783b,2021-12-14_15h15.52.651,PRaM,2021.2.3,Win32,60.0060006,61b8f3437b89212fae0dfadf
1,2.0365,space,0.3105,0,334,334,260,1,,,61001bf79490f8d38e8325fa,61b90969ca5c4f7ad9ed783b,2021-12-14_15h15.52.651,PRaM,2021.2.3,Win32,60.0060006,61b8f3437b89212fae0dfadf
2,2.158,space,0.3943,0,335,335,229,1,,,61001bf79490f8d38e8325fa,61b90969ca5c4f7ad9ed783b,2021-12-14_15h15.52.651,PRaM,2021.2.3,Win32,60.0060006,61b8f3437b89212fae0dfadf
3,2.4074,space,0.9979,0,336,336,371,1,,,61001bf79490f8d38e8325fa,61b90969ca5c4f7ad9ed783b,2021-12-14_15h15.52.651,PRaM,2021.2.3,Win32,60.0060006,61b8f3437b89212fae0dfadf
7,3.0113,space,1.2693,0,337,337,221,1,,,61001bf79490f8d38e8325fa,61b90969ca5c4f7ad9ed783b,2021-12-14_15h15.52.651,PRaM,2021.2.3,Win32,60.0060006,61b8f3437b89212fae0dfadf
2,1.3192,space,0.1019,0,338,338,49,1,,,61001bf79490f8d38e8325fa,61b90969ca5c4f7ad9ed783b,2021-12-14_15h15.52.651,PRaM,2021.2.3,Win32,60.0060006,61b8f3437b89212fae0dfadf
5,2.0629,space,0.3015,0,339,339,44,1,,,61001bf79490f8d38e8325fa,61b90969ca5c4f7ad9ed783b,2021-12-14_15h15.52.651,PRaM,2021.2.3,Win32,60.0060006,61b8f3437b89212fae0dfadf
3,2.2773,space,0.5006,0,340,340,204,1,,,61001bf79490f8d38e8325fa,61b90969ca5c4f7ad9ed783b,2021-12-14_15h15.52.651,PRaM,2021.2.3,Win32,60.0060006,61b8f3437b89212fae0dfadf
2,1.8703,space,0.2187,0,341,341,195,1,,,61001bf79490f8d38e8325fa,61b90969ca5c4f7ad9ed783b,2021-12-14_15h15.52.651,PRaM,2021.2.3,Win32,60.0060006,61b8f3437b89212fae0dfadf
2,2.0696,space,0.3189,0,342,342,370,1,,,61001bf79490f8d38e8325fa,61b90969ca5c4f7ad9ed783b,2021-12-14_15h15.52.651,PRaM,2021.2.3,Win32,60.0060006,61b8f3437b89212fae0dfadf
3,2.278,space,0.5416,0,343,343,205,1,,,61001bf79490f8d38e8325fa,61b90969ca5c4f7ad9ed783b,2021-12-14_15h15.52.651,PRaM,2021.2.3,Win32,60.0060006,61b8f3437b89212fae0dfadf
1,2.2791,space,0.438,0,344,344,148,1,,,61001bf79490f8d38e8325fa,61b90969ca5c4f7ad9ed783b,2021-12-14_15h15.52.651,PRaM,2021.2.3,Win32,60.0060006,61b8f3437b89212fae0dfadf
1,1.375,space,0.3676,0,345,345,322,1,,,61001bf79490f8d38e8325fa,61b90969ca5c4f7ad9ed783b,2021-12-14_15h15.52.651,PRaM,2021.2.3,Win32,60.0060006,61b8f3437b89212fae0dfadf
9,2.2553,space,0.407,0,346,346,137,1,,,61001bf79490f8d38e8325fa,61b90969ca5c4f7ad9ed783b,2021-12-14_15h15.52.651,PRaM,2021.2.3,Win32,60.0060006,61b8f3437b89212fae0dfadf
9,2.9602,space,1.1341,0,347,347,291,1,,,61001bf79490f8d38e8325fa,61b90969ca5c4f7ad9ed783b,2021-12-14_15h15.52.651,PRaM,2021.2.3,Win32,60.0060006,61b8f3437b89212fae0dfadf
2,7.2276,space,5.3601,0,348,348,282,1,,,61001bf79490f8d38e8325fa,61b90969ca5c4f7ad9ed783b,2021-12-14_15h15.52.651,PRaM,2021.2.3,Win32,60.0060006,61b8f3437b89212fae0dfadf
3,10.247,space,8.4181,0,349,349,32,1,,,61001bf79490f8d38e8325fa,61b90969ca5c4f7ad9ed783b,2021-12-14_15h15.52.651,PRaM,2021.2.3,Win32,60.0060006,61b8f3437b89212fae0dfadf
1,6.4724,space,4.6159,0,350,350,249,1,,,61001bf79490f8d38e8325fa,61b90969ca5c4f7ad9ed783b,2021-12-14_15h15.52.651,PRaM,2021.2.3,Win32,60.0060006,61b8f3437b89212fae0dfadf
1,2.5893,space,0.8863,0,351,351,237,1,,,61001bf79490f8d38e8325fa,61b90969ca5c4f7ad9ed783b,2021-12-14_15h15.52.651,PRaM,2021.2.3,Win32,60.0060006,61b8f3437b89212fae0dfadf
5,2.7277,space,0.8873,0,352,352,319,1,,,61001bf79490f8d38e8325fa,61b90969ca5c4f7ad9ed783b,2021-12-14_15h15.52.651,PRaM,2021.2.3,Win32,60.0060006,61b8f3437b89212fae0dfadf
1,1.9378,space,0.1714,0,353,353,256,1,,,61001bf79490f8d38e8325fa,61b90969ca5c4f7ad9ed783b,2021-12-14_15h15.52.651,PRaM,2021.2.3,Win32,60.0060006,61b8f3437b89212fae0dfadf
4,2.721,space,1.0187,0,354,354,168,1,,,61001bf79490f8d38e8325fa,61b90969ca5c4f7ad9ed783b,2021-12-14_15h15.52.651,PRaM,2021.2.3,Win32,60.0060006,61b8f3437b89212fae0dfadf
1,3.1344,space,1.3934,0,355,355,373,1,,,61001bf79490f8d38e8325fa,61b90969ca5c4f7ad9ed783b,2021-12-14_15h15.52.651,PRaM,2021.2.3,Win32,60.0060006,61b8f3437b89212fae0dfadf
1,3.7541,space,2.0168,0,356,356,234,1,,,61001bf79490f8d38e8325fa,61b90969ca5c4f7ad9ed783b,2021-12-14_15h15.52.651,PRaM,2021.2.3,Win32,60.0060006,61b8f3437b89212fae0dfadf
3,6.6383,space,4.8858,0,357,357,255,1,,,61001bf79490f8d38e8325fa,61b90969ca5c4f7ad9ed783b,2021-12-14_15h15.52.651,PRaM,2021.2.3,Win32,60.0060006,61b8f3437b89212fae0dfadf
1,8.4438,space,6.6346,0,358,358,11,1,,,61001bf79490f8d38e8325fa,61b90969ca5c4f7ad9ed783b,2021-12-14_15h15.52.651,PRaM,2021.2.3,Win32,60.0060006,61b8f3437b89212fae0dfadf
1,1.4938,space,0.1706,0,359,359,22,1,,,61001bf79490f8d38e8325fa,61b90969ca5c4f7ad9ed783b,2021-12-14_15h15.52.651,PRaM,2021.2.3,Win32,60.0060006,61b8f3437b89212fae0dfadf
6,1.769,space,0.4187,0,360,360,179,1,,,61001bf79490f8d38e8325fa,61b90969ca5c4f7ad9ed783b,2021-12-14_15h15.52.651,PRaM,2021.2.3,Win32,60.0060006,61b8f3437b89212fae0dfadf
7,1.9234,space,0.2032,0,361,361,51,1,,,61001bf79490f8d38e8325fa,61b90969ca5c4f7ad9ed783b,2021-12-14_15h15.52.651,PRaM,2021.2.3,Win32,60.0060006,61b8f3437b89212fae0dfadf
1,1.5058,space,0.1231,0,362,362,361,1,,,61001bf79490f8d38e8325fa,61b90969ca5c4f7ad9ed783b,2021-12-14_15h15.52.651,PRaM,2021.2.3,Win32,60.0060006,61b8f3437b89212fae0dfadf
3,2.276,space,0.4022,0,363,363,12,1,,,61001bf79490f8d38e8325fa,61b90969ca5c4f7ad9ed783b,2021-12-14_15h15.52.651,PRaM,2021.2.3,Win32,60.0060006,61b8f3437b89212fae0dfadf
1,3.3789,space,1.5519,0,364,364,170,1,,,61001bf79490f8d38e8325fa,61b90969ca5c4f7ad9ed783b,2021-12-14_15h15.52.651,PRaM,2021.2.3,Win32,60.0060006,61b8f3437b89212fae0dfadf
2,1.8601,space,0.0378,0,365,365,349,1,,,61001bf79490f8d38e8325fa,61b90969ca5c4f7ad9ed783b,2021-12-14_15h15.52.651,PRaM,2021.2.3,Win32,60.0060006,61b8f3437b89212fae0dfadf
2,2.4301,space,0.5384,0,366,366,350,1,,,61001bf79490f8d38e8325fa,61b90969ca5c4f7ad9ed783b,2021-12-14_15h15.52.651,PRaM,2021.2.3,Win32,60.0060006,61b8f3437b89212fae0dfadf
1,3.1367,space,1.361,0,367,367,106,1,,,61001bf79490f8d38e8325fa,61b90969ca5c4f7ad9ed783b,2021-12-14_15h15.52.651,PRaM,2021.2.3,Win32,60.0060006,61b8f3437b89212fae0dfadf
1,1.7366,space,0.4668,0,368,368,13,1,,,61001bf79490f8d38e8325fa,61b90969ca5c4f7ad9ed783b,2021-12-14_15h15.52.651,PRaM,2021.2.3,Win32,60.0060006,61b8f3437b89212fae0dfadf
2,2.7362,space,1.0658,0,369,369,315,1,,,61001bf79490f8d38e8325fa,61b90969ca5c4f7ad9ed783b,2021-12-14_15h15.52.651,PRaM,2021.2.3,Win32,60.0060006,61b8f3437b89212fae0dfadf
1,1.9723,space,0.2378,0,370,370,58,1,,,61001bf79490f8d38e8325fa,61b90969ca5c4f7ad9ed783b,2021-12-14_15h15.52.651,PRaM,2021.2.3,Win32,60.0060006,61b8f3437b89212fae0dfadf
7,2.0379,space,0.1675,0,371,371,136,1,,,61001bf79490f8d38e8325fa,61b90969ca5c4f7ad9ed783b,2021-12-14_15h15.52.651,PRaM,2021.2.3,Win32,60.0060006,61b8f3437b89212fae0dfadf
1,1.4869,space,0.116,0,372,372,247,1,,,61001bf79490f8d38e8325fa,61b90969ca5c4f7ad9ed783b,2021-12-14_15h15.52.651,PRaM,2021.2.3,Win32,60.0060006,61b8f3437b89212fae0dfadf
5,3.092,space,1.3699,0,373,373,16,1,,,61001bf79490f8d38e8325fa,61b90969ca5c4f7ad9ed783b,2021-12-14_15h15.52.651,PRaM,2021.2.3,Win32,60.0060006,61b8f3437b89212fae0dfadf
5,2.4291,space,0.655,0,374,374,337,1,,,61001bf79490f8d38e8325fa,61b90969ca5c4f7ad9ed783b,2021-12-14_15h15.52.651,PRaM,2021.2.3,Win32,60.0060006,61b8f3437b89212fae0dfadf
3,2.64,space,2.2733,0,375,375,164,1,,,61001bf79490f8d38e8325fa,61b90969ca5c4f7ad9ed783b,2021-12-14_15h15.52.651,PRaM,2021.2.3,Win32,60.0060006,61b8f3437b89212fae0dfadf
2,4.8435,space,3.0361,0,376,376,242,1,,,61001bf79490f8d38e8325fa,61b90969ca5c4f7ad9ed783b,2021-12-14_15h15.52.651,PRaM,2021.2.3,Win32,60.0060006,61b8f3437b89212fae0dfadf
2,1.7179,space,0.0341,0,377,377,158,1,,,61001bf79490f8d38e8325fa,61b90969ca5c4f7ad9ed783b,2021-12-14_15h15.52.651,PRaM,2021.2.3,Win32,60.0060006,61b8f3437b89212fae0dfadf
