Rating.response,Rating.rt,EndTrial.keys,EndTrial.rt,trials.thisRepN,trials.thisTrialN,trials.thisN,trials.thisIndex,trials.ran,Pos1,Pos2,participant,session,date,expName,psychopyVersion,OS,frameRate,study_id
3,10.7943,space,9.3988,0,0,0,209,1,,,6101930ddd5330f83b898c61,61ba1b96655939d59a3aee8a,2021-12-15_10h45.41.987,PRaM,2021.2.3,Win32,59.60896519,61b8f3437b89212fae0dfadf
4,3.9237,space,2.5568,0,1,1,158,1,,,6101930ddd5330f83b898c61,61ba1b96655939d59a3aee8a,2021-12-15_10h45.41.987,PRaM,2021.2.3,Win32,59.60896519,61b8f3437b89212fae0dfadf
5,3.3613,space,5.0199,0,2,2,306,1,,,6101930ddd5330f83b898c61,61ba1b96655939d59a3aee8a,2021-12-15_10h45.41.987,PRaM,2021.2.3,Win32,59.60896519,61b8f3437b89212fae0dfadf
5,2.1196,space,0.6676,0,3,3,132,1,,,6101930ddd5330f83b898c61,61ba1b96655939d59a3aee8a,2021-12-15_10h45.41.987,PRaM,2021.2.3,Win32,59.60896519,61b8f3437b89212fae0dfadf
7,3.2494,space,2.2697,0,4,4,159,1,,,6101930ddd5330f83b898c61,61ba1b96655939d59a3aee8a,2021-12-15_10h45.41.987,PRaM,2021.2.3,Win32,59.60896519,61b8f3437b89212fae0dfadf
6,2.6895,space,1.2577,0,5,5,7,1,,,6101930ddd5330f83b898c61,61ba1b96655939d59a3aee8a,2021-12-15_10h45.41.987,PRaM,2021.2.3,Win32,59.60896519,61b8f3437b89212fae0dfadf
2,2.6281,space,1.6862,0,6,6,284,1,,,6101930ddd5330f83b898c61,61ba1b96655939d59a3aee8a,2021-12-15_10h45.41.987,PRaM,2021.2.3,Win32,59.60896519,61b8f3437b89212fae0dfadf
2,3.0506,space,1.7686,0,7,7,198,1,,,6101930ddd5330f83b898c61,61ba1b96655939d59a3aee8a,2021-12-15_10h45.41.987,PRaM,2021.2.3,Win32,59.60896519,61b8f3437b89212fae0dfadf
1,4.3109,space,2.7399,0,8,8,89,1,,,6101930ddd5330f83b898c61,61ba1b96655939d59a3aee8a,2021-12-15_10h45.41.987,PRaM,2021.2.3,Win32,59.60896519,61b8f3437b89212fae0dfadf
6,3.8364,space,3.3711,0,9,9,208,1,,,6101930ddd5330f83b898c61,61ba1b96655939d59a3aee8a,2021-12-15_10h45.41.987,PRaM,2021.2.3,Win32,59.60896519,61b8f3437b89212fae0dfadf
2,3.1839,space,1.536,0,10,10,24,1,,,6101930ddd5330f83b898c61,61ba1b96655939d59a3aee8a,2021-12-15_10h45.41.987,PRaM,2021.2.3,Win32,59.60896519,61b8f3437b89212fae0dfadf
6,2.5599,space,0.9745,0,11,11,112,1,,,6101930ddd5330f83b898c61,61ba1b96655939d59a3aee8a,2021-12-15_10h45.41.987,PRaM,2021.2.3,Win32,59.60896519,61b8f3437b89212fae0dfadf
2,3.595,space,1.9559,0,12,12,162,1,,,6101930ddd5330f83b898c61,61ba1b96655939d59a3aee8a,2021-12-15_10h45.41.987,PRaM,2021.2.3,Win32,59.60896519,61b8f3437b89212fae0dfadf
1,3.5919,space,2.1984,0,13,13,374,1,,,6101930ddd5330f83b898c61,61ba1b96655939d59a3aee8a,2021-12-15_10h45.41.987,PRaM,2021.2.3,Win32,59.60896519,61b8f3437b89212fae0dfadf
1,3.2669,space,1.5399,0,14,14,250,1,,,6101930ddd5330f83b898c61,61ba1b96655939d59a3aee8a,2021-12-15_10h45.41.987,PRaM,2021.2.3,Win32,59.60896519,61b8f3437b89212fae0dfadf
6,3.1636,space,1.4898,0,15,15,120,1,,,6101930ddd5330f83b898c61,61ba1b96655939d59a3aee8a,2021-12-15_10h45.41.987,PRaM,2021.2.3,Win32,59.60896519,61b8f3437b89212fae0dfadf
3,2.1098,space,3.2039,0,16,16,144,1,,,6101930ddd5330f83b898c61,61ba1b96655939d59a3aee8a,2021-12-15_10h45.41.987,PRaM,2021.2.3,Win32,59.60896519,61b8f3437b89212fae0dfadf
3,34.3321,space,33.2504,0,17,17,101,1,,,6101930ddd5330f83b898c61,61ba1b96655939d59a3aee8a,2021-12-15_10h45.41.987,PRaM,2021.2.3,Win32,59.60896519,61b8f3437b89212fae0dfadf
3,4.6957,space,3.1198,0,18,18,252,1,,,6101930ddd5330f83b898c61,61ba1b96655939d59a3aee8a,2021-12-15_10h45.41.987,PRaM,2021.2.3,Win32,59.60896519,61b8f3437b89212fae0dfadf
2,1.6429,space,2.6246,0,19,19,283,1,,,6101930ddd5330f83b898c61,61ba1b96655939d59a3aee8a,2021-12-15_10h45.41.987,PRaM,2021.2.3,Win32,59.60896519,61b8f3437b89212fae0dfadf
1,3.2381,space,2.0981,0,20,20,330,1,,,6101930ddd5330f83b898c61,61ba1b96655939d59a3aee8a,2021-12-15_10h45.41.987,PRaM,2021.2.3,Win32,59.60896519,61b8f3437b89212fae0dfadf
1,2.9773,space,1.5192,0,21,21,108,1,,,6101930ddd5330f83b898c61,61ba1b96655939d59a3aee8a,2021-12-15_10h45.41.987,PRaM,2021.2.3,Win32,59.60896519,61b8f3437b89212fae0dfadf
3,3.1442,space,1.8189,0,22,22,223,1,,,6101930ddd5330f83b898c61,61ba1b96655939d59a3aee8a,2021-12-15_10h45.41.987,PRaM,2021.2.3,Win32,59.60896519,61b8f3437b89212fae0dfadf
1,3.4613,space,1.9758,0,23,23,41,1,,,6101930ddd5330f83b898c61,61ba1b96655939d59a3aee8a,2021-12-15_10h45.41.987,PRaM,2021.2.3,Win32,59.60896519,61b8f3437b89212fae0dfadf
2,3.7812,space,2.3029,0,24,24,341,1,,,6101930ddd5330f83b898c61,61ba1b96655939d59a3aee8a,2021-12-15_10h45.41.987,PRaM,2021.2.3,Win32,59.60896519,61b8f3437b89212fae0dfadf
1,2.9326,space,1.3349,0,25,25,68,1,,,6101930ddd5330f83b898c61,61ba1b96655939d59a3aee8a,2021-12-15_10h45.41.987,PRaM,2021.2.3,Win32,59.60896519,61b8f3437b89212fae0dfadf
1,2.5491,space,1.0733,0,26,26,359,1,,,6101930ddd5330f83b898c61,61ba1b96655939d59a3aee8a,2021-12-15_10h45.41.987,PRaM,2021.2.3,Win32,59.60896519,61b8f3437b89212fae0dfadf
2,2.6602,space,1.113,0,27,27,91,1,,,6101930ddd5330f83b898c61,61ba1b96655939d59a3aee8a,2021-12-15_10h45.41.987,PRaM,2021.2.3,Win32,59.60896519,61b8f3437b89212fae0dfadf
6,2.5789,space,2.4531,0,28,28,115,1,,,6101930ddd5330f83b898c61,61ba1b96655939d59a3aee8a,2021-12-15_10h45.41.987,PRaM,2021.2.3,Win32,59.60896519,61b8f3437b89212fae0dfadf
4,2.7796,space,5.2266,0,29,29,0,1,,,6101930ddd5330f83b898c61,61ba1b96655939d59a3aee8a,2021-12-15_10h45.41.987,PRaM,2021.2.3,Win32,59.60896519,61b8f3437b89212fae0dfadf
3,3.9619,space,3.1609,0,30,30,172,1,,,6101930ddd5330f83b898c61,61ba1b96655939d59a3aee8a,2021-12-15_10h45.41.987,PRaM,2021.2.3,Win32,59.60896519,61b8f3437b89212fae0dfadf
2,3.2168,space,1.6692,0,31,31,111,1,,,6101930ddd5330f83b898c61,61ba1b96655939d59a3aee8a,2021-12-15_10h45.41.987,PRaM,2021.2.3,Win32,59.60896519,61b8f3437b89212fae0dfadf
2,4.5181,space,2.9094,0,32,32,322,1,,,6101930ddd5330f83b898c61,61ba1b96655939d59a3aee8a,2021-12-15_10h45.41.987,PRaM,2021.2.3,Win32,59.60896519,61b8f3437b89212fae0dfadf
8,3.5837,space,2.0526,0,33,33,61,1,,,6101930ddd5330f83b898c61,61ba1b96655939d59a3aee8a,2021-12-15_10h45.41.987,PRaM,2021.2.3,Win32,59.60896519,61b8f3437b89212fae0dfadf
5,2.6934,space,1.28,0,34,34,165,1,,,6101930ddd5330f83b898c61,61ba1b96655939d59a3aee8a,2021-12-15_10h45.41.987,PRaM,2021.2.3,Win32,59.60896519,61b8f3437b89212fae0dfadf
5,2.0931,space,0.5851,0,35,35,274,1,,,6101930ddd5330f83b898c61,61ba1b96655939d59a3aee8a,2021-12-15_10h45.41.987,PRaM,2021.2.3,Win32,59.60896519,61b8f3437b89212fae0dfadf
2,3.1828,space,1.5386,0,36,36,163,1,,,6101930ddd5330f83b898c61,61ba1b96655939d59a3aee8a,2021-12-15_10h45.41.987,PRaM,2021.2.3,Win32,59.60896519,61b8f3437b89212fae0dfadf
2,3.7005,space,2.0248,0,37,37,229,1,,,6101930ddd5330f83b898c61,61ba1b96655939d59a3aee8a,2021-12-15_10h45.41.987,PRaM,2021.2.3,Win32,59.60896519,61b8f3437b89212fae0dfadf
4,2.9964,space,1.652,0,38,38,261,1,,,6101930ddd5330f83b898c61,61ba1b96655939d59a3aee8a,2021-12-15_10h45.41.987,PRaM,2021.2.3,Win32,59.60896519,61b8f3437b89212fae0dfadf
4,2.7434,space,1.1405,0,39,39,182,1,,,6101930ddd5330f83b898c61,61ba1b96655939d59a3aee8a,2021-12-15_10h45.41.987,PRaM,2021.2.3,Win32,59.60896519,61b8f3437b89212fae0dfadf
5,1.6257,space,0.1004,0,40,40,340,1,,,6101930ddd5330f83b898c61,61ba1b96655939d59a3aee8a,2021-12-15_10h45.41.987,PRaM,2021.2.3,Win32,59.60896519,61b8f3437b89212fae0dfadf
2,1.993,space,0.3842,0,41,41,2,1,,,6101930ddd5330f83b898c61,61ba1b96655939d59a3aee8a,2021-12-15_10h45.41.987,PRaM,2021.2.3,Win32,59.60896519,61b8f3437b89212fae0dfadf
2,1.9468,space,0.3324,0,42,42,375,1,,,6101930ddd5330f83b898c61,61ba1b96655939d59a3aee8a,2021-12-15_10h45.41.987,PRaM,2021.2.3,Win32,59.60896519,61b8f3437b89212fae0dfadf
1,2.6353,space,1.0256,0,43,43,212,1,,,6101930ddd5330f83b898c61,61ba1b96655939d59a3aee8a,2021-12-15_10h45.41.987,PRaM,2021.2.3,Win32,59.60896519,61b8f3437b89212fae0dfadf
3,2.0258,space,0.6215,0,44,44,263,1,,,6101930ddd5330f83b898c61,61ba1b96655939d59a3aee8a,2021-12-15_10h45.41.987,PRaM,2021.2.3,Win32,59.60896519,61b8f3437b89212fae0dfadf
5,5.6495,space,3.9604,0,45,45,280,1,,,6101930ddd5330f83b898c61,61ba1b96655939d59a3aee8a,2021-12-15_10h45.41.987,PRaM,2021.2.3,Win32,59.60896519,61b8f3437b89212fae0dfadf
2,2.4436,space,0.9133,0,46,46,260,1,,,6101930ddd5330f83b898c61,61ba1b96655939d59a3aee8a,2021-12-15_10h45.41.987,PRaM,2021.2.3,Win32,59.60896519,61b8f3437b89212fae0dfadf
1,1.8924,space,0.3388,0,47,47,1,1,,,6101930ddd5330f83b898c61,61ba1b96655939d59a3aee8a,2021-12-15_10h45.41.987,PRaM,2021.2.3,Win32,59.60896519,61b8f3437b89212fae0dfadf
1,2.1641,space,0.5548,0,48,48,214,1,,,6101930ddd5330f83b898c61,61ba1b96655939d59a3aee8a,2021-12-15_10h45.41.987,PRaM,2021.2.3,Win32,59.60896519,61b8f3437b89212fae0dfadf
6,2.2769,space,0.601,0,49,49,59,1,,,6101930ddd5330f83b898c61,61ba1b96655939d59a3aee8a,2021-12-15_10h45.41.987,PRaM,2021.2.3,Win32,59.60896519,61b8f3437b89212fae0dfadf
4,2.2271,space,0.6686,0,50,50,273,1,,,6101930ddd5330f83b898c61,61ba1b96655939d59a3aee8a,2021-12-15_10h45.41.987,PRaM,2021.2.3,Win32,59.60896519,61b8f3437b89212fae0dfadf
8,2.8398,space,1.3186,0,51,51,323,1,,,6101930ddd5330f83b898c61,61ba1b96655939d59a3aee8a,2021-12-15_10h45.41.987,PRaM,2021.2.3,Win32,59.60896519,61b8f3437b89212fae0dfadf
3,2.7445,space,1.1019,0,52,52,206,1,,,6101930ddd5330f83b898c61,61ba1b96655939d59a3aee8a,2021-12-15_10h45.41.987,PRaM,2021.2.3,Win32,59.60896519,61b8f3437b89212fae0dfadf
3,2.3694,space,0.7136,0,53,53,86,1,,,6101930ddd5330f83b898c61,61ba1b96655939d59a3aee8a,2021-12-15_10h45.41.987,PRaM,2021.2.3,Win32,59.60896519,61b8f3437b89212fae0dfadf
2,1.7426,space,0.1029,0,54,54,131,1,,,6101930ddd5330f83b898c61,61ba1b96655939d59a3aee8a,2021-12-15_10h45.41.987,PRaM,2021.2.3,Win32,59.60896519,61b8f3437b89212fae0dfadf
3,2.5775,space,0.9758,0,55,55,216,1,,,6101930ddd5330f83b898c61,61ba1b96655939d59a3aee8a,2021-12-15_10h45.41.987,PRaM,2021.2.3,Win32,59.60896519,61b8f3437b89212fae0dfadf
4,2.4496,space,0.7847,0,56,56,12,1,,,6101930ddd5330f83b898c61,61ba1b96655939d59a3aee8a,2021-12-15_10h45.41.987,PRaM,2021.2.3,Win32,59.60896519,61b8f3437b89212fae0dfadf
6,3.0999,space,1.427,0,57,57,259,1,,,6101930ddd5330f83b898c61,61ba1b96655939d59a3aee8a,2021-12-15_10h45.41.987,PRaM,2021.2.3,Win32,59.60896519,61b8f3437b89212fae0dfadf
5,4.031,space,2.3692,0,58,58,298,1,,,6101930ddd5330f83b898c61,61ba1b96655939d59a3aee8a,2021-12-15_10h45.41.987,PRaM,2021.2.3,Win32,59.60896519,61b8f3437b89212fae0dfadf
6,1.8093,space,0.2844,0,59,59,334,1,,,6101930ddd5330f83b898c61,61ba1b96655939d59a3aee8a,2021-12-15_10h45.41.987,PRaM,2021.2.3,Win32,59.60896519,61b8f3437b89212fae0dfadf
3,2.2265,space,0.6751,0,60,60,365,1,,,6101930ddd5330f83b898c61,61ba1b96655939d59a3aee8a,2021-12-15_10h45.41.987,PRaM,2021.2.3,Win32,59.60896519,61b8f3437b89212fae0dfadf
1,2.2097,space,0.773,0,61,61,121,1,,,6101930ddd5330f83b898c61,61ba1b96655939d59a3aee8a,2021-12-15_10h45.41.987,PRaM,2021.2.3,Win32,59.60896519,61b8f3437b89212fae0dfadf
1,1.7927,space,0.1545,0,62,62,67,1,,,6101930ddd5330f83b898c61,61ba1b96655939d59a3aee8a,2021-12-15_10h45.41.987,PRaM,2021.2.3,Win32,59.60896519,61b8f3437b89212fae0dfadf
4,9.6064,space,7.9419,0,63,63,177,1,,,6101930ddd5330f83b898c61,61ba1b96655939d59a3aee8a,2021-12-15_10h45.41.987,PRaM,2021.2.3,Win32,59.60896519,61b8f3437b89212fae0dfadf
3,3.2188,space,1.9693,0,64,64,178,1,,,6101930ddd5330f83b898c61,61ba1b96655939d59a3aee8a,2021-12-15_10h45.41.987,PRaM,2021.2.3,Win32,59.60896519,61b8f3437b89212fae0dfadf
3,2.56,space,1.4372,0,65,65,370,1,,,6101930ddd5330f83b898c61,61ba1b96655939d59a3aee8a,2021-12-15_10h45.41.987,PRaM,2021.2.3,Win32,59.60896519,61b8f3437b89212fae0dfadf
6,3.2168,space,1.5691,0,66,66,168,1,,,6101930ddd5330f83b898c61,61ba1b96655939d59a3aee8a,2021-12-15_10h45.41.987,PRaM,2021.2.3,Win32,59.60896519,61b8f3437b89212fae0dfadf
1,3.9946,space,2.3892,0,67,67,65,1,,,6101930ddd5330f83b898c61,61ba1b96655939d59a3aee8a,2021-12-15_10h45.41.987,PRaM,2021.2.3,Win32,59.60896519,61b8f3437b89212fae0dfadf
2,2.7671,space,1.1759,0,68,68,362,1,,,6101930ddd5330f83b898c61,61ba1b96655939d59a3aee8a,2021-12-15_10h45.41.987,PRaM,2021.2.3,Win32,59.60896519,61b8f3437b89212fae0dfadf
3,2.0932,space,0.5504,0,69,69,180,1,,,6101930ddd5330f83b898c61,61ba1b96655939d59a3aee8a,2021-12-15_10h45.41.987,PRaM,2021.2.3,Win32,59.60896519,61b8f3437b89212fae0dfadf
3,1.7651,space,0.2519,0,70,70,307,1,,,6101930ddd5330f83b898c61,61ba1b96655939d59a3aee8a,2021-12-15_10h45.41.987,PRaM,2021.2.3,Win32,59.60896519,61b8f3437b89212fae0dfadf
4,3.6401,space,2.0711,0,71,71,150,1,,,6101930ddd5330f83b898c61,61ba1b96655939d59a3aee8a,2021-12-15_10h45.41.987,PRaM,2021.2.3,Win32,59.60896519,61b8f3437b89212fae0dfadf
3,2.2319,space,0.5856,0,72,72,194,1,,,6101930ddd5330f83b898c61,61ba1b96655939d59a3aee8a,2021-12-15_10h45.41.987,PRaM,2021.2.3,Win32,59.60896519,61b8f3437b89212fae0dfadf
3,2.2595,space,0.5997,0,73,73,126,1,,,6101930ddd5330f83b898c61,61ba1b96655939d59a3aee8a,2021-12-15_10h45.41.987,PRaM,2021.2.3,Win32,59.60896519,61b8f3437b89212fae0dfadf
3,2.1623,space,0.5509,0,74,74,186,1,,,6101930ddd5330f83b898c61,61ba1b96655939d59a3aee8a,2021-12-15_10h45.41.987,PRaM,2021.2.3,Win32,59.60896519,61b8f3437b89212fae0dfadf
4,1.8649,space,0.2174,0,75,75,142,1,,,6101930ddd5330f83b898c61,61ba1b96655939d59a3aee8a,2021-12-15_10h45.41.987,PRaM,2021.2.3,Win32,59.60896519,61b8f3437b89212fae0dfadf
1,2.4834,space,0.8524,0,76,76,9,1,,,6101930ddd5330f83b898c61,61ba1b96655939d59a3aee8a,2021-12-15_10h45.41.987,PRaM,2021.2.3,Win32,59.60896519,61b8f3437b89212fae0dfadf
1,2.2432,space,1.0518,0,77,77,78,1,,,6101930ddd5330f83b898c61,61ba1b96655939d59a3aee8a,2021-12-15_10h45.41.987,PRaM,2021.2.3,Win32,59.60896519,61b8f3437b89212fae0dfadf
5,4.7133,space,3.0572,0,78,78,270,1,,,6101930ddd5330f83b898c61,61ba1b96655939d59a3aee8a,2021-12-15_10h45.41.987,PRaM,2021.2.3,Win32,59.60896519,61b8f3437b89212fae0dfadf
8,2.193,space,0.7046,0,79,79,276,1,,,6101930ddd5330f83b898c61,61ba1b96655939d59a3aee8a,2021-12-15_10h45.41.987,PRaM,2021.2.3,Win32,59.60896519,61b8f3437b89212fae0dfadf
3,2.1145,space,0.4964,0,80,80,367,1,,,6101930ddd5330f83b898c61,61ba1b96655939d59a3aee8a,2021-12-15_10h45.41.987,PRaM,2021.2.3,Win32,59.60896519,61b8f3437b89212fae0dfadf
6,1.9315,space,0.3856,0,81,81,291,1,,,6101930ddd5330f83b898c61,61ba1b96655939d59a3aee8a,2021-12-15_10h45.41.987,PRaM,2021.2.3,Win32,59.60896519,61b8f3437b89212fae0dfadf
1,3.1447,space,1.536,0,82,82,218,1,,,6101930ddd5330f83b898c61,61ba1b96655939d59a3aee8a,2021-12-15_10h45.41.987,PRaM,2021.2.3,Win32,59.60896519,61b8f3437b89212fae0dfadf
1,1.9669,space,0.4462,0,83,83,217,1,,,6101930ddd5330f83b898c61,61ba1b96655939d59a3aee8a,2021-12-15_10h45.41.987,PRaM,2021.2.3,Win32,59.60896519,61b8f3437b89212fae0dfadf
1,2.0437,space,1.0851,0,84,84,318,1,,,6101930ddd5330f83b898c61,61ba1b96655939d59a3aee8a,2021-12-15_10h45.41.987,PRaM,2021.2.3,Win32,59.60896519,61b8f3437b89212fae0dfadf
1,2.7997,space,1.1973,0,85,85,324,1,,,6101930ddd5330f83b898c61,61ba1b96655939d59a3aee8a,2021-12-15_10h45.41.987,PRaM,2021.2.3,Win32,59.60896519,61b8f3437b89212fae0dfadf
5,5.3969,space,3.7542,0,86,86,29,1,,,6101930ddd5330f83b898c61,61ba1b96655939d59a3aee8a,2021-12-15_10h45.41.987,PRaM,2021.2.3,Win32,59.60896519,61b8f3437b89212fae0dfadf
2,2.2099,space,0.621,0,87,87,79,1,,,6101930ddd5330f83b898c61,61ba1b96655939d59a3aee8a,2021-12-15_10h45.41.987,PRaM,2021.2.3,Win32,59.60896519,61b8f3437b89212fae0dfadf
2,2.7994,space,1.1684,0,88,88,241,1,,,6101930ddd5330f83b898c61,61ba1b96655939d59a3aee8a,2021-12-15_10h45.41.987,PRaM,2021.2.3,Win32,59.60896519,61b8f3437b89212fae0dfadf
4,1.9808,space,0.4009,0,89,89,75,1,,,6101930ddd5330f83b898c61,61ba1b96655939d59a3aee8a,2021-12-15_10h45.41.987,PRaM,2021.2.3,Win32,59.60896519,61b8f3437b89212fae0dfadf
7,2.1855,space,0.6351,0,90,90,42,1,,,6101930ddd5330f83b898c61,61ba1b96655939d59a3aee8a,2021-12-15_10h45.41.987,PRaM,2021.2.3,Win32,59.60896519,61b8f3437b89212fae0dfadf
1,2.3,space,0.6429,0,91,91,195,1,,,6101930ddd5330f83b898c61,61ba1b96655939d59a3aee8a,2021-12-15_10h45.41.987,PRaM,2021.2.3,Win32,59.60896519,61b8f3437b89212fae0dfadf
1,4.2689,space,2.7029,0,92,92,34,1,,,6101930ddd5330f83b898c61,61ba1b96655939d59a3aee8a,2021-12-15_10h45.41.987,PRaM,2021.2.3,Win32,59.60896519,61b8f3437b89212fae0dfadf
4,2.3498,space,0.7878,0,93,93,219,1,,,6101930ddd5330f83b898c61,61ba1b96655939d59a3aee8a,2021-12-15_10h45.41.987,PRaM,2021.2.3,Win32,59.60896519,61b8f3437b89212fae0dfadf
3,2.6327,space,1.039,0,94,94,332,1,,,6101930ddd5330f83b898c61,61ba1b96655939d59a3aee8a,2021-12-15_10h45.41.987,PRaM,2021.2.3,Win32,59.60896519,61b8f3437b89212fae0dfadf
3,3.2615,space,1.6041,0,95,95,278,1,,,6101930ddd5330f83b898c61,61ba1b96655939d59a3aee8a,2021-12-15_10h45.41.987,PRaM,2021.2.3,Win32,59.60896519,61b8f3437b89212fae0dfadf
1,5.068,space,3.5212,0,96,96,235,1,,,6101930ddd5330f83b898c61,61ba1b96655939d59a3aee8a,2021-12-15_10h45.41.987,PRaM,2021.2.3,Win32,59.60896519,61b8f3437b89212fae0dfadf
2,2.5881,space,0.8844,0,97,97,185,1,,,6101930ddd5330f83b898c61,61ba1b96655939d59a3aee8a,2021-12-15_10h45.41.987,PRaM,2021.2.3,Win32,59.60896519,61b8f3437b89212fae0dfadf
2,2.2303,space,0.5895,0,98,98,175,1,,,6101930ddd5330f83b898c61,61ba1b96655939d59a3aee8a,2021-12-15_10h45.41.987,PRaM,2021.2.3,Win32,59.60896519,61b8f3437b89212fae0dfadf
1,1.9943,space,0.4343,0,99,99,184,1,,,6101930ddd5330f83b898c61,61ba1b96655939d59a3aee8a,2021-12-15_10h45.41.987,PRaM,2021.2.3,Win32,59.60896519,61b8f3437b89212fae0dfadf
2,2.2324,space,0.5899,0,100,100,272,1,,,6101930ddd5330f83b898c61,61ba1b96655939d59a3aee8a,2021-12-15_10h45.41.987,PRaM,2021.2.3,Win32,59.60896519,61b8f3437b89212fae0dfadf
2,2.1432,space,0.507,0,101,101,28,1,,,6101930ddd5330f83b898c61,61ba1b96655939d59a3aee8a,2021-12-15_10h45.41.987,PRaM,2021.2.3,Win32,59.60896519,61b8f3437b89212fae0dfadf
2,2.1094,space,0.508,0,102,102,138,1,,,6101930ddd5330f83b898c61,61ba1b96655939d59a3aee8a,2021-12-15_10h45.41.987,PRaM,2021.2.3,Win32,59.60896519,61b8f3437b89212fae0dfadf
2,7.4697,space,5.7395,0,103,103,240,1,,,6101930ddd5330f83b898c61,61ba1b96655939d59a3aee8a,2021-12-15_10h45.41.987,PRaM,2021.2.3,Win32,59.60896519,61b8f3437b89212fae0dfadf
3,2.51,space,1.202,0,104,104,171,1,,,6101930ddd5330f83b898c61,61ba1b96655939d59a3aee8a,2021-12-15_10h45.41.987,PRaM,2021.2.3,Win32,59.60896519,61b8f3437b89212fae0dfadf
6,6.9046,space,5.2561,0,105,105,335,1,,,6101930ddd5330f83b898c61,61ba1b96655939d59a3aee8a,2021-12-15_10h45.41.987,PRaM,2021.2.3,Win32,59.60896519,61b8f3437b89212fae0dfadf
1,3.2165,space,1.6228,0,106,106,57,1,,,6101930ddd5330f83b898c61,61ba1b96655939d59a3aee8a,2021-12-15_10h45.41.987,PRaM,2021.2.3,Win32,59.60896519,61b8f3437b89212fae0dfadf
2,1.931,space,0.3507,0,107,107,346,1,,,6101930ddd5330f83b898c61,61ba1b96655939d59a3aee8a,2021-12-15_10h45.41.987,PRaM,2021.2.3,Win32,59.60896519,61b8f3437b89212fae0dfadf
1,3.7445,space,2.0697,0,108,108,13,1,,,6101930ddd5330f83b898c61,61ba1b96655939d59a3aee8a,2021-12-15_10h45.41.987,PRaM,2021.2.3,Win32,59.60896519,61b8f3437b89212fae0dfadf
2,2.6729,space,1.0731,0,109,109,205,1,,,6101930ddd5330f83b898c61,61ba1b96655939d59a3aee8a,2021-12-15_10h45.41.987,PRaM,2021.2.3,Win32,59.60896519,61b8f3437b89212fae0dfadf
3,2.3317,space,0.7012,0,110,110,105,1,,,6101930ddd5330f83b898c61,61ba1b96655939d59a3aee8a,2021-12-15_10h45.41.987,PRaM,2021.2.3,Win32,59.60896519,61b8f3437b89212fae0dfadf
2,4.4582,space,2.8424,0,111,111,81,1,,,6101930ddd5330f83b898c61,61ba1b96655939d59a3aee8a,2021-12-15_10h45.41.987,PRaM,2021.2.3,Win32,59.60896519,61b8f3437b89212fae0dfadf
3,1.981,space,0.6178,0,112,112,356,1,,,6101930ddd5330f83b898c61,61ba1b96655939d59a3aee8a,2021-12-15_10h45.41.987,PRaM,2021.2.3,Win32,59.60896519,61b8f3437b89212fae0dfadf
3,1.5609,space,1.4557,0,113,113,242,1,,,6101930ddd5330f83b898c61,61ba1b96655939d59a3aee8a,2021-12-15_10h45.41.987,PRaM,2021.2.3,Win32,59.60896519,61b8f3437b89212fae0dfadf
4,3.0267,space,1.4548,0,114,114,16,1,,,6101930ddd5330f83b898c61,61ba1b96655939d59a3aee8a,2021-12-15_10h45.41.987,PRaM,2021.2.3,Win32,59.60896519,61b8f3437b89212fae0dfadf
3,2.1595,space,0.4908,0,115,115,321,1,,,6101930ddd5330f83b898c61,61ba1b96655939d59a3aee8a,2021-12-15_10h45.41.987,PRaM,2021.2.3,Win32,59.60896519,61b8f3437b89212fae0dfadf
3,2.5659,space,0.9137,0,116,116,358,1,,,6101930ddd5330f83b898c61,61ba1b96655939d59a3aee8a,2021-12-15_10h45.41.987,PRaM,2021.2.3,Win32,59.60896519,61b8f3437b89212fae0dfadf
4,2.1261,space,0.5341,0,117,117,76,1,,,6101930ddd5330f83b898c61,61ba1b96655939d59a3aee8a,2021-12-15_10h45.41.987,PRaM,2021.2.3,Win32,59.60896519,61b8f3437b89212fae0dfadf
2,2.2095,space,0.6203,0,118,118,204,1,,,6101930ddd5330f83b898c61,61ba1b96655939d59a3aee8a,2021-12-15_10h45.41.987,PRaM,2021.2.3,Win32,59.60896519,61b8f3437b89212fae0dfadf
5,3.551,space,1.8858,0,119,119,80,1,,,6101930ddd5330f83b898c61,61ba1b96655939d59a3aee8a,2021-12-15_10h45.41.987,PRaM,2021.2.3,Win32,59.60896519,61b8f3437b89212fae0dfadf
5,1.7761,space,0.2677,0,120,120,173,1,,,6101930ddd5330f83b898c61,61ba1b96655939d59a3aee8a,2021-12-15_10h45.41.987,PRaM,2021.2.3,Win32,59.60896519,61b8f3437b89212fae0dfadf
1,2.5961,space,0.9848,0,121,121,247,1,,,6101930ddd5330f83b898c61,61ba1b96655939d59a3aee8a,2021-12-15_10h45.41.987,PRaM,2021.2.3,Win32,59.60896519,61b8f3437b89212fae0dfadf
2,2.6076,space,0.9638,0,122,122,213,1,,,6101930ddd5330f83b898c61,61ba1b96655939d59a3aee8a,2021-12-15_10h45.41.987,PRaM,2021.2.3,Win32,59.60896519,61b8f3437b89212fae0dfadf
1,3.0628,space,1.4168,0,123,123,295,1,,,6101930ddd5330f83b898c61,61ba1b96655939d59a3aee8a,2021-12-15_10h45.41.987,PRaM,2021.2.3,Win32,59.60896519,61b8f3437b89212fae0dfadf
4,2.8977,space,1.36,0,124,124,84,1,,,6101930ddd5330f83b898c61,61ba1b96655939d59a3aee8a,2021-12-15_10h45.41.987,PRaM,2021.2.3,Win32,59.60896519,61b8f3437b89212fae0dfadf
4,3.1612,space,1.5418,0,125,125,337,1,,,6101930ddd5330f83b898c61,61ba1b96655939d59a3aee8a,2021-12-15_10h45.41.987,PRaM,2021.2.3,Win32,59.60896519,61b8f3437b89212fae0dfadf
3,4.2346,space,3.1235,0,126,126,151,1,,,6101930ddd5330f83b898c61,61ba1b96655939d59a3aee8a,2021-12-15_10h45.41.987,PRaM,2021.2.3,Win32,59.60896519,61b8f3437b89212fae0dfadf
4,5.5705,space,3.888,0,127,127,352,1,,,6101930ddd5330f83b898c61,61ba1b96655939d59a3aee8a,2021-12-15_10h45.41.987,PRaM,2021.2.3,Win32,59.60896519,61b8f3437b89212fae0dfadf
3,1.9835,space,0.3186,0,128,128,26,1,,,6101930ddd5330f83b898c61,61ba1b96655939d59a3aee8a,2021-12-15_10h45.41.987,PRaM,2021.2.3,Win32,59.60896519,61b8f3437b89212fae0dfadf
8,2.3842,space,0.9354,0,129,129,17,1,,,6101930ddd5330f83b898c61,61ba1b96655939d59a3aee8a,2021-12-15_10h45.41.987,PRaM,2021.2.3,Win32,59.60896519,61b8f3437b89212fae0dfadf
3,2.8528,space,1.1729,0,130,130,361,1,,,6101930ddd5330f83b898c61,61ba1b96655939d59a3aee8a,2021-12-15_10h45.41.987,PRaM,2021.2.3,Win32,59.60896519,61b8f3437b89212fae0dfadf
2,5.274,space,3.7377,0,131,131,147,1,,,6101930ddd5330f83b898c61,61ba1b96655939d59a3aee8a,2021-12-15_10h45.41.987,PRaM,2021.2.3,Win32,59.60896519,61b8f3437b89212fae0dfadf
3,2.6112,space,0.9308,0,132,132,33,1,,,6101930ddd5330f83b898c61,61ba1b96655939d59a3aee8a,2021-12-15_10h45.41.987,PRaM,2021.2.3,Win32,59.60896519,61b8f3437b89212fae0dfadf
1,1.8429,space,0.2532,0,133,133,338,1,,,6101930ddd5330f83b898c61,61ba1b96655939d59a3aee8a,2021-12-15_10h45.41.987,PRaM,2021.2.3,Win32,59.60896519,61b8f3437b89212fae0dfadf
1,2.8831,space,1.3133,0,134,134,355,1,,,6101930ddd5330f83b898c61,61ba1b96655939d59a3aee8a,2021-12-15_10h45.41.987,PRaM,2021.2.3,Win32,59.60896519,61b8f3437b89212fae0dfadf
4,2.1095,space,0.8513,0,135,135,83,1,,,6101930ddd5330f83b898c61,61ba1b96655939d59a3aee8a,2021-12-15_10h45.41.987,PRaM,2021.2.3,Win32,59.60896519,61b8f3437b89212fae0dfadf
2,2.2153,space,0.7223,0,136,136,351,1,,,6101930ddd5330f83b898c61,61ba1b96655939d59a3aee8a,2021-12-15_10h45.41.987,PRaM,2021.2.3,Win32,59.60896519,61b8f3437b89212fae0dfadf
1,7.0982,space,5.3943,0,137,137,253,1,,,6101930ddd5330f83b898c61,61ba1b96655939d59a3aee8a,2021-12-15_10h45.41.987,PRaM,2021.2.3,Win32,59.60896519,61b8f3437b89212fae0dfadf
1,1.6927,space,0.0677,0,138,138,315,1,,,6101930ddd5330f83b898c61,61ba1b96655939d59a3aee8a,2021-12-15_10h45.41.987,PRaM,2021.2.3,Win32,59.60896519,61b8f3437b89212fae0dfadf
3,1.9824,space,0.3677,0,139,139,310,1,,,6101930ddd5330f83b898c61,61ba1b96655939d59a3aee8a,2021-12-15_10h45.41.987,PRaM,2021.2.3,Win32,59.60896519,61b8f3437b89212fae0dfadf
2,2.0127,space,0.384,0,140,140,224,1,,,6101930ddd5330f83b898c61,61ba1b96655939d59a3aee8a,2021-12-15_10h45.41.987,PRaM,2021.2.3,Win32,59.60896519,61b8f3437b89212fae0dfadf
3,2.3943,space,0.6889,0,141,141,30,1,,,6101930ddd5330f83b898c61,61ba1b96655939d59a3aee8a,2021-12-15_10h45.41.987,PRaM,2021.2.3,Win32,59.60896519,61b8f3437b89212fae0dfadf
4,1.9467,space,0.3341,0,142,142,255,1,,,6101930ddd5330f83b898c61,61ba1b96655939d59a3aee8a,2021-12-15_10h45.41.987,PRaM,2021.2.3,Win32,59.60896519,61b8f3437b89212fae0dfadf
2,1.8761,space,0.1376,0,143,143,169,1,,,6101930ddd5330f83b898c61,61ba1b96655939d59a3aee8a,2021-12-15_10h45.41.987,PRaM,2021.2.3,Win32,59.60896519,61b8f3437b89212fae0dfadf
1,1.7625,space,0.1215,0,144,144,215,1,,,6101930ddd5330f83b898c61,61ba1b96655939d59a3aee8a,2021-12-15_10h45.41.987,PRaM,2021.2.3,Win32,59.60896519,61b8f3437b89212fae0dfadf
1,1.5153,space,1.3519,0,145,145,339,1,,,6101930ddd5330f83b898c61,61ba1b96655939d59a3aee8a,2021-12-15_10h45.41.987,PRaM,2021.2.3,Win32,59.60896519,61b8f3437b89212fae0dfadf
1,3.7904,space,2.1357,0,146,146,133,1,,,6101930ddd5330f83b898c61,61ba1b96655939d59a3aee8a,2021-12-15_10h45.41.987,PRaM,2021.2.3,Win32,59.60896519,61b8f3437b89212fae0dfadf
5,2.351,space,0.7179,0,147,147,305,1,,,6101930ddd5330f83b898c61,61ba1b96655939d59a3aee8a,2021-12-15_10h45.41.987,PRaM,2021.2.3,Win32,59.60896519,61b8f3437b89212fae0dfadf
6,2.0928,space,0.3894,0,148,148,140,1,,,6101930ddd5330f83b898c61,61ba1b96655939d59a3aee8a,2021-12-15_10h45.41.987,PRaM,2021.2.3,Win32,59.60896519,61b8f3437b89212fae0dfadf
7,1.7801,space,1.0024,0,149,149,326,1,,,6101930ddd5330f83b898c61,61ba1b96655939d59a3aee8a,2021-12-15_10h45.41.987,PRaM,2021.2.3,Win32,59.60896519,61b8f3437b89212fae0dfadf
6,2.3341,space,0.6496,0,150,150,264,1,,,6101930ddd5330f83b898c61,61ba1b96655939d59a3aee8a,2021-12-15_10h45.41.987,PRaM,2021.2.3,Win32,59.60896519,61b8f3437b89212fae0dfadf
1,5.8533,space,4.2875,0,151,151,155,1,,,6101930ddd5330f83b898c61,61ba1b96655939d59a3aee8a,2021-12-15_10h45.41.987,PRaM,2021.2.3,Win32,59.60896519,61b8f3437b89212fae0dfadf
4,2.6436,space,1.0227,0,152,152,333,1,,,6101930ddd5330f83b898c61,61ba1b96655939d59a3aee8a,2021-12-15_10h45.41.987,PRaM,2021.2.3,Win32,59.60896519,61b8f3437b89212fae0dfadf
6,2.4166,space,0.7701,0,153,153,197,1,,,6101930ddd5330f83b898c61,61ba1b96655939d59a3aee8a,2021-12-15_10h45.41.987,PRaM,2021.2.3,Win32,59.60896519,61b8f3437b89212fae0dfadf
2,2.1853,space,0.6842,0,154,154,193,1,,,6101930ddd5330f83b898c61,61ba1b96655939d59a3aee8a,2021-12-15_10h45.41.987,PRaM,2021.2.3,Win32,59.60896519,61b8f3437b89212fae0dfadf
6,2.4433,space,0.7687,0,155,155,301,1,,,6101930ddd5330f83b898c61,61ba1b96655939d59a3aee8a,2021-12-15_10h45.41.987,PRaM,2021.2.3,Win32,59.60896519,61b8f3437b89212fae0dfadf
8,3.0953,space,1.452,0,156,156,3,1,,,6101930ddd5330f83b898c61,61ba1b96655939d59a3aee8a,2021-12-15_10h45.41.987,PRaM,2021.2.3,Win32,59.60896519,61b8f3437b89212fae0dfadf
4,4.3337,space,2.6714,0,157,157,56,1,,,6101930ddd5330f83b898c61,61ba1b96655939d59a3aee8a,2021-12-15_10h45.41.987,PRaM,2021.2.3,Win32,59.60896519,61b8f3437b89212fae0dfadf
2,3.177,space,1.5355,0,158,158,103,1,,,6101930ddd5330f83b898c61,61ba1b96655939d59a3aee8a,2021-12-15_10h45.41.987,PRaM,2021.2.3,Win32,59.60896519,61b8f3437b89212fae0dfadf
3,1.743,space,0.1457,0,159,159,152,1,,,6101930ddd5330f83b898c61,61ba1b96655939d59a3aee8a,2021-12-15_10h45.41.987,PRaM,2021.2.3,Win32,59.60896519,61b8f3437b89212fae0dfadf
1,3.2272,space,1.6528,0,160,160,234,1,,,6101930ddd5330f83b898c61,61ba1b96655939d59a3aee8a,2021-12-15_10h45.41.987,PRaM,2021.2.3,Win32,59.60896519,61b8f3437b89212fae0dfadf
2,2.1097,space,0.4511,0,161,161,221,1,,,6101930ddd5330f83b898c61,61ba1b96655939d59a3aee8a,2021-12-15_10h45.41.987,PRaM,2021.2.3,Win32,59.60896519,61b8f3437b89212fae0dfadf
2,9.7731,space,8.1603,0,162,162,303,1,,,6101930ddd5330f83b898c61,61ba1b96655939d59a3aee8a,2021-12-15_10h45.41.987,PRaM,2021.2.3,Win32,59.60896519,61b8f3437b89212fae0dfadf
2,1.8654,space,0.2007,0,163,163,52,1,,,6101930ddd5330f83b898c61,61ba1b96655939d59a3aee8a,2021-12-15_10h45.41.987,PRaM,2021.2.3,Win32,59.60896519,61b8f3437b89212fae0dfadf
2,3.3953,space,1.7529,0,164,164,262,1,,,6101930ddd5330f83b898c61,61ba1b96655939d59a3aee8a,2021-12-15_10h45.41.987,PRaM,2021.2.3,Win32,59.60896519,61b8f3437b89212fae0dfadf
3,2.8438,space,1.274,0,165,165,226,1,,,6101930ddd5330f83b898c61,61ba1b96655939d59a3aee8a,2021-12-15_10h45.41.987,PRaM,2021.2.3,Win32,59.60896519,61b8f3437b89212fae0dfadf
4,3.5072,space,1.914,0,166,166,45,1,,,6101930ddd5330f83b898c61,61ba1b96655939d59a3aee8a,2021-12-15_10h45.41.987,PRaM,2021.2.3,Win32,59.60896519,61b8f3437b89212fae0dfadf
1,4.1679,space,3.1868,0,167,167,232,1,,,6101930ddd5330f83b898c61,61ba1b96655939d59a3aee8a,2021-12-15_10h45.41.987,PRaM,2021.2.3,Win32,59.60896519,61b8f3437b89212fae0dfadf
7,2.31,space,1.0046,0,168,168,277,1,,,6101930ddd5330f83b898c61,61ba1b96655939d59a3aee8a,2021-12-15_10h45.41.987,PRaM,2021.2.3,Win32,59.60896519,61b8f3437b89212fae0dfadf
1,2.8103,space,1.2039,0,169,169,308,1,,,6101930ddd5330f83b898c61,61ba1b96655939d59a3aee8a,2021-12-15_10h45.41.987,PRaM,2021.2.3,Win32,59.60896519,61b8f3437b89212fae0dfadf
2,2.0626,space,0.4337,0,170,170,373,1,,,6101930ddd5330f83b898c61,61ba1b96655939d59a3aee8a,2021-12-15_10h45.41.987,PRaM,2021.2.3,Win32,59.60896519,61b8f3437b89212fae0dfadf
1,1.6763,space,0.0569,0,171,171,143,1,,,6101930ddd5330f83b898c61,61ba1b96655939d59a3aee8a,2021-12-15_10h45.41.987,PRaM,2021.2.3,Win32,59.60896519,61b8f3437b89212fae0dfadf
2,2.133,space,0.5029,0,172,172,37,1,,,6101930ddd5330f83b898c61,61ba1b96655939d59a3aee8a,2021-12-15_10h45.41.987,PRaM,2021.2.3,Win32,59.60896519,61b8f3437b89212fae0dfadf
1,2.1321,space,0.518,0,173,173,116,1,,,6101930ddd5330f83b898c61,61ba1b96655939d59a3aee8a,2021-12-15_10h45.41.987,PRaM,2021.2.3,Win32,59.60896519,61b8f3437b89212fae0dfadf
1,2.5102,space,0.9018,0,174,174,227,1,,,6101930ddd5330f83b898c61,61ba1b96655939d59a3aee8a,2021-12-15_10h45.41.987,PRaM,2021.2.3,Win32,59.60896519,61b8f3437b89212fae0dfadf
1,1.9663,space,0.3731,0,175,175,248,1,,,6101930ddd5330f83b898c61,61ba1b96655939d59a3aee8a,2021-12-15_10h45.41.987,PRaM,2021.2.3,Win32,59.60896519,61b8f3437b89212fae0dfadf
1,7.1224,space,5.5229,0,176,176,289,1,,,6101930ddd5330f83b898c61,61ba1b96655939d59a3aee8a,2021-12-15_10h45.41.987,PRaM,2021.2.3,Win32,59.60896519,61b8f3437b89212fae0dfadf
4,2.0262,space,0.434,0,177,177,139,1,,,6101930ddd5330f83b898c61,61ba1b96655939d59a3aee8a,2021-12-15_10h45.41.987,PRaM,2021.2.3,Win32,59.60896519,61b8f3437b89212fae0dfadf
3,2.0832,space,0.4841,0,178,178,254,1,,,6101930ddd5330f83b898c61,61ba1b96655939d59a3aee8a,2021-12-15_10h45.41.987,PRaM,2021.2.3,Win32,59.60896519,61b8f3437b89212fae0dfadf
1,2.4434,space,0.8852,0,179,179,106,1,,,6101930ddd5330f83b898c61,61ba1b96655939d59a3aee8a,2021-12-15_10h45.41.987,PRaM,2021.2.3,Win32,59.60896519,61b8f3437b89212fae0dfadf
3,2.4273,space,0.7797,0,180,180,347,1,,,6101930ddd5330f83b898c61,61ba1b96655939d59a3aee8a,2021-12-15_10h45.41.987,PRaM,2021.2.3,Win32,59.60896519,61b8f3437b89212fae0dfadf
3,2.1988,space,0.5511,0,181,181,236,1,,,6101930ddd5330f83b898c61,61ba1b96655939d59a3aee8a,2021-12-15_10h45.41.987,PRaM,2021.2.3,Win32,59.60896519,61b8f3437b89212fae0dfadf
1,2.4101,space,0.792,0,182,182,377,1,,,6101930ddd5330f83b898c61,61ba1b96655939d59a3aee8a,2021-12-15_10h45.41.987,PRaM,2021.2.3,Win32,59.60896519,61b8f3437b89212fae0dfadf
1,1.8618,space,0.2677,0,183,183,251,1,,,6101930ddd5330f83b898c61,61ba1b96655939d59a3aee8a,2021-12-15_10h45.41.987,PRaM,2021.2.3,Win32,59.60896519,61b8f3437b89212fae0dfadf
3,1.7433,space,0.0842,0,184,184,46,1,,,6101930ddd5330f83b898c61,61ba1b96655939d59a3aee8a,2021-12-15_10h45.41.987,PRaM,2021.2.3,Win32,59.60896519,61b8f3437b89212fae0dfadf
1,2.2651,space,0.3682,0,185,185,54,1,,,6101930ddd5330f83b898c61,61ba1b96655939d59a3aee8a,2021-12-15_10h45.41.987,PRaM,2021.2.3,Win32,59.60896519,61b8f3437b89212fae0dfadf
3,2.4312,space,0.7465,0,186,186,371,1,,,6101930ddd5330f83b898c61,61ba1b96655939d59a3aee8a,2021-12-15_10h45.41.987,PRaM,2021.2.3,Win32,59.60896519,61b8f3437b89212fae0dfadf
4,2.5984,space,0.9308,0,187,187,31,1,,,6101930ddd5330f83b898c61,61ba1b96655939d59a3aee8a,2021-12-15_10h45.41.987,PRaM,2021.2.3,Win32,59.60896519,61b8f3437b89212fae0dfadf
2,2.4655,space,0.8468,0,188,188,309,1,,,6101930ddd5330f83b898c61,61ba1b96655939d59a3aee8a,2021-12-15_10h45.41.987,PRaM,2021.2.3,Win32,59.60896519,61b8f3437b89212fae0dfadf
4,1.9268,space,0.2705,0,189,189,336,1,,,6101930ddd5330f83b898c61,61ba1b96655939d59a3aee8a,2021-12-15_10h45.41.987,PRaM,2021.2.3,Win32,59.60896519,61b8f3437b89212fae0dfadf
3,1.6424,space,0.8178,0,190,190,125,1,,,6101930ddd5330f83b898c61,61ba1b96655939d59a3aee8a,2021-12-15_10h45.41.987,PRaM,2021.2.3,Win32,59.60896519,61b8f3437b89212fae0dfadf
3,3.8337,space,2.1887,0,191,191,6,1,,,6101930ddd5330f83b898c61,61ba1b96655939d59a3aee8a,2021-12-15_10h45.41.987,PRaM,2021.2.3,Win32,59.60896519,61b8f3437b89212fae0dfadf
4,2.3456,space,0.7846,0,192,192,72,1,,,6101930ddd5330f83b898c61,61ba1b96655939d59a3aee8a,2021-12-15_10h45.41.987,PRaM,2021.2.3,Win32,59.60896519,61b8f3437b89212fae0dfadf
1,5.285,space,3.6882,0,193,193,203,1,,,6101930ddd5330f83b898c61,61ba1b96655939d59a3aee8a,2021-12-15_10h45.41.987,PRaM,2021.2.3,Win32,59.60896519,61b8f3437b89212fae0dfadf
7,3.3172,space,2.1879,0,194,194,207,1,,,6101930ddd5330f83b898c61,61ba1b96655939d59a3aee8a,2021-12-15_10h45.41.987,PRaM,2021.2.3,Win32,59.60896519,61b8f3437b89212fae0dfadf
3,2.3608,space,0.8077,0,195,195,344,1,,,6101930ddd5330f83b898c61,61ba1b96655939d59a3aee8a,2021-12-15_10h45.41.987,PRaM,2021.2.3,Win32,59.60896519,61b8f3437b89212fae0dfadf
8,2.3166,space,0.9238,0,196,196,137,1,,,6101930ddd5330f83b898c61,61ba1b96655939d59a3aee8a,2021-12-15_10h45.41.987,PRaM,2021.2.3,Win32,59.60896519,61b8f3437b89212fae0dfadf
2,7.5065,space,5.9753,0,197,197,100,1,,,6101930ddd5330f83b898c61,61ba1b96655939d59a3aee8a,2021-12-15_10h45.41.987,PRaM,2021.2.3,Win32,59.60896519,61b8f3437b89212fae0dfadf
3,4.7977,space,3.1541,0,198,198,364,1,,,6101930ddd5330f83b898c61,61ba1b96655939d59a3aee8a,2021-12-15_10h45.41.987,PRaM,2021.2.3,Win32,59.60896519,61b8f3437b89212fae0dfadf
2,1.7935,space,0.134,0,199,199,47,1,,,6101930ddd5330f83b898c61,61ba1b96655939d59a3aee8a,2021-12-15_10h45.41.987,PRaM,2021.2.3,Win32,59.60896519,61b8f3437b89212fae0dfadf
5,5.0011,space,3.3763,0,200,200,297,1,,,6101930ddd5330f83b898c61,61ba1b96655939d59a3aee8a,2021-12-15_10h45.41.987,PRaM,2021.2.3,Win32,59.60896519,61b8f3437b89212fae0dfadf
3,2.3005,space,0.663,0,201,201,64,1,,,6101930ddd5330f83b898c61,61ba1b96655939d59a3aee8a,2021-12-15_10h45.41.987,PRaM,2021.2.3,Win32,59.60896519,61b8f3437b89212fae0dfadf
3,2.5664,space,1.2516,0,202,202,36,1,,,6101930ddd5330f83b898c61,61ba1b96655939d59a3aee8a,2021-12-15_10h45.41.987,PRaM,2021.2.3,Win32,59.60896519,61b8f3437b89212fae0dfadf
2,2.2006,space,0.5517,0,203,203,181,1,,,6101930ddd5330f83b898c61,61ba1b96655939d59a3aee8a,2021-12-15_10h45.41.987,PRaM,2021.2.3,Win32,59.60896519,61b8f3437b89212fae0dfadf
1,1.831,space,0.3022,0,204,204,188,1,,,6101930ddd5330f83b898c61,61ba1b96655939d59a3aee8a,2021-12-15_10h45.41.987,PRaM,2021.2.3,Win32,59.60896519,61b8f3437b89212fae0dfadf
1,1.7091,space,0.3342,0,205,205,164,1,,,6101930ddd5330f83b898c61,61ba1b96655939d59a3aee8a,2021-12-15_10h45.41.987,PRaM,2021.2.3,Win32,59.60896519,61b8f3437b89212fae0dfadf
1,2.5281,space,0.9462,0,206,206,287,1,,,6101930ddd5330f83b898c61,61ba1b96655939d59a3aee8a,2021-12-15_10h45.41.987,PRaM,2021.2.3,Win32,59.60896519,61b8f3437b89212fae0dfadf
2,1.7662,space,0.2508,0,207,207,119,1,,,6101930ddd5330f83b898c61,61ba1b96655939d59a3aee8a,2021-12-15_10h45.41.987,PRaM,2021.2.3,Win32,59.60896519,61b8f3437b89212fae0dfadf
4,1.8338,space,0.3508,0,208,208,200,1,,,6101930ddd5330f83b898c61,61ba1b96655939d59a3aee8a,2021-12-15_10h45.41.987,PRaM,2021.2.3,Win32,59.60896519,61b8f3437b89212fae0dfadf
3,2.5191,space,0.9027,0,209,209,286,1,,,6101930ddd5330f83b898c61,61ba1b96655939d59a3aee8a,2021-12-15_10h45.41.987,PRaM,2021.2.3,Win32,59.60896519,61b8f3437b89212fae0dfadf
1,3.9115,space,2.4236,0,210,210,292,1,,,6101930ddd5330f83b898c61,61ba1b96655939d59a3aee8a,2021-12-15_10h45.41.987,PRaM,2021.2.3,Win32,59.60896519,61b8f3437b89212fae0dfadf
1,2.6341,space,1.0522,0,211,211,345,1,,,6101930ddd5330f83b898c61,61ba1b96655939d59a3aee8a,2021-12-15_10h45.41.987,PRaM,2021.2.3,Win32,59.60896519,61b8f3437b89212fae0dfadf
3,2.2858,space,0.6512,0,212,212,249,1,,,6101930ddd5330f83b898c61,61ba1b96655939d59a3aee8a,2021-12-15_10h45.41.987,PRaM,2021.2.3,Win32,59.60896519,61b8f3437b89212fae0dfadf
8,2.5109,space,0.9182,0,213,213,20,1,,,6101930ddd5330f83b898c61,61ba1b96655939d59a3aee8a,2021-12-15_10h45.41.987,PRaM,2021.2.3,Win32,59.60896519,61b8f3437b89212fae0dfadf
2,3.0327,space,1.4484,0,214,214,160,1,,,6101930ddd5330f83b898c61,61ba1b96655939d59a3aee8a,2021-12-15_10h45.41.987,PRaM,2021.2.3,Win32,59.60896519,61b8f3437b89212fae0dfadf
1,1.7425,space,0.1679,0,215,215,313,1,,,6101930ddd5330f83b898c61,61ba1b96655939d59a3aee8a,2021-12-15_10h45.41.987,PRaM,2021.2.3,Win32,59.60896519,61b8f3437b89212fae0dfadf
2,1.8262,space,0.2842,0,216,216,243,1,,,6101930ddd5330f83b898c61,61ba1b96655939d59a3aee8a,2021-12-15_10h45.41.987,PRaM,2021.2.3,Win32,59.60896519,61b8f3437b89212fae0dfadf
4,3.0079,space,1.5309,0,217,217,93,1,,,6101930ddd5330f83b898c61,61ba1b96655939d59a3aee8a,2021-12-15_10h45.41.987,PRaM,2021.2.3,Win32,59.60896519,61b8f3437b89212fae0dfadf
1,3.0545,space,1.4517,0,218,218,316,1,,,6101930ddd5330f83b898c61,61ba1b96655939d59a3aee8a,2021-12-15_10h45.41.987,PRaM,2021.2.3,Win32,59.60896519,61b8f3437b89212fae0dfadf
3,3.2447,space,2.6203,0,219,219,48,1,,,6101930ddd5330f83b898c61,61ba1b96655939d59a3aee8a,2021-12-15_10h45.41.987,PRaM,2021.2.3,Win32,59.60896519,61b8f3437b89212fae0dfadf
1,2.5825,space,0.9544,0,220,220,128,1,,,6101930ddd5330f83b898c61,61ba1b96655939d59a3aee8a,2021-12-15_10h45.41.987,PRaM,2021.2.3,Win32,59.60896519,61b8f3437b89212fae0dfadf
4,4.457,space,3.0159,0,221,221,154,1,,,6101930ddd5330f83b898c61,61ba1b96655939d59a3aee8a,2021-12-15_10h45.41.987,PRaM,2021.2.3,Win32,59.60896519,61b8f3437b89212fae0dfadf
1,2.1155,space,0.7064,0,222,222,15,1,,,6101930ddd5330f83b898c61,61ba1b96655939d59a3aee8a,2021-12-15_10h45.41.987,PRaM,2021.2.3,Win32,59.60896519,61b8f3437b89212fae0dfadf
2,2.8103,space,1.1854,0,223,223,233,1,,,6101930ddd5330f83b898c61,61ba1b96655939d59a3aee8a,2021-12-15_10h45.41.987,PRaM,2021.2.3,Win32,59.60896519,61b8f3437b89212fae0dfadf
1,2.1282,space,0.5679,0,224,224,92,1,,,6101930ddd5330f83b898c61,61ba1b96655939d59a3aee8a,2021-12-15_10h45.41.987,PRaM,2021.2.3,Win32,59.60896519,61b8f3437b89212fae0dfadf
1,2.3892,space,0.7411,0,225,225,268,1,,,6101930ddd5330f83b898c61,61ba1b96655939d59a3aee8a,2021-12-15_10h45.41.987,PRaM,2021.2.3,Win32,59.60896519,61b8f3437b89212fae0dfadf
6,2.0613,space,0.6516,0,226,226,331,1,,,6101930ddd5330f83b898c61,61ba1b96655939d59a3aee8a,2021-12-15_10h45.41.987,PRaM,2021.2.3,Win32,59.60896519,61b8f3437b89212fae0dfadf
4,1.9262,space,0.334,0,227,227,141,1,,,6101930ddd5330f83b898c61,61ba1b96655939d59a3aee8a,2021-12-15_10h45.41.987,PRaM,2021.2.3,Win32,59.60896519,61b8f3437b89212fae0dfadf
3,2.4652,space,0.8805,0,228,228,145,1,,,6101930ddd5330f83b898c61,61ba1b96655939d59a3aee8a,2021-12-15_10h45.41.987,PRaM,2021.2.3,Win32,59.60896519,61b8f3437b89212fae0dfadf
3,2.1097,space,0.5679,0,229,229,146,1,,,6101930ddd5330f83b898c61,61ba1b96655939d59a3aee8a,2021-12-15_10h45.41.987,PRaM,2021.2.3,Win32,59.60896519,61b8f3437b89212fae0dfadf
5,2.1594,space,0.6511,0,230,230,304,1,,,6101930ddd5330f83b898c61,61ba1b96655939d59a3aee8a,2021-12-15_10h45.41.987,PRaM,2021.2.3,Win32,59.60896519,61b8f3437b89212fae0dfadf
2,2.1485,space,0.5925,0,231,231,353,1,,,6101930ddd5330f83b898c61,61ba1b96655939d59a3aee8a,2021-12-15_10h45.41.987,PRaM,2021.2.3,Win32,59.60896519,61b8f3437b89212fae0dfadf
1,2.0153,space,0.3843,0,232,232,300,1,,,6101930ddd5330f83b898c61,61ba1b96655939d59a3aee8a,2021-12-15_10h45.41.987,PRaM,2021.2.3,Win32,59.60896519,61b8f3437b89212fae0dfadf
7,3.5277,space,1.9233,0,233,233,325,1,,,6101930ddd5330f83b898c61,61ba1b96655939d59a3aee8a,2021-12-15_10h45.41.987,PRaM,2021.2.3,Win32,59.60896519,61b8f3437b89212fae0dfadf
5,2.7955,space,1.185,0,234,234,317,1,,,6101930ddd5330f83b898c61,61ba1b96655939d59a3aee8a,2021-12-15_10h45.41.987,PRaM,2021.2.3,Win32,59.60896519,61b8f3437b89212fae0dfadf
1,5.0069,space,3.4374,0,235,235,49,1,,,6101930ddd5330f83b898c61,61ba1b96655939d59a3aee8a,2021-12-15_10h45.41.987,PRaM,2021.2.3,Win32,59.60896519,61b8f3437b89212fae0dfadf
6,2.783,space,1.2556,0,236,236,366,1,,,6101930ddd5330f83b898c61,61ba1b96655939d59a3aee8a,2021-12-15_10h45.41.987,PRaM,2021.2.3,Win32,59.60896519,61b8f3437b89212fae0dfadf
1,2.8666,space,1.3182,0,237,237,220,1,,,6101930ddd5330f83b898c61,61ba1b96655939d59a3aee8a,2021-12-15_10h45.41.987,PRaM,2021.2.3,Win32,59.60896519,61b8f3437b89212fae0dfadf
2,1.8264,space,0.2727,0,238,238,376,1,,,6101930ddd5330f83b898c61,61ba1b96655939d59a3aee8a,2021-12-15_10h45.41.987,PRaM,2021.2.3,Win32,59.60896519,61b8f3437b89212fae0dfadf
4,2.1478,space,0.7188,0,239,239,348,1,,,6101930ddd5330f83b898c61,61ba1b96655939d59a3aee8a,2021-12-15_10h45.41.987,PRaM,2021.2.3,Win32,59.60896519,61b8f3437b89212fae0dfadf
1,2.0094,space,0.5172,0,240,240,58,1,,,6101930ddd5330f83b898c61,61ba1b96655939d59a3aee8a,2021-12-15_10h45.41.987,PRaM,2021.2.3,Win32,59.60896519,61b8f3437b89212fae0dfadf
2,2.2369,space,0.6674,0,241,241,187,1,,,6101930ddd5330f83b898c61,61ba1b96655939d59a3aee8a,2021-12-15_10h45.41.987,PRaM,2021.2.3,Win32,59.60896519,61b8f3437b89212fae0dfadf
4,2.7979,space,1.1725,0,242,242,196,1,,,6101930ddd5330f83b898c61,61ba1b96655939d59a3aee8a,2021-12-15_10h45.41.987,PRaM,2021.2.3,Win32,59.60896519,61b8f3437b89212fae0dfadf
7,4.1114,space,2.6219,0,243,243,53,1,,,6101930ddd5330f83b898c61,61ba1b96655939d59a3aee8a,2021-12-15_10h45.41.987,PRaM,2021.2.3,Win32,59.60896519,61b8f3437b89212fae0dfadf
1,2.1813,space,0.6012,0,244,244,329,1,,,6101930ddd5330f83b898c61,61ba1b96655939d59a3aee8a,2021-12-15_10h45.41.987,PRaM,2021.2.3,Win32,59.60896519,61b8f3437b89212fae0dfadf
1,1.6259,space,0.1047,0,245,245,176,1,,,6101930ddd5330f83b898c61,61ba1b96655939d59a3aee8a,2021-12-15_10h45.41.987,PRaM,2021.2.3,Win32,59.60896519,61b8f3437b89212fae0dfadf
1,1.6756,space,0.0335,0,246,246,27,1,,,6101930ddd5330f83b898c61,61ba1b96655939d59a3aee8a,2021-12-15_10h45.41.987,PRaM,2021.2.3,Win32,59.60896519,61b8f3437b89212fae0dfadf
1,1.3919,space,0.6541,0,247,247,82,1,,,6101930ddd5330f83b898c61,61ba1b96655939d59a3aee8a,2021-12-15_10h45.41.987,PRaM,2021.2.3,Win32,59.60896519,61b8f3437b89212fae0dfadf
7,2.4934,space,0.9853,0,248,248,118,1,,,6101930ddd5330f83b898c61,61ba1b96655939d59a3aee8a,2021-12-15_10h45.41.987,PRaM,2021.2.3,Win32,59.60896519,61b8f3437b89212fae0dfadf
4,3.1272,space,1.6022,0,249,249,166,1,,,6101930ddd5330f83b898c61,61ba1b96655939d59a3aee8a,2021-12-15_10h45.41.987,PRaM,2021.2.3,Win32,59.60896519,61b8f3437b89212fae0dfadf
1,1.9301,space,0.3674,0,250,250,354,1,,,6101930ddd5330f83b898c61,61ba1b96655939d59a3aee8a,2021-12-15_10h45.41.987,PRaM,2021.2.3,Win32,59.60896519,61b8f3437b89212fae0dfadf
2,2.7435,space,1.1593,0,251,251,211,1,,,6101930ddd5330f83b898c61,61ba1b96655939d59a3aee8a,2021-12-15_10h45.41.987,PRaM,2021.2.3,Win32,59.60896519,61b8f3437b89212fae0dfadf
1,1.711,space,0.0676,0,252,252,245,1,,,6101930ddd5330f83b898c61,61ba1b96655939d59a3aee8a,2021-12-15_10h45.41.987,PRaM,2021.2.3,Win32,59.60896519,61b8f3437b89212fae0dfadf
7,2.2269,space,0.608,0,253,253,14,1,,,6101930ddd5330f83b898c61,61ba1b96655939d59a3aee8a,2021-12-15_10h45.41.987,PRaM,2021.2.3,Win32,59.60896519,61b8f3437b89212fae0dfadf
1,3.044,space,1.4009,0,254,254,275,1,,,6101930ddd5330f83b898c61,61ba1b96655939d59a3aee8a,2021-12-15_10h45.41.987,PRaM,2021.2.3,Win32,59.60896519,61b8f3437b89212fae0dfadf
1,1.3138,space,0.2723,0,255,255,189,1,,,6101930ddd5330f83b898c61,61ba1b96655939d59a3aee8a,2021-12-15_10h45.41.987,PRaM,2021.2.3,Win32,59.60896519,61b8f3437b89212fae0dfadf
3,8.8222,space,24.1083,0,256,256,149,1,,,6101930ddd5330f83b898c61,61ba1b96655939d59a3aee8a,2021-12-15_10h45.41.987,PRaM,2021.2.3,Win32,59.60896519,61b8f3437b89212fae0dfadf
2,6.9182,space,5.6391,0,257,257,311,1,,,6101930ddd5330f83b898c61,61ba1b96655939d59a3aee8a,2021-12-15_10h45.41.987,PRaM,2021.2.3,Win32,59.60896519,61b8f3437b89212fae0dfadf
1,5.22,space,3.579,0,258,258,50,1,,,6101930ddd5330f83b898c61,61ba1b96655939d59a3aee8a,2021-12-15_10h45.41.987,PRaM,2021.2.3,Win32,59.60896519,61b8f3437b89212fae0dfadf
2,2.1772,space,0.6539,0,259,259,179,1,,,6101930ddd5330f83b898c61,61ba1b96655939d59a3aee8a,2021-12-15_10h45.41.987,PRaM,2021.2.3,Win32,59.60896519,61b8f3437b89212fae0dfadf
1,1.8654,space,0.5007,0,260,260,312,1,,,6101930ddd5330f83b898c61,61ba1b96655939d59a3aee8a,2021-12-15_10h45.41.987,PRaM,2021.2.3,Win32,59.60896519,61b8f3437b89212fae0dfadf
6,4.8085,space,3.7288,0,261,261,60,1,,,6101930ddd5330f83b898c61,61ba1b96655939d59a3aee8a,2021-12-15_10h45.41.987,PRaM,2021.2.3,Win32,59.60896519,61b8f3437b89212fae0dfadf
1,5.2301,space,3.4715,0,262,262,360,1,,,6101930ddd5330f83b898c61,61ba1b96655939d59a3aee8a,2021-12-15_10h45.41.987,PRaM,2021.2.3,Win32,59.60896519,61b8f3437b89212fae0dfadf
2,1.8097,space,0.3171,0,263,263,191,1,,,6101930ddd5330f83b898c61,61ba1b96655939d59a3aee8a,2021-12-15_10h45.41.987,PRaM,2021.2.3,Win32,59.60896519,61b8f3437b89212fae0dfadf
7,2.6829,space,1.1853,0,264,264,4,1,,,6101930ddd5330f83b898c61,61ba1b96655939d59a3aee8a,2021-12-15_10h45.41.987,PRaM,2021.2.3,Win32,59.60896519,61b8f3437b89212fae0dfadf
5,1.8756,space,0.3176,0,265,265,357,1,,,6101930ddd5330f83b898c61,61ba1b96655939d59a3aee8a,2021-12-15_10h45.41.987,PRaM,2021.2.3,Win32,59.60896519,61b8f3437b89212fae0dfadf
2,1.993,space,0.434,0,266,266,265,1,,,6101930ddd5330f83b898c61,61ba1b96655939d59a3aee8a,2021-12-15_10h45.41.987,PRaM,2021.2.3,Win32,59.60896519,61b8f3437b89212fae0dfadf
2,2.3987,space,1.0464,0,267,267,96,1,,,6101930ddd5330f83b898c61,61ba1b96655939d59a3aee8a,2021-12-15_10h45.41.987,PRaM,2021.2.3,Win32,59.60896519,61b8f3437b89212fae0dfadf
2,1.5685,space,0.0167,0,268,268,167,1,,,6101930ddd5330f83b898c61,61ba1b96655939d59a3aee8a,2021-12-15_10h45.41.987,PRaM,2021.2.3,Win32,59.60896519,61b8f3437b89212fae0dfadf
1,2.2443,space,0.6707,0,269,269,210,1,,,6101930ddd5330f83b898c61,61ba1b96655939d59a3aee8a,2021-12-15_10h45.41.987,PRaM,2021.2.3,Win32,59.60896519,61b8f3437b89212fae0dfadf
3,2.1102,space,0.5209,0,270,270,99,1,,,6101930ddd5330f83b898c61,61ba1b96655939d59a3aee8a,2021-12-15_10h45.41.987,PRaM,2021.2.3,Win32,59.60896519,61b8f3437b89212fae0dfadf
3,1.8626,space,0.334,0,271,271,201,1,,,6101930ddd5330f83b898c61,61ba1b96655939d59a3aee8a,2021-12-15_10h45.41.987,PRaM,2021.2.3,Win32,59.60896519,61b8f3437b89212fae0dfadf
2,2.1765,space,0.5885,0,272,272,90,1,,,6101930ddd5330f83b898c61,61ba1b96655939d59a3aee8a,2021-12-15_10h45.41.987,PRaM,2021.2.3,Win32,59.60896519,61b8f3437b89212fae0dfadf
1,2.8823,space,1.2857,0,273,273,8,1,,,6101930ddd5330f83b898c61,61ba1b96655939d59a3aee8a,2021-12-15_10h45.41.987,PRaM,2021.2.3,Win32,59.60896519,61b8f3437b89212fae0dfadf
5,2.3763,space,1.7539,0,274,274,222,1,,,6101930ddd5330f83b898c61,61ba1b96655939d59a3aee8a,2021-12-15_10h45.41.987,PRaM,2021.2.3,Win32,59.60896519,61b8f3437b89212fae0dfadf
2,4.518,space,3.4237,0,275,275,228,1,,,6101930ddd5330f83b898c61,61ba1b96655939d59a3aee8a,2021-12-15_10h45.41.987,PRaM,2021.2.3,Win32,59.60896519,61b8f3437b89212fae0dfadf
3,2.749,space,1.1353,0,276,276,282,1,,,6101930ddd5330f83b898c61,61ba1b96655939d59a3aee8a,2021-12-15_10h45.41.987,PRaM,2021.2.3,Win32,59.60896519,61b8f3437b89212fae0dfadf
3,1.561,space,0.4518,0,277,277,281,1,,,6101930ddd5330f83b898c61,61ba1b96655939d59a3aee8a,2021-12-15_10h45.41.987,PRaM,2021.2.3,Win32,59.60896519,61b8f3437b89212fae0dfadf
1,2.7473,space,1.2016,0,278,278,293,1,,,6101930ddd5330f83b898c61,61ba1b96655939d59a3aee8a,2021-12-15_10h45.41.987,PRaM,2021.2.3,Win32,59.60896519,61b8f3437b89212fae0dfadf
4,2.8269,space,1.222,0,279,279,104,1,,,6101930ddd5330f83b898c61,61ba1b96655939d59a3aee8a,2021-12-15_10h45.41.987,PRaM,2021.2.3,Win32,59.60896519,61b8f3437b89212fae0dfadf
1,2.2269,space,0.6515,0,280,280,113,1,,,6101930ddd5330f83b898c61,61ba1b96655939d59a3aee8a,2021-12-15_10h45.41.987,PRaM,2021.2.3,Win32,59.60896519,61b8f3437b89212fae0dfadf
2,1.9093,space,0.3073,0,281,281,109,1,,,6101930ddd5330f83b898c61,61ba1b96655939d59a3aee8a,2021-12-15_10h45.41.987,PRaM,2021.2.3,Win32,59.60896519,61b8f3437b89212fae0dfadf
1,3.0272,space,1.519,0,282,282,23,1,,,6101930ddd5330f83b898c61,61ba1b96655939d59a3aee8a,2021-12-15_10h45.41.987,PRaM,2021.2.3,Win32,59.60896519,61b8f3437b89212fae0dfadf
1,10.0077,space,8.4424,0,283,283,161,1,,,6101930ddd5330f83b898c61,61ba1b96655939d59a3aee8a,2021-12-15_10h45.41.987,PRaM,2021.2.3,Win32,59.60896519,61b8f3437b89212fae0dfadf
1,2.4323,space,0.8074,0,284,284,97,1,,,6101930ddd5330f83b898c61,61ba1b96655939d59a3aee8a,2021-12-15_10h45.41.987,PRaM,2021.2.3,Win32,59.60896519,61b8f3437b89212fae0dfadf
5,3.2442,space,1.6691,0,285,285,350,1,,,6101930ddd5330f83b898c61,61ba1b96655939d59a3aee8a,2021-12-15_10h45.41.987,PRaM,2021.2.3,Win32,59.60896519,61b8f3437b89212fae0dfadf
2,3.4165,space,1.869,0,286,286,39,1,,,6101930ddd5330f83b898c61,61ba1b96655939d59a3aee8a,2021-12-15_10h45.41.987,PRaM,2021.2.3,Win32,59.60896519,61b8f3437b89212fae0dfadf
1,3.5698,space,1.7533,0,287,287,170,1,,,6101930ddd5330f83b898c61,61ba1b96655939d59a3aee8a,2021-12-15_10h45.41.987,PRaM,2021.2.3,Win32,59.60896519,61b8f3437b89212fae0dfadf
2,4.675,space,3.1711,0,288,288,25,1,,,6101930ddd5330f83b898c61,61ba1b96655939d59a3aee8a,2021-12-15_10h45.41.987,PRaM,2021.2.3,Win32,59.60896519,61b8f3437b89212fae0dfadf
2,2.6539,space,1.4707,0,289,289,342,1,,,6101930ddd5330f83b898c61,61ba1b96655939d59a3aee8a,2021-12-15_10h45.41.987,PRaM,2021.2.3,Win32,59.60896519,61b8f3437b89212fae0dfadf
1,4.5367,space,2.8077,0,290,290,71,1,,,6101930ddd5330f83b898c61,61ba1b96655939d59a3aee8a,2021-12-15_10h45.41.987,PRaM,2021.2.3,Win32,59.60896519,61b8f3437b89212fae0dfadf
2,3.2512,space,1.6737,0,291,291,5,1,,,6101930ddd5330f83b898c61,61ba1b96655939d59a3aee8a,2021-12-15_10h45.41.987,PRaM,2021.2.3,Win32,59.60896519,61b8f3437b89212fae0dfadf
3,1.7636,space,0.2025,0,292,292,267,1,,,6101930ddd5330f83b898c61,61ba1b96655939d59a3aee8a,2021-12-15_10h45.41.987,PRaM,2021.2.3,Win32,59.60896519,61b8f3437b89212fae0dfadf
3,3.1272,space,1.5357,0,293,293,294,1,,,6101930ddd5330f83b898c61,61ba1b96655939d59a3aee8a,2021-12-15_10h45.41.987,PRaM,2021.2.3,Win32,59.60896519,61b8f3437b89212fae0dfadf
2,3.6961,space,2.089,0,294,294,343,1,,,6101930ddd5330f83b898c61,61ba1b96655939d59a3aee8a,2021-12-15_10h45.41.987,PRaM,2021.2.3,Win32,59.60896519,61b8f3437b89212fae0dfadf
5,3.3182,space,1.9086,0,295,295,117,1,,,6101930ddd5330f83b898c61,61ba1b96655939d59a3aee8a,2021-12-15_10h45.41.987,PRaM,2021.2.3,Win32,59.60896519,61b8f3437b89212fae0dfadf
3,3.0772,space,1.4923,0,296,296,238,1,,,6101930ddd5330f83b898c61,61ba1b96655939d59a3aee8a,2021-12-15_10h45.41.987,PRaM,2021.2.3,Win32,59.60896519,61b8f3437b89212fae0dfadf
1,2.1185,space,0.5084,0,297,297,237,1,,,6101930ddd5330f83b898c61,61ba1b96655939d59a3aee8a,2021-12-15_10h45.41.987,PRaM,2021.2.3,Win32,59.60896519,61b8f3437b89212fae0dfadf
6,3.2055,space,1.721,0,298,298,192,1,,,6101930ddd5330f83b898c61,61ba1b96655939d59a3aee8a,2021-12-15_10h45.41.987,PRaM,2021.2.3,Win32,59.60896519,61b8f3437b89212fae0dfadf
1,2.3937,space,0.8181,0,299,299,231,1,,,6101930ddd5330f83b898c61,61ba1b96655939d59a3aee8a,2021-12-15_10h45.41.987,PRaM,2021.2.3,Win32,59.60896519,61b8f3437b89212fae0dfadf
6,12.7097,space,11.2448,0,300,300,225,1,,,6101930ddd5330f83b898c61,61ba1b96655939d59a3aee8a,2021-12-15_10h45.41.987,PRaM,2021.2.3,Win32,59.60896519,61b8f3437b89212fae0dfadf
4,2.4181,space,0.8838,0,301,301,74,1,,,6101930ddd5330f83b898c61,61ba1b96655939d59a3aee8a,2021-12-15_10h45.41.987,PRaM,2021.2.3,Win32,59.60896519,61b8f3437b89212fae0dfadf
6,1.8836,space,0.2671,0,302,302,19,1,,,6101930ddd5330f83b898c61,61ba1b96655939d59a3aee8a,2021-12-15_10h45.41.987,PRaM,2021.2.3,Win32,59.60896519,61b8f3437b89212fae0dfadf
2,3.556,space,1.9404,0,303,303,299,1,,,6101930ddd5330f83b898c61,61ba1b96655939d59a3aee8a,2021-12-15_10h45.41.987,PRaM,2021.2.3,Win32,59.60896519,61b8f3437b89212fae0dfadf
6,2.9319,space,1.6351,0,304,304,288,1,,,6101930ddd5330f83b898c61,61ba1b96655939d59a3aee8a,2021-12-15_10h45.41.987,PRaM,2021.2.3,Win32,59.60896519,61b8f3437b89212fae0dfadf
2,2.0427,space,0.4528,0,305,305,369,1,,,6101930ddd5330f83b898c61,61ba1b96655939d59a3aee8a,2021-12-15_10h45.41.987,PRaM,2021.2.3,Win32,59.60896519,61b8f3437b89212fae0dfadf
4,1.6167,space,0.1508,0,306,306,127,1,,,6101930ddd5330f83b898c61,61ba1b96655939d59a3aee8a,2021-12-15_10h45.41.987,PRaM,2021.2.3,Win32,59.60896519,61b8f3437b89212fae0dfadf
3,1.7924,space,0.2549,0,307,307,87,1,,,6101930ddd5330f83b898c61,61ba1b96655939d59a3aee8a,2021-12-15_10h45.41.987,PRaM,2021.2.3,Win32,59.60896519,61b8f3437b89212fae0dfadf
2,1.8992,space,0.3016,0,308,308,73,1,,,6101930ddd5330f83b898c61,61ba1b96655939d59a3aee8a,2021-12-15_10h45.41.987,PRaM,2021.2.3,Win32,59.60896519,61b8f3437b89212fae0dfadf
3,2.1317,space,0.4671,0,309,309,363,1,,,6101930ddd5330f83b898c61,61ba1b96655939d59a3aee8a,2021-12-15_10h45.41.987,PRaM,2021.2.3,Win32,59.60896519,61b8f3437b89212fae0dfadf
3,3.2994,space,1.7813,0,310,310,85,1,,,6101930ddd5330f83b898c61,61ba1b96655939d59a3aee8a,2021-12-15_10h45.41.987,PRaM,2021.2.3,Win32,59.60896519,61b8f3437b89212fae0dfadf
1,2.3431,space,0.7854,0,311,311,18,1,,,6101930ddd5330f83b898c61,61ba1b96655939d59a3aee8a,2021-12-15_10h45.41.987,PRaM,2021.2.3,Win32,59.60896519,61b8f3437b89212fae0dfadf
1,3.9335,space,2.3848,0,312,312,157,1,,,6101930ddd5330f83b898c61,61ba1b96655939d59a3aee8a,2021-12-15_10h45.41.987,PRaM,2021.2.3,Win32,59.60896519,61b8f3437b89212fae0dfadf
2,2.4602,space,1.6858,0,313,313,239,1,,,6101930ddd5330f83b898c61,61ba1b96655939d59a3aee8a,2021-12-15_10h45.41.987,PRaM,2021.2.3,Win32,59.60896519,61b8f3437b89212fae0dfadf
3,3.2502,space,1.7646,0,314,314,269,1,,,6101930ddd5330f83b898c61,61ba1b96655939d59a3aee8a,2021-12-15_10h45.41.987,PRaM,2021.2.3,Win32,59.60896519,61b8f3437b89212fae0dfadf
2,1.8964,space,0.2556,0,315,315,88,1,,,6101930ddd5330f83b898c61,61ba1b96655939d59a3aee8a,2021-12-15_10h45.41.987,PRaM,2021.2.3,Win32,59.60896519,61b8f3437b89212fae0dfadf
1,3.5501,space,1.9981,0,316,316,63,1,,,6101930ddd5330f83b898c61,61ba1b96655939d59a3aee8a,2021-12-15_10h45.41.987,PRaM,2021.2.3,Win32,59.60896519,61b8f3437b89212fae0dfadf
2,3.1332,space,1.5257,0,317,317,327,1,,,6101930ddd5330f83b898c61,61ba1b96655939d59a3aee8a,2021-12-15_10h45.41.987,PRaM,2021.2.3,Win32,59.60896519,61b8f3437b89212fae0dfadf
5,2.8268,space,1.7685,0,318,318,66,1,,,6101930ddd5330f83b898c61,61ba1b96655939d59a3aee8a,2021-12-15_10h45.41.987,PRaM,2021.2.3,Win32,59.60896519,61b8f3437b89212fae0dfadf
2,2.2267,space,0.6855,0,319,319,124,1,,,6101930ddd5330f83b898c61,61ba1b96655939d59a3aee8a,2021-12-15_10h45.41.987,PRaM,2021.2.3,Win32,59.60896519,61b8f3437b89212fae0dfadf
3,2.212,space,0.6517,0,320,320,22,1,,,6101930ddd5330f83b898c61,61ba1b96655939d59a3aee8a,2021-12-15_10h45.41.987,PRaM,2021.2.3,Win32,59.60896519,61b8f3437b89212fae0dfadf
1,4.3171,space,2.8703,0,321,321,266,1,,,6101930ddd5330f83b898c61,61ba1b96655939d59a3aee8a,2021-12-15_10h45.41.987,PRaM,2021.2.3,Win32,59.60896519,61b8f3437b89212fae0dfadf
2,3.9246,space,2.3729,0,322,322,148,1,,,6101930ddd5330f83b898c61,61ba1b96655939d59a3aee8a,2021-12-15_10h45.41.987,PRaM,2021.2.3,Win32,59.60896519,61b8f3437b89212fae0dfadf
3,2.8605,space,1.225,0,323,323,110,1,,,6101930ddd5330f83b898c61,61ba1b96655939d59a3aee8a,2021-12-15_10h45.41.987,PRaM,2021.2.3,Win32,59.60896519,61b8f3437b89212fae0dfadf
1,2.694,space,1.169,0,324,324,95,1,,,6101930ddd5330f83b898c61,61ba1b96655939d59a3aee8a,2021-12-15_10h45.41.987,PRaM,2021.2.3,Win32,59.60896519,61b8f3437b89212fae0dfadf
3,3.3945,space,1.9373,0,325,325,256,1,,,6101930ddd5330f83b898c61,61ba1b96655939d59a3aee8a,2021-12-15_10h45.41.987,PRaM,2021.2.3,Win32,59.60896519,61b8f3437b89212fae0dfadf
2,2.4826,space,0.9712,0,326,326,156,1,,,6101930ddd5330f83b898c61,61ba1b96655939d59a3aee8a,2021-12-15_10h45.41.987,PRaM,2021.2.3,Win32,59.60896519,61b8f3437b89212fae0dfadf
1,1.7761,space,0.2532,0,327,327,55,1,,,6101930ddd5330f83b898c61,61ba1b96655939d59a3aee8a,2021-12-15_10h45.41.987,PRaM,2021.2.3,Win32,59.60896519,61b8f3437b89212fae0dfadf
2,2.2492,space,0.7684,0,328,328,98,1,,,6101930ddd5330f83b898c61,61ba1b96655939d59a3aee8a,2021-12-15_10h45.41.987,PRaM,2021.2.3,Win32,59.60896519,61b8f3437b89212fae0dfadf
2,1.8943,space,0.4515,0,329,329,77,1,,,6101930ddd5330f83b898c61,61ba1b96655939d59a3aee8a,2021-12-15_10h45.41.987,PRaM,2021.2.3,Win32,59.60896519,61b8f3437b89212fae0dfadf
2,3.7334,space,2.4871,0,330,330,69,1,,,6101930ddd5330f83b898c61,61ba1b96655939d59a3aee8a,2021-12-15_10h45.41.987,PRaM,2021.2.3,Win32,59.60896519,61b8f3437b89212fae0dfadf
2,2.7776,space,1.139,0,331,331,11,1,,,6101930ddd5330f83b898c61,61ba1b96655939d59a3aee8a,2021-12-15_10h45.41.987,PRaM,2021.2.3,Win32,59.60896519,61b8f3437b89212fae0dfadf
5,2.6304,space,0.9847,0,332,332,136,1,,,6101930ddd5330f83b898c61,61ba1b96655939d59a3aee8a,2021-12-15_10h45.41.987,PRaM,2021.2.3,Win32,59.60896519,61b8f3437b89212fae0dfadf
3,1.8114,space,0.1864,0,333,333,246,1,,,6101930ddd5330f83b898c61,61ba1b96655939d59a3aee8a,2021-12-15_10h45.41.987,PRaM,2021.2.3,Win32,59.60896519,61b8f3437b89212fae0dfadf
5,2.5608,space,0.9359,0,334,334,134,1,,,6101930ddd5330f83b898c61,61ba1b96655939d59a3aee8a,2021-12-15_10h45.41.987,PRaM,2021.2.3,Win32,59.60896519,61b8f3437b89212fae0dfadf
2,3.1279,space,1.6023,0,335,335,349,1,,,6101930ddd5330f83b898c61,61ba1b96655939d59a3aee8a,2021-12-15_10h45.41.987,PRaM,2021.2.3,Win32,59.60896519,61b8f3437b89212fae0dfadf
2,3.2998,space,1.6686,0,336,336,183,1,,,6101930ddd5330f83b898c61,61ba1b96655939d59a3aee8a,2021-12-15_10h45.41.987,PRaM,2021.2.3,Win32,59.60896519,61b8f3437b89212fae0dfadf
1,2.4335,space,1.1302,0,337,337,129,1,,,6101930ddd5330f83b898c61,61ba1b96655939d59a3aee8a,2021-12-15_10h45.41.987,PRaM,2021.2.3,Win32,59.60896519,61b8f3437b89212fae0dfadf
2,3.094,space,1.9979,0,338,338,258,1,,,6101930ddd5330f83b898c61,61ba1b96655939d59a3aee8a,2021-12-15_10h45.41.987,PRaM,2021.2.3,Win32,59.60896519,61b8f3437b89212fae0dfadf
6,2.2938,space,0.7205,0,339,339,319,1,,,6101930ddd5330f83b898c61,61ba1b96655939d59a3aee8a,2021-12-15_10h45.41.987,PRaM,2021.2.3,Win32,59.60896519,61b8f3437b89212fae0dfadf
1,2.0616,space,0.4676,0,340,340,70,1,,,6101930ddd5330f83b898c61,61ba1b96655939d59a3aee8a,2021-12-15_10h45.41.987,PRaM,2021.2.3,Win32,59.60896519,61b8f3437b89212fae0dfadf
2,2.312,space,0.9016,0,341,341,257,1,,,6101930ddd5330f83b898c61,61ba1b96655939d59a3aee8a,2021-12-15_10h45.41.987,PRaM,2021.2.3,Win32,59.60896519,61b8f3437b89212fae0dfadf
2,1.5759,space,0.071,0,342,342,21,1,,,6101930ddd5330f83b898c61,61ba1b96655939d59a3aee8a,2021-12-15_10h45.41.987,PRaM,2021.2.3,Win32,59.60896519,61b8f3437b89212fae0dfadf
1,3.5713,space,1.9144,0,343,343,44,1,,,6101930ddd5330f83b898c61,61ba1b96655939d59a3aee8a,2021-12-15_10h45.41.987,PRaM,2021.2.3,Win32,59.60896519,61b8f3437b89212fae0dfadf
2,4.8201,space,3.3593,0,344,344,202,1,,,6101930ddd5330f83b898c61,61ba1b96655939d59a3aee8a,2021-12-15_10h45.41.987,PRaM,2021.2.3,Win32,59.60896519,61b8f3437b89212fae0dfadf
6,3.5174,space,2.1295,0,345,345,114,1,,,6101930ddd5330f83b898c61,61ba1b96655939d59a3aee8a,2021-12-15_10h45.41.987,PRaM,2021.2.3,Win32,59.60896519,61b8f3437b89212fae0dfadf
4,6.6418,space,5.006,0,346,346,296,1,,,6101930ddd5330f83b898c61,61ba1b96655939d59a3aee8a,2021-12-15_10h45.41.987,PRaM,2021.2.3,Win32,59.60896519,61b8f3437b89212fae0dfadf
6,3.1665,space,3.3663,0,347,347,51,1,,,6101930ddd5330f83b898c61,61ba1b96655939d59a3aee8a,2021-12-15_10h45.41.987,PRaM,2021.2.3,Win32,59.60896519,61b8f3437b89212fae0dfadf
7,2.1508,space,2.7915,0,348,348,285,1,,,6101930ddd5330f83b898c61,61ba1b96655939d59a3aee8a,2021-12-15_10h45.41.987,PRaM,2021.2.3,Win32,59.60896519,61b8f3437b89212fae0dfadf
2,4.2004,space,3.2038,0,349,349,153,1,,,6101930ddd5330f83b898c61,61ba1b96655939d59a3aee8a,2021-12-15_10h45.41.987,PRaM,2021.2.3,Win32,59.60896519,61b8f3437b89212fae0dfadf
3,1.8765,space,0.5389,0,350,350,328,1,,,6101930ddd5330f83b898c61,61ba1b96655939d59a3aee8a,2021-12-15_10h45.41.987,PRaM,2021.2.3,Win32,59.60896519,61b8f3437b89212fae0dfadf
4,5.4629,space,3.9054,0,351,351,62,1,,,6101930ddd5330f83b898c61,61ba1b96655939d59a3aee8a,2021-12-15_10h45.41.987,PRaM,2021.2.3,Win32,59.60896519,61b8f3437b89212fae0dfadf
2,3.2229,space,1.7273,0,352,352,40,1,,,6101930ddd5330f83b898c61,61ba1b96655939d59a3aee8a,2021-12-15_10h45.41.987,PRaM,2021.2.3,Win32,59.60896519,61b8f3437b89212fae0dfadf
2,1.9598,space,0.3694,0,353,353,123,1,,,6101930ddd5330f83b898c61,61ba1b96655939d59a3aee8a,2021-12-15_10h45.41.987,PRaM,2021.2.3,Win32,59.60896519,61b8f3437b89212fae0dfadf
1,2.5491,space,1.4358,0,354,354,135,1,,,6101930ddd5330f83b898c61,61ba1b96655939d59a3aee8a,2021-12-15_10h45.41.987,PRaM,2021.2.3,Win32,59.60896519,61b8f3437b89212fae0dfadf
3,7.3994,space,5.8734,0,355,355,174,1,,,6101930ddd5330f83b898c61,61ba1b96655939d59a3aee8a,2021-12-15_10h45.41.987,PRaM,2021.2.3,Win32,59.60896519,61b8f3437b89212fae0dfadf
7,3.1439,space,1.7705,0,356,356,38,1,,,6101930ddd5330f83b898c61,61ba1b96655939d59a3aee8a,2021-12-15_10h45.41.987,PRaM,2021.2.3,Win32,59.60896519,61b8f3437b89212fae0dfadf
1,5.2391,space,3.7665,0,357,357,122,1,,,6101930ddd5330f83b898c61,61ba1b96655939d59a3aee8a,2021-12-15_10h45.41.987,PRaM,2021.2.3,Win32,59.60896519,61b8f3437b89212fae0dfadf
5,3.9116,space,2.3222,0,358,358,279,1,,,6101930ddd5330f83b898c61,61ba1b96655939d59a3aee8a,2021-12-15_10h45.41.987,PRaM,2021.2.3,Win32,59.60896519,61b8f3437b89212fae0dfadf
6,4.3042,space,2.7607,0,359,359,302,1,,,6101930ddd5330f83b898c61,61ba1b96655939d59a3aee8a,2021-12-15_10h45.41.987,PRaM,2021.2.3,Win32,59.60896519,61b8f3437b89212fae0dfadf
6,2.0944,space,0.4679,0,360,360,32,1,,,6101930ddd5330f83b898c61,61ba1b96655939d59a3aee8a,2021-12-15_10h45.41.987,PRaM,2021.2.3,Win32,59.60896519,61b8f3437b89212fae0dfadf
8,2.3157,space,0.7349,0,361,361,320,1,,,6101930ddd5330f83b898c61,61ba1b96655939d59a3aee8a,2021-12-15_10h45.41.987,PRaM,2021.2.3,Win32,59.60896519,61b8f3437b89212fae0dfadf
4,2.063,space,0.4218,0,362,362,43,1,,,6101930ddd5330f83b898c61,61ba1b96655939d59a3aee8a,2021-12-15_10h45.41.987,PRaM,2021.2.3,Win32,59.60896519,61b8f3437b89212fae0dfadf
5,2.1093,space,0.474,0,363,363,199,1,,,6101930ddd5330f83b898c61,61ba1b96655939d59a3aee8a,2021-12-15_10h45.41.987,PRaM,2021.2.3,Win32,59.60896519,61b8f3437b89212fae0dfadf
2,2.4435,space,0.8,0,364,364,35,1,,,6101930ddd5330f83b898c61,61ba1b96655939d59a3aee8a,2021-12-15_10h45.41.987,PRaM,2021.2.3,Win32,59.60896519,61b8f3437b89212fae0dfadf
2,2.1938,space,0.6492,0,365,365,271,1,,,6101930ddd5330f83b898c61,61ba1b96655939d59a3aee8a,2021-12-15_10h45.41.987,PRaM,2021.2.3,Win32,59.60896519,61b8f3437b89212fae0dfadf
1,2.461,space,0.8479,0,366,366,130,1,,,6101930ddd5330f83b898c61,61ba1b96655939d59a3aee8a,2021-12-15_10h45.41.987,PRaM,2021.2.3,Win32,59.60896519,61b8f3437b89212fae0dfadf
1,2.6997,space,1.1526,0,367,367,190,1,,,6101930ddd5330f83b898c61,61ba1b96655939d59a3aee8a,2021-12-15_10h45.41.987,PRaM,2021.2.3,Win32,59.60896519,61b8f3437b89212fae0dfadf
6,2.3929,space,1.235,0,368,368,102,1,,,6101930ddd5330f83b898c61,61ba1b96655939d59a3aee8a,2021-12-15_10h45.41.987,PRaM,2021.2.3,Win32,59.60896519,61b8f3437b89212fae0dfadf
2,2.1349,space,0.8217,0,369,369,290,1,,,6101930ddd5330f83b898c61,61ba1b96655939d59a3aee8a,2021-12-15_10h45.41.987,PRaM,2021.2.3,Win32,59.60896519,61b8f3437b89212fae0dfadf
3,1.6091,space,1.1372,0,370,370,230,1,,,6101930ddd5330f83b898c61,61ba1b96655939d59a3aee8a,2021-12-15_10h45.41.987,PRaM,2021.2.3,Win32,59.60896519,61b8f3437b89212fae0dfadf
7,2.3132,space,0.704,0,371,371,372,1,,,6101930ddd5330f83b898c61,61ba1b96655939d59a3aee8a,2021-12-15_10h45.41.987,PRaM,2021.2.3,Win32,59.60896519,61b8f3437b89212fae0dfadf
1,4.0335,space,2.8365,0,372,372,10,1,,,6101930ddd5330f83b898c61,61ba1b96655939d59a3aee8a,2021-12-15_10h45.41.987,PRaM,2021.2.3,Win32,59.60896519,61b8f3437b89212fae0dfadf
1,1.9765,space,0.6009,0,373,373,107,1,,,6101930ddd5330f83b898c61,61ba1b96655939d59a3aee8a,2021-12-15_10h45.41.987,PRaM,2021.2.3,Win32,59.60896519,61b8f3437b89212fae0dfadf
3,2.4354,space,1.3133,0,374,374,314,1,,,6101930ddd5330f83b898c61,61ba1b96655939d59a3aee8a,2021-12-15_10h45.41.987,PRaM,2021.2.3,Win32,59.60896519,61b8f3437b89212fae0dfadf
1,4.235,space,2.7539,0,375,375,368,1,,,6101930ddd5330f83b898c61,61ba1b96655939d59a3aee8a,2021-12-15_10h45.41.987,PRaM,2021.2.3,Win32,59.60896519,61b8f3437b89212fae0dfadf
1,1.893,space,0.306,0,376,376,94,1,,,6101930ddd5330f83b898c61,61ba1b96655939d59a3aee8a,2021-12-15_10h45.41.987,PRaM,2021.2.3,Win32,59.60896519,61b8f3437b89212fae0dfadf
6,2.7163,space,1.3867,0,377,377,244,1,,,6101930ddd5330f83b898c61,61ba1b96655939d59a3aee8a,2021-12-15_10h45.41.987,PRaM,2021.2.3,Win32,59.60896519,61b8f3437b89212fae0dfadf
