Rating.response,Rating.rt,EndTrial.keys,EndTrial.rt,trials.thisRepN,trials.thisTrialN,trials.thisN,trials.thisIndex,trials.ran,Pos1,Pos2,participant,session,date,expName,psychopyVersion,OS,frameRate,study_id
2,9.5816,space,8.3984,0,0,0,26,1,,,6108295fdd0270d7544b5a8a,6437761d3576902c440d3464,2023-04-12_21h28.17.436,PRaM,2021.2.3,Win32,60.01680471,61b8f3437b89212fae0dfadf
1,2.5539,space,0.9163,0,1,1,324,1,,,6108295fdd0270d7544b5a8a,6437761d3576902c440d3464,2023-04-12_21h28.17.436,PRaM,2021.2.3,Win32,60.01680471,61b8f3437b89212fae0dfadf
2,2.3309,space,0.5513,0,2,2,99,1,,,6108295fdd0270d7544b5a8a,6437761d3576902c440d3464,2023-04-12_21h28.17.436,PRaM,2021.2.3,Win32,60.01680471,61b8f3437b89212fae0dfadf
,,space,0.6006,0,3,3,130,1,,,6108295fdd0270d7544b5a8a,6437761d3576902c440d3464,2023-04-12_21h28.17.436,PRaM,2021.2.3,Win32,60.01680471,61b8f3437b89212fae0dfadf
3,5.306,space,3.682,0,4,4,7,1,,,6108295fdd0270d7544b5a8a,6437761d3576902c440d3464,2023-04-12_21h28.17.436,PRaM,2021.2.3,Win32,60.01680471,61b8f3437b89212fae0dfadf
2,2.6222,space,0.8665,0,5,5,156,1,,,6108295fdd0270d7544b5a8a,6437761d3576902c440d3464,2023-04-12_21h28.17.436,PRaM,2021.2.3,Win32,60.01680471,61b8f3437b89212fae0dfadf
1,2.0396,space,0.302,0,6,6,129,1,,,6108295fdd0270d7544b5a8a,6437761d3576902c440d3464,2023-04-12_21h28.17.436,PRaM,2021.2.3,Win32,60.01680471,61b8f3437b89212fae0dfadf
2,2.465,space,0.8165,0,7,7,31,1,,,6108295fdd0270d7544b5a8a,6437761d3576902c440d3464,2023-04-12_21h28.17.436,PRaM,2021.2.3,Win32,60.01680471,61b8f3437b89212fae0dfadf
8,2.5615,space,0.7398,0,8,8,334,1,,,6108295fdd0270d7544b5a8a,6437761d3576902c440d3464,2023-04-12_21h28.17.436,PRaM,2021.2.3,Win32,60.01680471,61b8f3437b89212fae0dfadf
7,2.1091,space,0.2992,0,9,9,64,1,,,6108295fdd0270d7544b5a8a,6437761d3576902c440d3464,2023-04-12_21h28.17.436,PRaM,2021.2.3,Win32,60.01680471,61b8f3437b89212fae0dfadf
2,2.9244,space,1.2567,0,10,10,123,1,,,6108295fdd0270d7544b5a8a,6437761d3576902c440d3464,2023-04-12_21h28.17.436,PRaM,2021.2.3,Win32,60.01680471,61b8f3437b89212fae0dfadf
6,2.761,space,1.0681,0,11,11,298,1,,,6108295fdd0270d7544b5a8a,6437761d3576902c440d3464,2023-04-12_21h28.17.436,PRaM,2021.2.3,Win32,60.01680471,61b8f3437b89212fae0dfadf
3,2.4357,space,0.707,0,12,12,21,1,,,6108295fdd0270d7544b5a8a,6437761d3576902c440d3464,2023-04-12_21h28.17.436,PRaM,2021.2.3,Win32,60.01680471,61b8f3437b89212fae0dfadf
1,1.8461,space,0.1268,0,13,13,11,1,,,6108295fdd0270d7544b5a8a,6437761d3576902c440d3464,2023-04-12_21h28.17.436,PRaM,2021.2.3,Win32,60.01680471,61b8f3437b89212fae0dfadf
2,2.6842,space,0.901,0,14,14,263,1,,,6108295fdd0270d7544b5a8a,6437761d3576902c440d3464,2023-04-12_21h28.17.436,PRaM,2021.2.3,Win32,60.01680471,61b8f3437b89212fae0dfadf
3,2.3271,space,0.7638,0,15,15,224,1,,,6108295fdd0270d7544b5a8a,6437761d3576902c440d3464,2023-04-12_21h28.17.436,PRaM,2021.2.3,Win32,60.01680471,61b8f3437b89212fae0dfadf
1,1.9951,space,0.2104,0,16,16,300,1,,,6108295fdd0270d7544b5a8a,6437761d3576902c440d3464,2023-04-12_21h28.17.436,PRaM,2021.2.3,Win32,60.01680471,61b8f3437b89212fae0dfadf
3,3.1208,space,1.4174,0,17,17,348,1,,,6108295fdd0270d7544b5a8a,6437761d3576902c440d3464,2023-04-12_21h28.17.436,PRaM,2021.2.3,Win32,60.01680471,61b8f3437b89212fae0dfadf
5,3.4171,space,1.6531,0,18,18,166,1,,,6108295fdd0270d7544b5a8a,6437761d3576902c440d3464,2023-04-12_21h28.17.436,PRaM,2021.2.3,Win32,60.01680471,61b8f3437b89212fae0dfadf
8,2.6318,space,1.6892,0,19,19,42,1,,,6108295fdd0270d7544b5a8a,6437761d3576902c440d3464,2023-04-12_21h28.17.436,PRaM,2021.2.3,Win32,60.01680471,61b8f3437b89212fae0dfadf
8,1.7306,space,0.0012,0,20,20,323,1,,,6108295fdd0270d7544b5a8a,6437761d3576902c440d3464,2023-04-12_21h28.17.436,PRaM,2021.2.3,Win32,60.01680471,61b8f3437b89212fae0dfadf
1,2.4064,space,0.7188,0,21,21,243,1,,,6108295fdd0270d7544b5a8a,6437761d3576902c440d3464,2023-04-12_21h28.17.436,PRaM,2021.2.3,Win32,60.01680471,61b8f3437b89212fae0dfadf
3,2.9311,space,1.1833,0,22,22,241,1,,,6108295fdd0270d7544b5a8a,6437761d3576902c440d3464,2023-04-12_21h28.17.436,PRaM,2021.2.3,Win32,60.01680471,61b8f3437b89212fae0dfadf
1,2.0051,space,0.2714,0,23,23,36,1,,,6108295fdd0270d7544b5a8a,6437761d3576902c440d3464,2023-04-12_21h28.17.436,PRaM,2021.2.3,Win32,60.01680471,61b8f3437b89212fae0dfadf
7,2.7719,space,1.0554,0,24,24,100,1,,,6108295fdd0270d7544b5a8a,6437761d3576902c440d3464,2023-04-12_21h28.17.436,PRaM,2021.2.3,Win32,60.01680471,61b8f3437b89212fae0dfadf
1,2.1741,space,0.3541,0,25,25,212,1,,,6108295fdd0270d7544b5a8a,6437761d3576902c440d3464,2023-04-12_21h28.17.436,PRaM,2021.2.3,Win32,60.01680471,61b8f3437b89212fae0dfadf
1,1.8888,space,0.1146,0,26,26,343,1,,,6108295fdd0270d7544b5a8a,6437761d3576902c440d3464,2023-04-12_21h28.17.436,PRaM,2021.2.3,Win32,60.01680471,61b8f3437b89212fae0dfadf
6,2.2224,space,0.3999,0,27,27,346,1,,,6108295fdd0270d7544b5a8a,6437761d3576902c440d3464,2023-04-12_21h28.17.436,PRaM,2021.2.3,Win32,60.01680471,61b8f3437b89212fae0dfadf
1,2.3756,space,0.7201,0,28,28,155,1,,,6108295fdd0270d7544b5a8a,6437761d3576902c440d3464,2023-04-12_21h28.17.436,PRaM,2021.2.3,Win32,60.01680471,61b8f3437b89212fae0dfadf
1,1.4571,space,0.4872,0,29,29,2,1,,,6108295fdd0270d7544b5a8a,6437761d3576902c440d3464,2023-04-12_21h28.17.436,PRaM,2021.2.3,Win32,60.01680471,61b8f3437b89212fae0dfadf
1,1.4227,space,0.401,0,30,30,265,1,,,6108295fdd0270d7544b5a8a,6437761d3576902c440d3464,2023-04-12_21h28.17.436,PRaM,2021.2.3,Win32,60.01680471,61b8f3437b89212fae0dfadf
8,2.2924,space,0.5179,0,31,31,301,1,,,6108295fdd0270d7544b5a8a,6437761d3576902c440d3464,2023-04-12_21h28.17.436,PRaM,2021.2.3,Win32,60.01680471,61b8f3437b89212fae0dfadf
2,2.2733,space,0.5111,0,32,32,143,1,,,6108295fdd0270d7544b5a8a,6437761d3576902c440d3464,2023-04-12_21h28.17.436,PRaM,2021.2.3,Win32,60.01680471,61b8f3437b89212fae0dfadf
4,2.422,space,0.7536,0,33,33,152,1,,,6108295fdd0270d7544b5a8a,6437761d3576902c440d3464,2023-04-12_21h28.17.436,PRaM,2021.2.3,Win32,60.01680471,61b8f3437b89212fae0dfadf
5,3.1055,space,1.316,0,34,34,4,1,,,6108295fdd0270d7544b5a8a,6437761d3576902c440d3464,2023-04-12_21h28.17.436,PRaM,2021.2.3,Win32,60.01680471,61b8f3437b89212fae0dfadf
3,2.3903,space,0.7169,0,35,35,340,1,,,6108295fdd0270d7544b5a8a,6437761d3576902c440d3464,2023-04-12_21h28.17.436,PRaM,2021.2.3,Win32,60.01680471,61b8f3437b89212fae0dfadf
1,1.9779,space,0.2177,0,36,36,63,1,,,6108295fdd0270d7544b5a8a,6437761d3576902c440d3464,2023-04-12_21h28.17.436,PRaM,2021.2.3,Win32,60.01680471,61b8f3437b89212fae0dfadf
1,2.7572,space,1.0709,0,37,37,153,1,,,6108295fdd0270d7544b5a8a,6437761d3576902c440d3464,2023-04-12_21h28.17.436,PRaM,2021.2.3,Win32,60.01680471,61b8f3437b89212fae0dfadf
1,2.4804,space,0.7218,0,38,38,87,1,,,6108295fdd0270d7544b5a8a,6437761d3576902c440d3464,2023-04-12_21h28.17.436,PRaM,2021.2.3,Win32,60.01680471,61b8f3437b89212fae0dfadf
1,1.6769,space,0.6024,0,39,39,122,1,,,6108295fdd0270d7544b5a8a,6437761d3576902c440d3464,2023-04-12_21h28.17.436,PRaM,2021.2.3,Win32,60.01680471,61b8f3437b89212fae0dfadf
1,1.4408,space,0.2343,0,40,40,161,1,,,6108295fdd0270d7544b5a8a,6437761d3576902c440d3464,2023-04-12_21h28.17.436,PRaM,2021.2.3,Win32,60.01680471,61b8f3437b89212fae0dfadf
1,1.6835,space,0.238,0,41,41,200,1,,,6108295fdd0270d7544b5a8a,6437761d3576902c440d3464,2023-04-12_21h28.17.436,PRaM,2021.2.3,Win32,60.01680471,61b8f3437b89212fae0dfadf
3,2.1091,space,0.2848,0,42,42,376,1,,,6108295fdd0270d7544b5a8a,6437761d3576902c440d3464,2023-04-12_21h28.17.436,PRaM,2021.2.3,Win32,60.01680471,61b8f3437b89212fae0dfadf
2,2.6252,space,0.8007,0,43,43,377,1,,,6108295fdd0270d7544b5a8a,6437761d3576902c440d3464,2023-04-12_21h28.17.436,PRaM,2021.2.3,Win32,60.01680471,61b8f3437b89212fae0dfadf
6,3.5905,space,1.7671,0,44,44,66,1,,,6108295fdd0270d7544b5a8a,6437761d3576902c440d3464,2023-04-12_21h28.17.436,PRaM,2021.2.3,Win32,60.01680471,61b8f3437b89212fae0dfadf
6,1.9886,space,0.1366,0,45,45,45,1,,,6108295fdd0270d7544b5a8a,6437761d3576902c440d3464,2023-04-12_21h28.17.436,PRaM,2021.2.3,Win32,60.01680471,61b8f3437b89212fae0dfadf
1,2.5053,space,0.7678,0,46,46,210,1,,,6108295fdd0270d7544b5a8a,6437761d3576902c440d3464,2023-04-12_21h28.17.436,PRaM,2021.2.3,Win32,60.01680471,61b8f3437b89212fae0dfadf
7,2.107,space,0.3552,0,47,47,38,1,,,6108295fdd0270d7544b5a8a,6437761d3576902c440d3464,2023-04-12_21h28.17.436,PRaM,2021.2.3,Win32,60.01680471,61b8f3437b89212fae0dfadf
1,1.9278,space,0.5847,0,48,48,1,1,,,6108295fdd0270d7544b5a8a,6437761d3576902c440d3464,2023-04-12_21h28.17.436,PRaM,2021.2.3,Win32,60.01680471,61b8f3437b89212fae0dfadf
2,3.292,space,1.5914,0,49,49,365,1,,,6108295fdd0270d7544b5a8a,6437761d3576902c440d3464,2023-04-12_21h28.17.436,PRaM,2021.2.3,Win32,60.01680471,61b8f3437b89212fae0dfadf
5,2.6074,space,0.8693,0,50,50,307,1,,,6108295fdd0270d7544b5a8a,6437761d3576902c440d3464,2023-04-12_21h28.17.436,PRaM,2021.2.3,Win32,60.01680471,61b8f3437b89212fae0dfadf
3,2.8267,space,1.1005,0,51,51,230,1,,,6108295fdd0270d7544b5a8a,6437761d3576902c440d3464,2023-04-12_21h28.17.436,PRaM,2021.2.3,Win32,60.01680471,61b8f3437b89212fae0dfadf
1,2.122,space,0.3836,0,52,52,113,1,,,6108295fdd0270d7544b5a8a,6437761d3576902c440d3464,2023-04-12_21h28.17.436,PRaM,2021.2.3,Win32,60.01680471,61b8f3437b89212fae0dfadf
2,3.2235,space,1.4164,0,53,53,148,1,,,6108295fdd0270d7544b5a8a,6437761d3576902c440d3464,2023-04-12_21h28.17.436,PRaM,2021.2.3,Win32,60.01680471,61b8f3437b89212fae0dfadf
1,1.86,space,0.0392,0,54,54,49,1,,,6108295fdd0270d7544b5a8a,6437761d3576902c440d3464,2023-04-12_21h28.17.436,PRaM,2021.2.3,Win32,60.01680471,61b8f3437b89212fae0dfadf
8,2.8708,space,1.8345,0,55,55,134,1,,,6108295fdd0270d7544b5a8a,6437761d3576902c440d3464,2023-04-12_21h28.17.436,PRaM,2021.2.3,Win32,60.01680471,61b8f3437b89212fae0dfadf
6,2.2329,space,0.4355,0,56,56,159,1,,,6108295fdd0270d7544b5a8a,6437761d3576902c440d3464,2023-04-12_21h28.17.436,PRaM,2021.2.3,Win32,60.01680471,61b8f3437b89212fae0dfadf
4,1.7733,space,0.9043,0,57,57,164,1,,,6108295fdd0270d7544b5a8a,6437761d3576902c440d3464,2023-04-12_21h28.17.436,PRaM,2021.2.3,Win32,60.01680471,61b8f3437b89212fae0dfadf
7,2.3255,space,0.5542,0,58,58,372,1,,,6108295fdd0270d7544b5a8a,6437761d3576902c440d3464,2023-04-12_21h28.17.436,PRaM,2021.2.3,Win32,60.01680471,61b8f3437b89212fae0dfadf
7,1.6441,space,0.4261,0,59,59,280,1,,,6108295fdd0270d7544b5a8a,6437761d3576902c440d3464,2023-04-12_21h28.17.436,PRaM,2021.2.3,Win32,60.01680471,61b8f3437b89212fae0dfadf
1,4.8609,space,3.1327,0,60,60,357,1,,,6108295fdd0270d7544b5a8a,6437761d3576902c440d3464,2023-04-12_21h28.17.436,PRaM,2021.2.3,Win32,60.01680471,61b8f3437b89212fae0dfadf
4,2.5882,space,0.7873,0,61,61,48,1,,,6108295fdd0270d7544b5a8a,6437761d3576902c440d3464,2023-04-12_21h28.17.436,PRaM,2021.2.3,Win32,60.01680471,61b8f3437b89212fae0dfadf
3,2.6981,space,1.2756,0,62,62,305,1,,,6108295fdd0270d7544b5a8a,6437761d3576902c440d3464,2023-04-12_21h28.17.436,PRaM,2021.2.3,Win32,60.01680471,61b8f3437b89212fae0dfadf
2,2.7947,space,1.0001,0,63,63,347,1,,,6108295fdd0270d7544b5a8a,6437761d3576902c440d3464,2023-04-12_21h28.17.436,PRaM,2021.2.3,Win32,60.01680471,61b8f3437b89212fae0dfadf
5,2.9527,space,1.2669,0,64,64,256,1,,,6108295fdd0270d7544b5a8a,6437761d3576902c440d3464,2023-04-12_21h28.17.436,PRaM,2021.2.3,Win32,60.01680471,61b8f3437b89212fae0dfadf
7,2.1595,space,0.4223,0,65,65,213,1,,,6108295fdd0270d7544b5a8a,6437761d3576902c440d3464,2023-04-12_21h28.17.436,PRaM,2021.2.3,Win32,60.01680471,61b8f3437b89212fae0dfadf
1,1.9643,space,0.1732,0,66,66,235,1,,,6108295fdd0270d7544b5a8a,6437761d3576902c440d3464,2023-04-12_21h28.17.436,PRaM,2021.2.3,Win32,60.01680471,61b8f3437b89212fae0dfadf
7,2.936,space,1.2622,0,67,67,117,1,,,6108295fdd0270d7544b5a8a,6437761d3576902c440d3464,2023-04-12_21h28.17.436,PRaM,2021.2.3,Win32,60.01680471,61b8f3437b89212fae0dfadf
2,2.3089,space,0.5103,0,68,68,116,1,,,6108295fdd0270d7544b5a8a,6437761d3576902c440d3464,2023-04-12_21h28.17.436,PRaM,2021.2.3,Win32,60.01680471,61b8f3437b89212fae0dfadf
1,2.372,space,0.6009,0,69,69,9,1,,,6108295fdd0270d7544b5a8a,6437761d3576902c440d3464,2023-04-12_21h28.17.436,PRaM,2021.2.3,Win32,60.01680471,61b8f3437b89212fae0dfadf
3,1.9873,space,0.3358,0,70,70,88,1,,,6108295fdd0270d7544b5a8a,6437761d3576902c440d3464,2023-04-12_21h28.17.436,PRaM,2021.2.3,Win32,60.01680471,61b8f3437b89212fae0dfadf
4,2.2992,space,0.6684,0,71,71,110,1,,,6108295fdd0270d7544b5a8a,6437761d3576902c440d3464,2023-04-12_21h28.17.436,PRaM,2021.2.3,Win32,60.01680471,61b8f3437b89212fae0dfadf
1,1.847,space,0.0514,0,72,72,27,1,,,6108295fdd0270d7544b5a8a,6437761d3576902c440d3464,2023-04-12_21h28.17.436,PRaM,2021.2.3,Win32,60.01680471,61b8f3437b89212fae0dfadf
4,3.8101,space,2.0661,0,73,73,345,1,,,6108295fdd0270d7544b5a8a,6437761d3576902c440d3464,2023-04-12_21h28.17.436,PRaM,2021.2.3,Win32,60.01680471,61b8f3437b89212fae0dfadf
3,2.1468,space,0.4335,0,74,74,151,1,,,6108295fdd0270d7544b5a8a,6437761d3576902c440d3464,2023-04-12_21h28.17.436,PRaM,2021.2.3,Win32,60.01680471,61b8f3437b89212fae0dfadf
2,1.8401,space,0.0516,0,75,75,90,1,,,6108295fdd0270d7544b5a8a,6437761d3576902c440d3464,2023-04-12_21h28.17.436,PRaM,2021.2.3,Win32,60.01680471,61b8f3437b89212fae0dfadf
1,1.908,space,0.137,0,76,76,266,1,,,6108295fdd0270d7544b5a8a,6437761d3576902c440d3464,2023-04-12_21h28.17.436,PRaM,2021.2.3,Win32,60.01680471,61b8f3437b89212fae0dfadf
1,1.5418,space,0.5889,0,77,77,203,1,,,6108295fdd0270d7544b5a8a,6437761d3576902c440d3464,2023-04-12_21h28.17.436,PRaM,2021.2.3,Win32,60.01680471,61b8f3437b89212fae0dfadf
3,2.7897,space,1.1013,0,78,78,322,1,,,6108295fdd0270d7544b5a8a,6437761d3576902c440d3464,2023-04-12_21h28.17.436,PRaM,2021.2.3,Win32,60.01680471,61b8f3437b89212fae0dfadf
6,2.3986,space,0.6336,0,79,79,165,1,,,6108295fdd0270d7544b5a8a,6437761d3576902c440d3464,2023-04-12_21h28.17.436,PRaM,2021.2.3,Win32,60.01680471,61b8f3437b89212fae0dfadf
9,3.0215,space,1.325,0,80,80,244,1,,,6108295fdd0270d7544b5a8a,6437761d3576902c440d3464,2023-04-12_21h28.17.436,PRaM,2021.2.3,Win32,60.01680471,61b8f3437b89212fae0dfadf
6,3.1139,space,1.3816,0,81,81,142,1,,,6108295fdd0270d7544b5a8a,6437761d3576902c440d3464,2023-04-12_21h28.17.436,PRaM,2021.2.3,Win32,60.01680471,61b8f3437b89212fae0dfadf
7,1.8732,space,0.2041,0,82,82,196,1,,,6108295fdd0270d7544b5a8a,6437761d3576902c440d3464,2023-04-12_21h28.17.436,PRaM,2021.2.3,Win32,60.01680471,61b8f3437b89212fae0dfadf
5,2.0878,space,0.2682,0,83,83,6,1,,,6108295fdd0270d7544b5a8a,6437761d3576902c440d3464,2023-04-12_21h28.17.436,PRaM,2021.2.3,Win32,60.01680471,61b8f3437b89212fae0dfadf
1,2.5094,space,0.8022,0,84,84,22,1,,,6108295fdd0270d7544b5a8a,6437761d3576902c440d3464,2023-04-12_21h28.17.436,PRaM,2021.2.3,Win32,60.01680471,61b8f3437b89212fae0dfadf
1,1.2835,space,0.5548,0,85,85,190,1,,,6108295fdd0270d7544b5a8a,6437761d3576902c440d3464,2023-04-12_21h28.17.436,PRaM,2021.2.3,Win32,60.01680471,61b8f3437b89212fae0dfadf
3,2.2733,space,0.6057,0,86,86,349,1,,,6108295fdd0270d7544b5a8a,6437761d3576902c440d3464,2023-04-12_21h28.17.436,PRaM,2021.2.3,Win32,60.01680471,61b8f3437b89212fae0dfadf
7,1.8045,space,0.0961,0,87,87,331,1,,,6108295fdd0270d7544b5a8a,6437761d3576902c440d3464,2023-04-12_21h28.17.436,PRaM,2021.2.3,Win32,60.01680471,61b8f3437b89212fae0dfadf
3,2.0044,space,0.3088,0,88,88,272,1,,,6108295fdd0270d7544b5a8a,6437761d3576902c440d3464,2023-04-12_21h28.17.436,PRaM,2021.2.3,Win32,60.01680471,61b8f3437b89212fae0dfadf
1,2.6368,space,0.7927,0,89,89,220,1,,,6108295fdd0270d7544b5a8a,6437761d3576902c440d3464,2023-04-12_21h28.17.436,PRaM,2021.2.3,Win32,60.01680471,61b8f3437b89212fae0dfadf
1,1.891,space,0.1844,0,90,90,30,1,,,6108295fdd0270d7544b5a8a,6437761d3576902c440d3464,2023-04-12_21h28.17.436,PRaM,2021.2.3,Win32,60.01680471,61b8f3437b89212fae0dfadf
1,1.433,space,0.3516,0,91,91,81,1,,,6108295fdd0270d7544b5a8a,6437761d3576902c440d3464,2023-04-12_21h28.17.436,PRaM,2021.2.3,Win32,60.01680471,61b8f3437b89212fae0dfadf
1,1.6149,space,0.2321,0,92,92,174,1,,,6108295fdd0270d7544b5a8a,6437761d3576902c440d3464,2023-04-12_21h28.17.436,PRaM,2021.2.3,Win32,60.01680471,61b8f3437b89212fae0dfadf
7,2.6657,space,0.8814,0,93,93,326,1,,,6108295fdd0270d7544b5a8a,6437761d3576902c440d3464,2023-04-12_21h28.17.436,PRaM,2021.2.3,Win32,60.01680471,61b8f3437b89212fae0dfadf
6,2.671,space,0.9603,0,94,94,62,1,,,6108295fdd0270d7544b5a8a,6437761d3576902c440d3464,2023-04-12_21h28.17.436,PRaM,2021.2.3,Win32,60.01680471,61b8f3437b89212fae0dfadf
3,2.0123,space,0.2188,0,95,95,299,1,,,6108295fdd0270d7544b5a8a,6437761d3576902c440d3464,2023-04-12_21h28.17.436,PRaM,2021.2.3,Win32,60.01680471,61b8f3437b89212fae0dfadf
1,1.8184,space,0.1268,0,96,96,262,1,,,6108295fdd0270d7544b5a8a,6437761d3576902c440d3464,2023-04-12_21h28.17.436,PRaM,2021.2.3,Win32,60.01680471,61b8f3437b89212fae0dfadf
1,1.3003,space,0.1786,0,97,97,184,1,,,6108295fdd0270d7544b5a8a,6437761d3576902c440d3464,2023-04-12_21h28.17.436,PRaM,2021.2.3,Win32,60.01680471,61b8f3437b89212fae0dfadf
1,1.1973,space,0.1011,0,98,98,171,1,,,6108295fdd0270d7544b5a8a,6437761d3576902c440d3464,2023-04-12_21h28.17.436,PRaM,2021.2.3,Win32,60.01680471,61b8f3437b89212fae0dfadf
1,2.0285,space,0.5206,0,99,99,268,1,,,6108295fdd0270d7544b5a8a,6437761d3576902c440d3464,2023-04-12_21h28.17.436,PRaM,2021.2.3,Win32,60.01680471,61b8f3437b89212fae0dfadf
3,2.508,space,0.745,0,100,100,144,1,,,6108295fdd0270d7544b5a8a,6437761d3576902c440d3464,2023-04-12_21h28.17.436,PRaM,2021.2.3,Win32,60.01680471,61b8f3437b89212fae0dfadf
2,2.7132,space,1.0666,0,101,101,175,1,,,6108295fdd0270d7544b5a8a,6437761d3576902c440d3464,2023-04-12_21h28.17.436,PRaM,2021.2.3,Win32,60.01680471,61b8f3437b89212fae0dfadf
1,1.7028,space,0.4676,0,102,102,231,1,,,6108295fdd0270d7544b5a8a,6437761d3576902c440d3464,2023-04-12_21h28.17.436,PRaM,2021.2.3,Win32,60.01680471,61b8f3437b89212fae0dfadf
5,2.6852,space,0.9999,0,103,103,296,1,,,6108295fdd0270d7544b5a8a,6437761d3576902c440d3464,2023-04-12_21h28.17.436,PRaM,2021.2.3,Win32,60.01680471,61b8f3437b89212fae0dfadf
3,1.713,space,0.4358,0,104,104,311,1,,,6108295fdd0270d7544b5a8a,6437761d3576902c440d3464,2023-04-12_21h28.17.436,PRaM,2021.2.3,Win32,60.01680471,61b8f3437b89212fae0dfadf
2,3.4656,space,1.883,0,105,105,160,1,,,6108295fdd0270d7544b5a8a,6437761d3576902c440d3464,2023-04-12_21h28.17.436,PRaM,2021.2.3,Win32,60.01680471,61b8f3437b89212fae0dfadf
2,1.7639,space,0.1151,0,106,106,25,1,,,6108295fdd0270d7544b5a8a,6437761d3576902c440d3464,2023-04-12_21h28.17.436,PRaM,2021.2.3,Win32,60.01680471,61b8f3437b89212fae0dfadf
3,2.1161,space,0.4931,0,107,107,146,1,,,6108295fdd0270d7544b5a8a,6437761d3576902c440d3464,2023-04-12_21h28.17.436,PRaM,2021.2.3,Win32,60.01680471,61b8f3437b89212fae0dfadf
7,2.5744,space,0.8677,0,108,108,192,1,,,6108295fdd0270d7544b5a8a,6437761d3576902c440d3464,2023-04-12_21h28.17.436,PRaM,2021.2.3,Win32,60.01680471,61b8f3437b89212fae0dfadf
1,2.1689,space,0.5003,0,109,109,309,1,,,6108295fdd0270d7544b5a8a,6437761d3576902c440d3464,2023-04-12_21h28.17.436,PRaM,2021.2.3,Win32,60.01680471,61b8f3437b89212fae0dfadf
1,1.8154,space,0.1842,0,110,110,111,1,,,6108295fdd0270d7544b5a8a,6437761d3576902c440d3464,2023-04-12_21h28.17.436,PRaM,2021.2.3,Win32,60.01680471,61b8f3437b89212fae0dfadf
5,2.4113,space,0.6392,0,111,111,168,1,,,6108295fdd0270d7544b5a8a,6437761d3576902c440d3464,2023-04-12_21h28.17.436,PRaM,2021.2.3,Win32,60.01680471,61b8f3437b89212fae0dfadf
5,2.6206,space,0.9702,0,112,112,310,1,,,6108295fdd0270d7544b5a8a,6437761d3576902c440d3464,2023-04-12_21h28.17.436,PRaM,2021.2.3,Win32,60.01680471,61b8f3437b89212fae0dfadf
1,3.828,space,2.1995,0,113,113,71,1,,,6108295fdd0270d7544b5a8a,6437761d3576902c440d3464,2023-04-12_21h28.17.436,PRaM,2021.2.3,Win32,60.01680471,61b8f3437b89212fae0dfadf
5,2.776,space,1.0813,0,114,114,127,1,,,6108295fdd0270d7544b5a8a,6437761d3576902c440d3464,2023-04-12_21h28.17.436,PRaM,2021.2.3,Win32,60.01680471,61b8f3437b89212fae0dfadf
2,2.4943,space,0.7999,0,115,115,368,1,,,6108295fdd0270d7544b5a8a,6437761d3576902c440d3464,2023-04-12_21h28.17.436,PRaM,2021.2.3,Win32,60.01680471,61b8f3437b89212fae0dfadf
5,2.2125,space,0.61,0,116,116,186,1,,,6108295fdd0270d7544b5a8a,6437761d3576902c440d3464,2023-04-12_21h28.17.436,PRaM,2021.2.3,Win32,60.01680471,61b8f3437b89212fae0dfadf
5,1.7345,space,0.1957,0,117,117,132,1,,,6108295fdd0270d7544b5a8a,6437761d3576902c440d3464,2023-04-12_21h28.17.436,PRaM,2021.2.3,Win32,60.01680471,61b8f3437b89212fae0dfadf
5,1.7453,space,0.1016,0,118,118,181,1,,,6108295fdd0270d7544b5a8a,6437761d3576902c440d3464,2023-04-12_21h28.17.436,PRaM,2021.2.3,Win32,60.01680471,61b8f3437b89212fae0dfadf
8,2.3685,space,0.838,0,119,119,118,1,,,6108295fdd0270d7544b5a8a,6437761d3576902c440d3464,2023-04-12_21h28.17.436,PRaM,2021.2.3,Win32,60.01680471,61b8f3437b89212fae0dfadf
5,2.3041,space,0.5845,0,120,120,288,1,,,6108295fdd0270d7544b5a8a,6437761d3576902c440d3464,2023-04-12_21h28.17.436,PRaM,2021.2.3,Win32,60.01680471,61b8f3437b89212fae0dfadf
4,2.4064,space,0.6673,0,121,121,294,1,,,6108295fdd0270d7544b5a8a,6437761d3576902c440d3464,2023-04-12_21h28.17.436,PRaM,2021.2.3,Win32,60.01680471,61b8f3437b89212fae0dfadf
1,1.9971,space,0.282,0,122,122,57,1,,,6108295fdd0270d7544b5a8a,6437761d3576902c440d3464,2023-04-12_21h28.17.436,PRaM,2021.2.3,Win32,60.01680471,61b8f3437b89212fae0dfadf
7,2.7876,space,1.0729,0,123,123,197,1,,,6108295fdd0270d7544b5a8a,6437761d3576902c440d3464,2023-04-12_21h28.17.436,PRaM,2021.2.3,Win32,60.01680471,61b8f3437b89212fae0dfadf
2,2.0132,space,0.2764,0,124,124,73,1,,,6108295fdd0270d7544b5a8a,6437761d3576902c440d3464,2023-04-12_21h28.17.436,PRaM,2021.2.3,Win32,60.01680471,61b8f3437b89212fae0dfadf
1,1.7532,space,0.0766,0,125,125,308,1,,,6108295fdd0270d7544b5a8a,6437761d3576902c440d3464,2023-04-12_21h28.17.436,PRaM,2021.2.3,Win32,60.01680471,61b8f3437b89212fae0dfadf
1,1.573,space,0.4025,0,126,126,253,1,,,6108295fdd0270d7544b5a8a,6437761d3576902c440d3464,2023-04-12_21h28.17.436,PRaM,2021.2.3,Win32,60.01680471,61b8f3437b89212fae0dfadf
7,2.3017,space,0.6065,0,127,127,114,1,,,6108295fdd0270d7544b5a8a,6437761d3576902c440d3464,2023-04-12_21h28.17.436,PRaM,2021.2.3,Win32,60.01680471,61b8f3437b89212fae0dfadf
5,1.8449,space,0.0696,0,128,128,327,1,,,6108295fdd0270d7544b5a8a,6437761d3576902c440d3464,2023-04-12_21h28.17.436,PRaM,2021.2.3,Win32,60.01680471,61b8f3437b89212fae0dfadf
1,2.0062,space,0.3123,0,129,129,229,1,,,6108295fdd0270d7544b5a8a,6437761d3576902c440d3464,2023-04-12_21h28.17.436,PRaM,2021.2.3,Win32,60.01680471,61b8f3437b89212fae0dfadf
5,2.9635,space,1.2988,0,130,130,120,1,,,6108295fdd0270d7544b5a8a,6437761d3576902c440d3464,2023-04-12_21h28.17.436,PRaM,2021.2.3,Win32,60.01680471,61b8f3437b89212fae0dfadf
6,3.2912,space,1.6179,0,131,131,226,1,,,6108295fdd0270d7544b5a8a,6437761d3576902c440d3464,2023-04-12_21h28.17.436,PRaM,2021.2.3,Win32,60.01680471,61b8f3437b89212fae0dfadf
6,1.2792,space,0.1824,0,132,132,228,1,,,6108295fdd0270d7544b5a8a,6437761d3576902c440d3464,2023-04-12_21h28.17.436,PRaM,2021.2.3,Win32,60.01680471,61b8f3437b89212fae0dfadf
6,3.0629,space,1.367,0,133,133,233,1,,,6108295fdd0270d7544b5a8a,6437761d3576902c440d3464,2023-04-12_21h28.17.436,PRaM,2021.2.3,Win32,60.01680471,61b8f3437b89212fae0dfadf
1,2.2434,space,0.5045,0,134,134,218,1,,,6108295fdd0270d7544b5a8a,6437761d3576902c440d3464,2023-04-12_21h28.17.436,PRaM,2021.2.3,Win32,60.01680471,61b8f3437b89212fae0dfadf
7,2.2902,space,0.5344,0,135,135,335,1,,,6108295fdd0270d7544b5a8a,6437761d3576902c440d3464,2023-04-12_21h28.17.436,PRaM,2021.2.3,Win32,60.01680471,61b8f3437b89212fae0dfadf
3,2.4532,space,0.7913,0,136,136,364,1,,,6108295fdd0270d7544b5a8a,6437761d3576902c440d3464,2023-04-12_21h28.17.436,PRaM,2021.2.3,Win32,60.01680471,61b8f3437b89212fae0dfadf
2,2.0738,space,0.3172,0,137,137,19,1,,,6108295fdd0270d7544b5a8a,6437761d3576902c440d3464,2023-04-12_21h28.17.436,PRaM,2021.2.3,Win32,60.01680471,61b8f3437b89212fae0dfadf
1,1.5183,space,0.2184,0,138,138,360,1,,,6108295fdd0270d7544b5a8a,6437761d3576902c440d3464,2023-04-12_21h28.17.436,PRaM,2021.2.3,Win32,60.01680471,61b8f3437b89212fae0dfadf
1,1.3734,space,0.2342,0,139,139,185,1,,,6108295fdd0270d7544b5a8a,6437761d3576902c440d3464,2023-04-12_21h28.17.436,PRaM,2021.2.3,Win32,60.01680471,61b8f3437b89212fae0dfadf
1,1.1898,space,0.5842,0,140,140,67,1,,,6108295fdd0270d7544b5a8a,6437761d3576902c440d3464,2023-04-12_21h28.17.436,PRaM,2021.2.3,Win32,60.01680471,61b8f3437b89212fae0dfadf
1,1.8276,space,0.9149,0,141,141,271,1,,,6108295fdd0270d7544b5a8a,6437761d3576902c440d3464,2023-04-12_21h28.17.436,PRaM,2021.2.3,Win32,60.01680471,61b8f3437b89212fae0dfadf
7,2.8118,space,1.2185,0,142,142,20,1,,,6108295fdd0270d7544b5a8a,6437761d3576902c440d3464,2023-04-12_21h28.17.436,PRaM,2021.2.3,Win32,60.01680471,61b8f3437b89212fae0dfadf
8,2.0212,space,0.2947,0,143,143,325,1,,,6108295fdd0270d7544b5a8a,6437761d3576902c440d3464,2023-04-12_21h28.17.436,PRaM,2021.2.3,Win32,60.01680471,61b8f3437b89212fae0dfadf
4,1.8553,space,0.1239,0,144,144,254,1,,,6108295fdd0270d7544b5a8a,6437761d3576902c440d3464,2023-04-12_21h28.17.436,PRaM,2021.2.3,Win32,60.01680471,61b8f3437b89212fae0dfadf
1,1.8731,space,0.1545,0,145,145,58,1,,,6108295fdd0270d7544b5a8a,6437761d3576902c440d3464,2023-04-12_21h28.17.436,PRaM,2021.2.3,Win32,60.01680471,61b8f3437b89212fae0dfadf
4,2.6125,space,0.8718,0,146,146,355,1,,,6108295fdd0270d7544b5a8a,6437761d3576902c440d3464,2023-04-12_21h28.17.436,PRaM,2021.2.3,Win32,60.01680471,61b8f3437b89212fae0dfadf
5,2.0288,space,0.2926,0,147,147,51,1,,,6108295fdd0270d7544b5a8a,6437761d3576902c440d3464,2023-04-12_21h28.17.436,PRaM,2021.2.3,Win32,60.01680471,61b8f3437b89212fae0dfadf
3,1.8708,space,0.1333,0,148,148,124,1,,,6108295fdd0270d7544b5a8a,6437761d3576902c440d3464,2023-04-12_21h28.17.436,PRaM,2021.2.3,Win32,60.01680471,61b8f3437b89212fae0dfadf
1,2.3935,space,0.6042,0,149,149,275,1,,,6108295fdd0270d7544b5a8a,6437761d3576902c440d3464,2023-04-12_21h28.17.436,PRaM,2021.2.3,Win32,60.01680471,61b8f3437b89212fae0dfadf
6,2.64,space,0.9677,0,150,150,319,1,,,6108295fdd0270d7544b5a8a,6437761d3576902c440d3464,2023-04-12_21h28.17.436,PRaM,2021.2.3,Win32,60.01680471,61b8f3437b89212fae0dfadf
5,1.8734,space,0.1188,0,151,151,69,1,,,6108295fdd0270d7544b5a8a,6437761d3576902c440d3464,2023-04-12_21h28.17.436,PRaM,2021.2.3,Win32,60.01680471,61b8f3437b89212fae0dfadf
5,1.5952,space,0.2874,0,152,152,74,1,,,6108295fdd0270d7544b5a8a,6437761d3576902c440d3464,2023-04-12_21h28.17.436,PRaM,2021.2.3,Win32,60.01680471,61b8f3437b89212fae0dfadf
3,1.9783,space,0.2175,0,153,153,163,1,,,6108295fdd0270d7544b5a8a,6437761d3576902c440d3464,2023-04-12_21h28.17.436,PRaM,2021.2.3,Win32,60.01680471,61b8f3437b89212fae0dfadf
4,2.5862,space,1.0346,0,154,154,270,1,,,6108295fdd0270d7544b5a8a,6437761d3576902c440d3464,2023-04-12_21h28.17.436,PRaM,2021.2.3,Win32,60.01680471,61b8f3437b89212fae0dfadf
1,1.9944,space,0.2675,0,155,155,54,1,,,6108295fdd0270d7544b5a8a,6437761d3576902c440d3464,2023-04-12_21h28.17.436,PRaM,2021.2.3,Win32,60.01680471,61b8f3437b89212fae0dfadf
4,2.3219,space,0.5488,0,156,156,140,1,,,6108295fdd0270d7544b5a8a,6437761d3576902c440d3464,2023-04-12_21h28.17.436,PRaM,2021.2.3,Win32,60.01680471,61b8f3437b89212fae0dfadf
2,2.0056,space,0.284,0,157,157,103,1,,,6108295fdd0270d7544b5a8a,6437761d3576902c440d3464,2023-04-12_21h28.17.436,PRaM,2021.2.3,Win32,60.01680471,61b8f3437b89212fae0dfadf
1,1.8345,space,0.1175,0,158,158,92,1,,,6108295fdd0270d7544b5a8a,6437761d3576902c440d3464,2023-04-12_21h28.17.436,PRaM,2021.2.3,Win32,60.01680471,61b8f3437b89212fae0dfadf
3,2.0305,space,0.2247,0,159,159,356,1,,,6108295fdd0270d7544b5a8a,6437761d3576902c440d3464,2023-04-12_21h28.17.436,PRaM,2021.2.3,Win32,60.01680471,61b8f3437b89212fae0dfadf
8,3.7573,space,2.099,0,160,160,222,1,,,6108295fdd0270d7544b5a8a,6437761d3576902c440d3464,2023-04-12_21h28.17.436,PRaM,2021.2.3,Win32,60.01680471,61b8f3437b89212fae0dfadf
2,2.3179,space,0.59,0,161,161,72,1,,,6108295fdd0270d7544b5a8a,6437761d3576902c440d3464,2023-04-12_21h28.17.436,PRaM,2021.2.3,Win32,60.01680471,61b8f3437b89212fae0dfadf
4,2.7969,space,1.1191,0,162,162,363,1,,,6108295fdd0270d7544b5a8a,6437761d3576902c440d3464,2023-04-12_21h28.17.436,PRaM,2021.2.3,Win32,60.01680471,61b8f3437b89212fae0dfadf
1,1.9779,space,0.3107,0,163,163,338,1,,,6108295fdd0270d7544b5a8a,6437761d3576902c440d3464,2023-04-12_21h28.17.436,PRaM,2021.2.3,Win32,60.01680471,61b8f3437b89212fae0dfadf
6,2.7457,space,1.0685,0,164,164,182,1,,,6108295fdd0270d7544b5a8a,6437761d3576902c440d3464,2023-04-12_21h28.17.436,PRaM,2021.2.3,Win32,60.01680471,61b8f3437b89212fae0dfadf
5,1.9477,space,0.2096,0,165,165,285,1,,,6108295fdd0270d7544b5a8a,6437761d3576902c440d3464,2023-04-12_21h28.17.436,PRaM,2021.2.3,Win32,60.01680471,61b8f3437b89212fae0dfadf
1,1.7221,space,0.034,0,166,166,284,1,,,6108295fdd0270d7544b5a8a,6437761d3576902c440d3464,2023-04-12_21h28.17.436,PRaM,2021.2.3,Win32,60.01680471,61b8f3437b89212fae0dfadf
1,1.3234,space,0.1831,0,167,167,369,1,,,6108295fdd0270d7544b5a8a,6437761d3576902c440d3464,2023-04-12_21h28.17.436,PRaM,2021.2.3,Win32,60.01680471,61b8f3437b89212fae0dfadf
2,2.3378,space,0.6497,0,168,168,102,1,,,6108295fdd0270d7544b5a8a,6437761d3576902c440d3464,2023-04-12_21h28.17.436,PRaM,2021.2.3,Win32,60.01680471,61b8f3437b89212fae0dfadf
1,1.7753,space,0.0214,0,169,169,170,1,,,6108295fdd0270d7544b5a8a,6437761d3576902c440d3464,2023-04-12_21h28.17.436,PRaM,2021.2.3,Win32,60.01680471,61b8f3437b89212fae0dfadf
1,1.9629,space,0.2027,0,170,170,274,1,,,6108295fdd0270d7544b5a8a,6437761d3576902c440d3464,2023-04-12_21h28.17.436,PRaM,2021.2.3,Win32,60.01680471,61b8f3437b89212fae0dfadf
3,3.4036,space,1.7386,0,171,171,33,1,,,6108295fdd0270d7544b5a8a,6437761d3576902c440d3464,2023-04-12_21h28.17.436,PRaM,2021.2.3,Win32,60.01680471,61b8f3437b89212fae0dfadf
1,2.0931,space,0.4022,0,172,172,89,1,,,6108295fdd0270d7544b5a8a,6437761d3576902c440d3464,2023-04-12_21h28.17.436,PRaM,2021.2.3,Win32,60.01680471,61b8f3437b89212fae0dfadf
1,2.2069,space,0.5014,0,173,173,131,1,,,6108295fdd0270d7544b5a8a,6437761d3576902c440d3464,2023-04-12_21h28.17.436,PRaM,2021.2.3,Win32,60.01680471,61b8f3437b89212fae0dfadf
3,1.9873,space,0.2007,0,174,174,341,1,,,6108295fdd0270d7544b5a8a,6437761d3576902c440d3464,2023-04-12_21h28.17.436,PRaM,2021.2.3,Win32,60.01680471,61b8f3437b89212fae0dfadf
1,2.5695,space,0.8651,0,175,175,358,1,,,6108295fdd0270d7544b5a8a,6437761d3576902c440d3464,2023-04-12_21h28.17.436,PRaM,2021.2.3,Win32,60.01680471,61b8f3437b89212fae0dfadf
1,1.4149,space,0.7666,0,176,176,237,1,,,6108295fdd0270d7544b5a8a,6437761d3576902c440d3464,2023-04-12_21h28.17.436,PRaM,2021.2.3,Win32,60.01680471,61b8f3437b89212fae0dfadf
3,4.6882,space,3.0001,0,177,177,198,1,,,6108295fdd0270d7544b5a8a,6437761d3576902c440d3464,2023-04-12_21h28.17.436,PRaM,2021.2.3,Win32,60.01680471,61b8f3437b89212fae0dfadf
6,2.4576,space,0.771,0,178,178,370,1,,,6108295fdd0270d7544b5a8a,6437761d3576902c440d3464,2023-04-12_21h28.17.436,PRaM,2021.2.3,Win32,60.01680471,61b8f3437b89212fae0dfadf
1,2.2047,space,0.4503,0,179,179,204,1,,,6108295fdd0270d7544b5a8a,6437761d3576902c440d3464,2023-04-12_21h28.17.436,PRaM,2021.2.3,Win32,60.01680471,61b8f3437b89212fae0dfadf
1,1.5725,space,0.268,0,180,180,287,1,,,6108295fdd0270d7544b5a8a,6437761d3576902c440d3464,2023-04-12_21h28.17.436,PRaM,2021.2.3,Win32,60.01680471,61b8f3437b89212fae0dfadf
1,1.4782,space,1.5828,0,181,181,342,1,,,6108295fdd0270d7544b5a8a,6437761d3576902c440d3464,2023-04-12_21h28.17.436,PRaM,2021.2.3,Win32,60.01680471,61b8f3437b89212fae0dfadf
1,1.9387,space,0.3446,0,182,182,361,1,,,6108295fdd0270d7544b5a8a,6437761d3576902c440d3464,2023-04-12_21h28.17.436,PRaM,2021.2.3,Win32,60.01680471,61b8f3437b89212fae0dfadf
7,2.359,space,0.636,0,183,183,208,1,,,6108295fdd0270d7544b5a8a,6437761d3576902c440d3464,2023-04-12_21h28.17.436,PRaM,2021.2.3,Win32,60.01680471,61b8f3437b89212fae0dfadf
7,1.932,space,0.1837,0,184,184,115,1,,,6108295fdd0270d7544b5a8a,6437761d3576902c440d3464,2023-04-12_21h28.17.436,PRaM,2021.2.3,Win32,60.01680471,61b8f3437b89212fae0dfadf
3,2.2793,space,0.6336,0,185,185,167,1,,,6108295fdd0270d7544b5a8a,6437761d3576902c440d3464,2023-04-12_21h28.17.436,PRaM,2021.2.3,Win32,60.01680471,61b8f3437b89212fae0dfadf
1,1.9963,space,0.2181,0,186,186,24,1,,,6108295fdd0270d7544b5a8a,6437761d3576902c440d3464,2023-04-12_21h28.17.436,PRaM,2021.2.3,Win32,60.01680471,61b8f3437b89212fae0dfadf
1,1.5635,space,0.361,0,187,187,169,1,,,6108295fdd0270d7544b5a8a,6437761d3576902c440d3464,2023-04-12_21h28.17.436,PRaM,2021.2.3,Win32,60.01680471,61b8f3437b89212fae0dfadf
1,1.4541,space,0.2517,0,188,188,359,1,,,6108295fdd0270d7544b5a8a,6437761d3576902c440d3464,2023-04-12_21h28.17.436,PRaM,2021.2.3,Win32,60.01680471,61b8f3437b89212fae0dfadf
1,1.8038,space,0.2095,0,189,189,44,1,,,6108295fdd0270d7544b5a8a,6437761d3576902c440d3464,2023-04-12_21h28.17.436,PRaM,2021.2.3,Win32,60.01680471,61b8f3437b89212fae0dfadf
3,1.862,space,0.1341,0,190,190,332,1,,,6108295fdd0270d7544b5a8a,6437761d3576902c440d3464,2023-04-12_21h28.17.436,PRaM,2021.2.3,Win32,60.01680471,61b8f3437b89212fae0dfadf
1,1.6465,space,0.3391,0,191,191,289,1,,,6108295fdd0270d7544b5a8a,6437761d3576902c440d3464,2023-04-12_21h28.17.436,PRaM,2021.2.3,Win32,60.01680471,61b8f3437b89212fae0dfadf
7,3.678,space,1.8669,0,192,192,85,1,,,6108295fdd0270d7544b5a8a,6437761d3576902c440d3464,2023-04-12_21h28.17.436,PRaM,2021.2.3,Win32,60.01680471,61b8f3437b89212fae0dfadf
7,1.5977,space,0.3105,0,193,193,86,1,,,6108295fdd0270d7544b5a8a,6437761d3576902c440d3464,2023-04-12_21h28.17.436,PRaM,2021.2.3,Win32,60.01680471,61b8f3437b89212fae0dfadf
1,3.0288,space,1.2883,0,194,194,39,1,,,6108295fdd0270d7544b5a8a,6437761d3576902c440d3464,2023-04-12_21h28.17.436,PRaM,2021.2.3,Win32,60.01680471,61b8f3437b89212fae0dfadf
3,2.0903,space,0.3844,0,195,195,362,1,,,6108295fdd0270d7544b5a8a,6437761d3576902c440d3464,2023-04-12_21h28.17.436,PRaM,2021.2.3,Win32,60.01680471,61b8f3437b89212fae0dfadf
7,3.139,space,1.4372,0,196,196,147,1,,,6108295fdd0270d7544b5a8a,6437761d3576902c440d3464,2023-04-12_21h28.17.436,PRaM,2021.2.3,Win32,60.01680471,61b8f3437b89212fae0dfadf
7,1.7429,space,0.0097,0,197,197,17,1,,,6108295fdd0270d7544b5a8a,6437761d3576902c440d3464,2023-04-12_21h28.17.436,PRaM,2021.2.3,Win32,60.01680471,61b8f3437b89212fae0dfadf
1,1.7212,space,0.4217,0,198,198,94,1,,,6108295fdd0270d7544b5a8a,6437761d3576902c440d3464,2023-04-12_21h28.17.436,PRaM,2021.2.3,Win32,60.01680471,61b8f3437b89212fae0dfadf
7,3.1278,space,1.4508,0,199,199,291,1,,,6108295fdd0270d7544b5a8a,6437761d3576902c440d3464,2023-04-12_21h28.17.436,PRaM,2021.2.3,Win32,60.01680471,61b8f3437b89212fae0dfadf
3,2.4607,space,0.8015,0,200,200,209,1,,,6108295fdd0270d7544b5a8a,6437761d3576902c440d3464,2023-04-12_21h28.17.436,PRaM,2021.2.3,Win32,60.01680471,61b8f3437b89212fae0dfadf
1,3.2953,space,1.5764,0,201,201,273,1,,,6108295fdd0270d7544b5a8a,6437761d3576902c440d3464,2023-04-12_21h28.17.436,PRaM,2021.2.3,Win32,60.01680471,61b8f3437b89212fae0dfadf
1,1.8539,space,0.1727,0,202,202,13,1,,,6108295fdd0270d7544b5a8a,6437761d3576902c440d3464,2023-04-12_21h28.17.436,PRaM,2021.2.3,Win32,60.01680471,61b8f3437b89212fae0dfadf
1,1.2936,space,0.1352,0,203,203,232,1,,,6108295fdd0270d7544b5a8a,6437761d3576902c440d3464,2023-04-12_21h28.17.436,PRaM,2021.2.3,Win32,60.01680471,61b8f3437b89212fae0dfadf
3,3.3682,space,1.6615,0,204,204,180,1,,,6108295fdd0270d7544b5a8a,6437761d3576902c440d3464,2023-04-12_21h28.17.436,PRaM,2021.2.3,Win32,60.01680471,61b8f3437b89212fae0dfadf
2,2.2311,space,0.4845,0,205,205,242,1,,,6108295fdd0270d7544b5a8a,6437761d3576902c440d3464,2023-04-12_21h28.17.436,PRaM,2021.2.3,Win32,60.01680471,61b8f3437b89212fae0dfadf
4,2.464,space,0.7634,0,206,206,61,1,,,6108295fdd0270d7544b5a8a,6437761d3576902c440d3464,2023-04-12_21h28.17.436,PRaM,2021.2.3,Win32,60.01680471,61b8f3437b89212fae0dfadf
3,2.0491,space,0.3977,0,207,207,96,1,,,6108295fdd0270d7544b5a8a,6437761d3576902c440d3464,2023-04-12_21h28.17.436,PRaM,2021.2.3,Win32,60.01680471,61b8f3437b89212fae0dfadf
5,3.1667,space,1.7005,0,208,208,154,1,,,6108295fdd0270d7544b5a8a,6437761d3576902c440d3464,2023-04-12_21h28.17.436,PRaM,2021.2.3,Win32,60.01680471,61b8f3437b89212fae0dfadf
6,1.8576,space,0.1505,0,209,209,136,1,,,6108295fdd0270d7544b5a8a,6437761d3576902c440d3464,2023-04-12_21h28.17.436,PRaM,2021.2.3,Win32,60.01680471,61b8f3437b89212fae0dfadf
5,1.726,space,0.0521,0,210,210,223,1,,,6108295fdd0270d7544b5a8a,6437761d3576902c440d3464,2023-04-12_21h28.17.436,PRaM,2021.2.3,Win32,60.01680471,61b8f3437b89212fae0dfadf
4,2.6275,space,0.942,0,211,211,282,1,,,6108295fdd0270d7544b5a8a,6437761d3576902c440d3464,2023-04-12_21h28.17.436,PRaM,2021.2.3,Win32,60.01680471,61b8f3437b89212fae0dfadf
4,1.7755,space,0.0017,0,212,212,16,1,,,6108295fdd0270d7544b5a8a,6437761d3576902c440d3464,2023-04-12_21h28.17.436,PRaM,2021.2.3,Win32,60.01680471,61b8f3437b89212fae0dfadf
1,3.0536,space,1.273,0,213,213,227,1,,,6108295fdd0270d7544b5a8a,6437761d3576902c440d3464,2023-04-12_21h28.17.436,PRaM,2021.2.3,Win32,60.01680471,61b8f3437b89212fae0dfadf
6,2.1725,space,0.4984,0,214,214,297,1,,,6108295fdd0270d7544b5a8a,6437761d3576902c440d3464,2023-04-12_21h28.17.436,PRaM,2021.2.3,Win32,60.01680471,61b8f3437b89212fae0dfadf
5,3.5319,space,1.7806,0,215,215,135,1,,,6108295fdd0270d7544b5a8a,6437761d3576902c440d3464,2023-04-12_21h28.17.436,PRaM,2021.2.3,Win32,60.01680471,61b8f3437b89212fae0dfadf
1,1.8272,space,0.2013,0,216,216,79,1,,,6108295fdd0270d7544b5a8a,6437761d3576902c440d3464,2023-04-12_21h28.17.436,PRaM,2021.2.3,Win32,60.01680471,61b8f3437b89212fae0dfadf
3,1.9615,space,0.2514,0,217,217,101,1,,,6108295fdd0270d7544b5a8a,6437761d3576902c440d3464,2023-04-12_21h28.17.436,PRaM,2021.2.3,Win32,60.01680471,61b8f3437b89212fae0dfadf
7,3.0881,space,1.3781,0,218,218,279,1,,,6108295fdd0270d7544b5a8a,6437761d3576902c440d3464,2023-04-12_21h28.17.436,PRaM,2021.2.3,Win32,60.01680471,61b8f3437b89212fae0dfadf
7,1.3208,space,0.2045,0,219,219,173,1,,,6108295fdd0270d7544b5a8a,6437761d3576902c440d3464,2023-04-12_21h28.17.436,PRaM,2021.2.3,Win32,60.01680471,61b8f3437b89212fae0dfadf
1,2.1013,space,0.3492,0,220,220,82,1,,,6108295fdd0270d7544b5a8a,6437761d3576902c440d3464,2023-04-12_21h28.17.436,PRaM,2021.2.3,Win32,60.01680471,61b8f3437b89212fae0dfadf
8,2.4875,space,0.8633,0,221,221,84,1,,,6108295fdd0270d7544b5a8a,6437761d3576902c440d3464,2023-04-12_21h28.17.436,PRaM,2021.2.3,Win32,60.01680471,61b8f3437b89212fae0dfadf
1,2.0821,space,0.3846,0,222,222,214,1,,,6108295fdd0270d7544b5a8a,6437761d3576902c440d3464,2023-04-12_21h28.17.436,PRaM,2021.2.3,Win32,60.01680471,61b8f3437b89212fae0dfadf
2,2.23,space,0.5619,0,223,223,46,1,,,6108295fdd0270d7544b5a8a,6437761d3576902c440d3464,2023-04-12_21h28.17.436,PRaM,2021.2.3,Win32,60.01680471,61b8f3437b89212fae0dfadf
8,2.1124,space,0.3846,0,224,224,225,1,,,6108295fdd0270d7544b5a8a,6437761d3576902c440d3464,2023-04-12_21h28.17.436,PRaM,2021.2.3,Win32,60.01680471,61b8f3437b89212fae0dfadf
1,1.8325,space,0.0538,0,225,225,68,1,,,6108295fdd0270d7544b5a8a,6437761d3576902c440d3464,2023-04-12_21h28.17.436,PRaM,2021.2.3,Win32,60.01680471,61b8f3437b89212fae0dfadf
1,1.5676,space,0.0339,0,226,226,373,1,,,6108295fdd0270d7544b5a8a,6437761d3576902c440d3464,2023-04-12_21h28.17.436,PRaM,2021.2.3,Win32,60.01680471,61b8f3437b89212fae0dfadf
1,1.4997,space,0.4116,0,227,227,108,1,,,6108295fdd0270d7544b5a8a,6437761d3576902c440d3464,2023-04-12_21h28.17.436,PRaM,2021.2.3,Win32,60.01680471,61b8f3437b89212fae0dfadf
1,1.5994,space,0.0509,0,228,228,293,1,,,6108295fdd0270d7544b5a8a,6437761d3576902c440d3464,2023-04-12_21h28.17.436,PRaM,2021.2.3,Win32,60.01680471,61b8f3437b89212fae0dfadf
7,1.975,space,0.2122,0,229,229,53,1,,,6108295fdd0270d7544b5a8a,6437761d3576902c440d3464,2023-04-12_21h28.17.436,PRaM,2021.2.3,Win32,60.01680471,61b8f3437b89212fae0dfadf
7,1.6116,space,0.5505,0,230,230,112,1,,,6108295fdd0270d7544b5a8a,6437761d3576902c440d3464,2023-04-12_21h28.17.436,PRaM,2021.2.3,Win32,60.01680471,61b8f3437b89212fae0dfadf
1,2.1412,space,0.4152,0,231,231,37,1,,,6108295fdd0270d7544b5a8a,6437761d3576902c440d3464,2023-04-12_21h28.17.436,PRaM,2021.2.3,Win32,60.01680471,61b8f3437b89212fae0dfadf
1,1.6185,space,0.2515,0,232,232,128,1,,,6108295fdd0270d7544b5a8a,6437761d3576902c440d3464,2023-04-12_21h28.17.436,PRaM,2021.2.3,Win32,60.01680471,61b8f3437b89212fae0dfadf
1,1.5283,space,0.3014,0,233,233,375,1,,,6108295fdd0270d7544b5a8a,6437761d3576902c440d3464,2023-04-12_21h28.17.436,PRaM,2021.2.3,Win32,60.01680471,61b8f3437b89212fae0dfadf
1,1.7178,space,0.0847,0,234,234,107,1,,,6108295fdd0270d7544b5a8a,6437761d3576902c440d3464,2023-04-12_21h28.17.436,PRaM,2021.2.3,Win32,60.01680471,61b8f3437b89212fae0dfadf
3,3.3171,space,1.6335,0,235,235,313,1,,,6108295fdd0270d7544b5a8a,6437761d3576902c440d3464,2023-04-12_21h28.17.436,PRaM,2021.2.3,Win32,60.01680471,61b8f3437b89212fae0dfadf
2,2.1483,space,0.4318,0,236,236,133,1,,,6108295fdd0270d7544b5a8a,6437761d3576902c440d3464,2023-04-12_21h28.17.436,PRaM,2021.2.3,Win32,60.01680471,61b8f3437b89212fae0dfadf
1,1.6657,space,0.3178,0,237,237,8,1,,,6108295fdd0270d7544b5a8a,6437761d3576902c440d3464,2023-04-12_21h28.17.436,PRaM,2021.2.3,Win32,60.01680471,61b8f3437b89212fae0dfadf
6,2.0146,space,0.248,0,238,238,59,1,,,6108295fdd0270d7544b5a8a,6437761d3576902c440d3464,2023-04-12_21h28.17.436,PRaM,2021.2.3,Win32,60.01680471,61b8f3437b89212fae0dfadf
1,2.2751,space,0.5832,0,239,239,250,1,,,6108295fdd0270d7544b5a8a,6437761d3576902c440d3464,2023-04-12_21h28.17.436,PRaM,2021.2.3,Win32,60.01680471,61b8f3437b89212fae0dfadf
1,1.767,space,0.0343,0,240,240,216,1,,,6108295fdd0270d7544b5a8a,6437761d3576902c440d3464,2023-04-12_21h28.17.436,PRaM,2021.2.3,Win32,60.01680471,61b8f3437b89212fae0dfadf
3,2.0788,space,0.3401,0,241,241,344,1,,,6108295fdd0270d7544b5a8a,6437761d3576902c440d3464,2023-04-12_21h28.17.436,PRaM,2021.2.3,Win32,60.01680471,61b8f3437b89212fae0dfadf
1,1.837,space,0.1149,0,242,242,303,1,,,6108295fdd0270d7544b5a8a,6437761d3576902c440d3464,2023-04-12_21h28.17.436,PRaM,2021.2.3,Win32,60.01680471,61b8f3437b89212fae0dfadf
1,1.4369,space,0.2516,0,243,243,172,1,,,6108295fdd0270d7544b5a8a,6437761d3576902c440d3464,2023-04-12_21h28.17.436,PRaM,2021.2.3,Win32,60.01680471,61b8f3437b89212fae0dfadf
1,1.4665,space,0.3123,0,244,244,50,1,,,6108295fdd0270d7544b5a8a,6437761d3576902c440d3464,2023-04-12_21h28.17.436,PRaM,2021.2.3,Win32,60.01680471,61b8f3437b89212fae0dfadf
3,2.6683,space,1.028,0,245,245,264,1,,,6108295fdd0270d7544b5a8a,6437761d3576902c440d3464,2023-04-12_21h28.17.436,PRaM,2021.2.3,Win32,60.01680471,61b8f3437b89212fae0dfadf
2,1.88,space,0.1679,0,246,246,12,1,,,6108295fdd0270d7544b5a8a,6437761d3576902c440d3464,2023-04-12_21h28.17.436,PRaM,2021.2.3,Win32,60.01680471,61b8f3437b89212fae0dfadf
4,3.0331,space,1.3319,0,247,247,199,1,,,6108295fdd0270d7544b5a8a,6437761d3576902c440d3464,2023-04-12_21h28.17.436,PRaM,2021.2.3,Win32,60.01680471,61b8f3437b89212fae0dfadf
3,2.2168,space,0.4679,0,248,248,191,1,,,6108295fdd0270d7544b5a8a,6437761d3576902c440d3464,2023-04-12_21h28.17.436,PRaM,2021.2.3,Win32,60.01680471,61b8f3437b89212fae0dfadf
7,2.419,space,0.7498,0,249,249,105,1,,,6108295fdd0270d7544b5a8a,6437761d3576902c440d3464,2023-04-12_21h28.17.436,PRaM,2021.2.3,Win32,60.01680471,61b8f3437b89212fae0dfadf
9,2.7308,space,1.1165,0,250,250,320,1,,,6108295fdd0270d7544b5a8a,6437761d3576902c440d3464,2023-04-12_21h28.17.436,PRaM,2021.2.3,Win32,60.01680471,61b8f3437b89212fae0dfadf
3,2.0762,space,0.387,0,251,251,77,1,,,6108295fdd0270d7544b5a8a,6437761d3576902c440d3464,2023-04-12_21h28.17.436,PRaM,2021.2.3,Win32,60.01680471,61b8f3437b89212fae0dfadf
1,2.5526,space,0.7499,0,252,252,47,1,,,6108295fdd0270d7544b5a8a,6437761d3576902c440d3464,2023-04-12_21h28.17.436,PRaM,2021.2.3,Win32,60.01680471,61b8f3437b89212fae0dfadf
3,2.1423,space,0.4145,0,253,253,219,1,,,6108295fdd0270d7544b5a8a,6437761d3576902c440d3464,2023-04-12_21h28.17.436,PRaM,2021.2.3,Win32,60.01680471,61b8f3437b89212fae0dfadf
6,2.1352,space,0.351,0,254,254,83,1,,,6108295fdd0270d7544b5a8a,6437761d3576902c440d3464,2023-04-12_21h28.17.436,PRaM,2021.2.3,Win32,60.01680471,61b8f3437b89212fae0dfadf
3,1.9753,space,0.269,0,255,255,125,1,,,6108295fdd0270d7544b5a8a,6437761d3576902c440d3464,2023-04-12_21h28.17.436,PRaM,2021.2.3,Win32,60.01680471,61b8f3437b89212fae0dfadf
8,1.9766,space,0.2999,0,256,256,137,1,,,6108295fdd0270d7544b5a8a,6437761d3576902c440d3464,2023-04-12_21h28.17.436,PRaM,2021.2.3,Win32,60.01680471,61b8f3437b89212fae0dfadf
1,1.8893,space,0.1435,0,257,257,283,1,,,6108295fdd0270d7544b5a8a,6437761d3576902c440d3464,2023-04-12_21h28.17.436,PRaM,2021.2.3,Win32,60.01680471,61b8f3437b89212fae0dfadf
1,1.3221,space,0.3099,0,258,258,189,1,,,6108295fdd0270d7544b5a8a,6437761d3576902c440d3464,2023-04-12_21h28.17.436,PRaM,2021.2.3,Win32,60.01680471,61b8f3437b89212fae0dfadf
1,1.3082,space,0.049,0,259,259,260,1,,,6108295fdd0270d7544b5a8a,6437761d3576902c440d3464,2023-04-12_21h28.17.436,PRaM,2021.2.3,Win32,60.01680471,61b8f3437b89212fae0dfadf
1,1.1753,space,0.5164,0,260,260,15,1,,,6108295fdd0270d7544b5a8a,6437761d3576902c440d3464,2023-04-12_21h28.17.436,PRaM,2021.2.3,Win32,60.01680471,61b8f3437b89212fae0dfadf
3,4.1618,space,2.5239,0,261,261,304,1,,,6108295fdd0270d7544b5a8a,6437761d3576902c440d3464,2023-04-12_21h28.17.436,PRaM,2021.2.3,Win32,60.01680471,61b8f3437b89212fae0dfadf
1,2.6783,space,0.9333,0,262,262,201,1,,,6108295fdd0270d7544b5a8a,6437761d3576902c440d3464,2023-04-12_21h28.17.436,PRaM,2021.2.3,Win32,60.01680471,61b8f3437b89212fae0dfadf
1,1.433,space,1.026,0,263,263,109,1,,,6108295fdd0270d7544b5a8a,6437761d3576902c440d3464,2023-04-12_21h28.17.436,PRaM,2021.2.3,Win32,60.01680471,61b8f3437b89212fae0dfadf
3,2.2225,space,0.5515,0,264,264,261,1,,,6108295fdd0270d7544b5a8a,6437761d3576902c440d3464,2023-04-12_21h28.17.436,PRaM,2021.2.3,Win32,60.01680471,61b8f3437b89212fae0dfadf
5,1.977,space,0.3609,0,265,265,126,1,,,6108295fdd0270d7544b5a8a,6437761d3576902c440d3464,2023-04-12_21h28.17.436,PRaM,2021.2.3,Win32,60.01680471,61b8f3437b89212fae0dfadf
1,2.0637,space,0.4205,0,266,266,195,1,,,6108295fdd0270d7544b5a8a,6437761d3576902c440d3464,2023-04-12_21h28.17.436,PRaM,2021.2.3,Win32,60.01680471,61b8f3437b89212fae0dfadf
3,1.9784,space,0.3356,0,267,267,371,1,,,6108295fdd0270d7544b5a8a,6437761d3576902c440d3464,2023-04-12_21h28.17.436,PRaM,2021.2.3,Win32,60.01680471,61b8f3437b89212fae0dfadf
3,2.9378,space,1.2964,0,268,268,93,1,,,6108295fdd0270d7544b5a8a,6437761d3576902c440d3464,2023-04-12_21h28.17.436,PRaM,2021.2.3,Win32,60.01680471,61b8f3437b89212fae0dfadf
1,2.8912,space,1.2566,0,269,269,292,1,,,6108295fdd0270d7544b5a8a,6437761d3576902c440d3464,2023-04-12_21h28.17.436,PRaM,2021.2.3,Win32,60.01680471,61b8f3437b89212fae0dfadf
1,1.6431,space,0.2337,0,270,270,121,1,,,6108295fdd0270d7544b5a8a,6437761d3576902c440d3464,2023-04-12_21h28.17.436,PRaM,2021.2.3,Win32,60.01680471,61b8f3437b89212fae0dfadf
4,2.6617,space,0.9668,0,271,271,32,1,,,6108295fdd0270d7544b5a8a,6437761d3576902c440d3464,2023-04-12_21h28.17.436,PRaM,2021.2.3,Win32,60.01680471,61b8f3437b89212fae0dfadf
6,1.6933,space,0.4585,0,272,272,211,1,,,6108295fdd0270d7544b5a8a,6437761d3576902c440d3464,2023-04-12_21h28.17.436,PRaM,2021.2.3,Win32,60.01680471,61b8f3437b89212fae0dfadf
5,2.2562,space,0.635,0,273,273,149,1,,,6108295fdd0270d7544b5a8a,6437761d3576902c440d3464,2023-04-12_21h28.17.436,PRaM,2021.2.3,Win32,60.01680471,61b8f3437b89212fae0dfadf
1,1.8589,space,0.1632,0,274,274,35,1,,,6108295fdd0270d7544b5a8a,6437761d3576902c440d3464,2023-04-12_21h28.17.436,PRaM,2021.2.3,Win32,60.01680471,61b8f3437b89212fae0dfadf
5,2.5963,space,0.9173,0,275,275,240,1,,,6108295fdd0270d7544b5a8a,6437761d3576902c440d3464,2023-04-12_21h28.17.436,PRaM,2021.2.3,Win32,60.01680471,61b8f3437b89212fae0dfadf
5,2.0986,space,0.4229,0,276,276,249,1,,,6108295fdd0270d7544b5a8a,6437761d3576902c440d3464,2023-04-12_21h28.17.436,PRaM,2021.2.3,Win32,60.01680471,61b8f3437b89212fae0dfadf
1,2.0986,space,0.421,0,277,277,34,1,,,6108295fdd0270d7544b5a8a,6437761d3576902c440d3464,2023-04-12_21h28.17.436,PRaM,2021.2.3,Win32,60.01680471,61b8f3437b89212fae0dfadf
5,2.0246,space,0.3008,0,278,278,150,1,,,6108295fdd0270d7544b5a8a,6437761d3576902c440d3464,2023-04-12_21h28.17.436,PRaM,2021.2.3,Win32,60.01680471,61b8f3437b89212fae0dfadf
1,1.8782,space,0.0833,0,279,279,97,1,,,6108295fdd0270d7544b5a8a,6437761d3576902c440d3464,2023-04-12_21h28.17.436,PRaM,2021.2.3,Win32,60.01680471,61b8f3437b89212fae0dfadf
,,space,0.2245,0,280,280,179,1,,,6108295fdd0270d7544b5a8a,6437761d3576902c440d3464,2023-04-12_21h28.17.436,PRaM,2021.2.3,Win32,60.01680471,61b8f3437b89212fae0dfadf
2,3.9693,space,2.3671,0,281,281,29,1,,,6108295fdd0270d7544b5a8a,6437761d3576902c440d3464,2023-04-12_21h28.17.436,PRaM,2021.2.3,Win32,60.01680471,61b8f3437b89212fae0dfadf
1,1.8893,space,0.1884,0,282,282,0,1,,,6108295fdd0270d7544b5a8a,6437761d3576902c440d3464,2023-04-12_21h28.17.436,PRaM,2021.2.3,Win32,60.01680471,61b8f3437b89212fae0dfadf
3,1.9486,space,0.2495,0,283,283,257,1,,,6108295fdd0270d7544b5a8a,6437761d3576902c440d3464,2023-04-12_21h28.17.436,PRaM,2021.2.3,Win32,60.01680471,61b8f3437b89212fae0dfadf
1,2.7052,space,1.1165,0,284,284,215,1,,,6108295fdd0270d7544b5a8a,6437761d3576902c440d3464,2023-04-12_21h28.17.436,PRaM,2021.2.3,Win32,60.01680471,61b8f3437b89212fae0dfadf
2,2.4208,space,0.816,0,285,285,267,1,,,6108295fdd0270d7544b5a8a,6437761d3576902c440d3464,2023-04-12_21h28.17.436,PRaM,2021.2.3,Win32,60.01680471,61b8f3437b89212fae0dfadf
5,2.3806,space,0.7367,0,286,286,40,1,,,6108295fdd0270d7544b5a8a,6437761d3576902c440d3464,2023-04-12_21h28.17.436,PRaM,2021.2.3,Win32,60.01680471,61b8f3437b89212fae0dfadf
5,1.8306,space,0.0872,0,287,287,259,1,,,6108295fdd0270d7544b5a8a,6437761d3576902c440d3464,2023-04-12_21h28.17.436,PRaM,2021.2.3,Win32,60.01680471,61b8f3437b89212fae0dfadf
6,2.325,space,0.6028,0,288,288,56,1,,,6108295fdd0270d7544b5a8a,6437761d3576902c440d3464,2023-04-12_21h28.17.436,PRaM,2021.2.3,Win32,60.01680471,61b8f3437b89212fae0dfadf
1,2.1634,space,0.488,0,289,289,318,1,,,6108295fdd0270d7544b5a8a,6437761d3576902c440d3464,2023-04-12_21h28.17.436,PRaM,2021.2.3,Win32,60.01680471,61b8f3437b89212fae0dfadf
1,2.089,space,0.3007,0,290,290,145,1,,,6108295fdd0270d7544b5a8a,6437761d3576902c440d3464,2023-04-12_21h28.17.436,PRaM,2021.2.3,Win32,60.01680471,61b8f3437b89212fae0dfadf
1,1.4083,space,0.2015,0,291,291,316,1,,,6108295fdd0270d7544b5a8a,6437761d3576902c440d3464,2023-04-12_21h28.17.436,PRaM,2021.2.3,Win32,60.01680471,61b8f3437b89212fae0dfadf
7,2.3222,space,0.5859,0,292,292,75,1,,,6108295fdd0270d7544b5a8a,6437761d3576902c440d3464,2023-04-12_21h28.17.436,PRaM,2021.2.3,Win32,60.01680471,61b8f3437b89212fae0dfadf
4,2.454,space,0.7399,0,293,293,314,1,,,6108295fdd0270d7544b5a8a,6437761d3576902c440d3464,2023-04-12_21h28.17.436,PRaM,2021.2.3,Win32,60.01680471,61b8f3437b89212fae0dfadf
6,2.2955,space,0.6008,0,294,294,350,1,,,6108295fdd0270d7544b5a8a,6437761d3576902c440d3464,2023-04-12_21h28.17.436,PRaM,2021.2.3,Win32,60.01680471,61b8f3437b89212fae0dfadf
1,1.8925,space,0.2341,0,295,295,106,1,,,6108295fdd0270d7544b5a8a,6437761d3576902c440d3464,2023-04-12_21h28.17.436,PRaM,2021.2.3,Win32,60.01680471,61b8f3437b89212fae0dfadf
1,1.5751,space,0.2368,0,296,296,91,1,,,6108295fdd0270d7544b5a8a,6437761d3576902c440d3464,2023-04-12_21h28.17.436,PRaM,2021.2.3,Win32,60.01680471,61b8f3437b89212fae0dfadf
1,1.3264,space,0.0668,0,297,297,278,1,,,6108295fdd0270d7544b5a8a,6437761d3576902c440d3464,2023-04-12_21h28.17.436,PRaM,2021.2.3,Win32,60.01680471,61b8f3437b89212fae0dfadf
2,3.5067,space,2.0448,0,298,298,138,1,,,6108295fdd0270d7544b5a8a,6437761d3576902c440d3464,2023-04-12_21h28.17.436,PRaM,2021.2.3,Win32,60.01680471,61b8f3437b89212fae0dfadf
1,1.6669,space,0.0858,0,299,299,157,1,,,6108295fdd0270d7544b5a8a,6437761d3576902c440d3464,2023-04-12_21h28.17.436,PRaM,2021.2.3,Win32,60.01680471,61b8f3437b89212fae0dfadf
1,1.6095,space,0.3211,0,300,300,245,1,,,6108295fdd0270d7544b5a8a,6437761d3576902c440d3464,2023-04-12_21h28.17.436,PRaM,2021.2.3,Win32,60.01680471,61b8f3437b89212fae0dfadf
1,1.3237,space,0.0671,0,301,301,336,1,,,6108295fdd0270d7544b5a8a,6437761d3576902c440d3464,2023-04-12_21h28.17.436,PRaM,2021.2.3,Win32,60.01680471,61b8f3437b89212fae0dfadf
8,3.063,space,1.4096,0,302,302,276,1,,,6108295fdd0270d7544b5a8a,6437761d3576902c440d3464,2023-04-12_21h28.17.436,PRaM,2021.2.3,Win32,60.01680471,61b8f3437b89212fae0dfadf
2,1.7975,space,0.0716,0,303,303,194,1,,,6108295fdd0270d7544b5a8a,6437761d3576902c440d3464,2023-04-12_21h28.17.436,PRaM,2021.2.3,Win32,60.01680471,61b8f3437b89212fae0dfadf
3,2.4824,space,0.7738,0,304,304,352,1,,,6108295fdd0270d7544b5a8a,6437761d3576902c440d3464,2023-04-12_21h28.17.436,PRaM,2021.2.3,Win32,60.01680471,61b8f3437b89212fae0dfadf
4,2.4131,space,0.6738,0,305,305,14,1,,,6108295fdd0270d7544b5a8a,6437761d3576902c440d3464,2023-04-12_21h28.17.436,PRaM,2021.2.3,Win32,60.01680471,61b8f3437b89212fae0dfadf
5,2.8381,space,1.1874,0,306,306,246,1,,,6108295fdd0270d7544b5a8a,6437761d3576902c440d3464,2023-04-12_21h28.17.436,PRaM,2021.2.3,Win32,60.01680471,61b8f3437b89212fae0dfadf
1,1.7729,space,0.1021,0,307,307,193,1,,,6108295fdd0270d7544b5a8a,6437761d3576902c440d3464,2023-04-12_21h28.17.436,PRaM,2021.2.3,Win32,60.01680471,61b8f3437b89212fae0dfadf
8,2.6071,space,0.9335,0,308,308,60,1,,,6108295fdd0270d7544b5a8a,6437761d3576902c440d3464,2023-04-12_21h28.17.436,PRaM,2021.2.3,Win32,60.01680471,61b8f3437b89212fae0dfadf
1,1.8728,space,0.1175,0,309,309,188,1,,,6108295fdd0270d7544b5a8a,6437761d3576902c440d3464,2023-04-12_21h28.17.436,PRaM,2021.2.3,Win32,60.01680471,61b8f3437b89212fae0dfadf
3,1.7756,space,0.0342,0,310,310,187,1,,,6108295fdd0270d7544b5a8a,6437761d3576902c440d3464,2023-04-12_21h28.17.436,PRaM,2021.2.3,Win32,60.01680471,61b8f3437b89212fae0dfadf
2,2.4824,space,0.7009,0,311,311,43,1,,,6108295fdd0270d7544b5a8a,6437761d3576902c440d3464,2023-04-12_21h28.17.436,PRaM,2021.2.3,Win32,60.01680471,61b8f3437b89212fae0dfadf
2,1.5219,space,0.2011,0,312,312,119,1,,,6108295fdd0270d7544b5a8a,6437761d3576902c440d3464,2023-04-12_21h28.17.436,PRaM,2021.2.3,Win32,60.01680471,61b8f3437b89212fae0dfadf
2,1.5567,space,0.3476,0,313,313,236,1,,,6108295fdd0270d7544b5a8a,6437761d3576902c440d3464,2023-04-12_21h28.17.436,PRaM,2021.2.3,Win32,60.01680471,61b8f3437b89212fae0dfadf
1,1.7452,space,0.0345,0,314,314,41,1,,,6108295fdd0270d7544b5a8a,6437761d3576902c440d3464,2023-04-12_21h28.17.436,PRaM,2021.2.3,Win32,60.01680471,61b8f3437b89212fae0dfadf
1,1.3754,space,0.1509,0,315,315,353,1,,,6108295fdd0270d7544b5a8a,6437761d3576902c440d3464,2023-04-12_21h28.17.436,PRaM,2021.2.3,Win32,60.01680471,61b8f3437b89212fae0dfadf
2,2.1981,space,0.599,0,316,316,337,1,,,6108295fdd0270d7544b5a8a,6437761d3576902c440d3464,2023-04-12_21h28.17.436,PRaM,2021.2.3,Win32,60.01680471,61b8f3437b89212fae0dfadf
6,2.1248,space,0.397,0,317,317,139,1,,,6108295fdd0270d7544b5a8a,6437761d3576902c440d3464,2023-04-12_21h28.17.436,PRaM,2021.2.3,Win32,60.01680471,61b8f3437b89212fae0dfadf
1,2.1383,space,0.4809,0,318,318,339,1,,,6108295fdd0270d7544b5a8a,6437761d3576902c440d3464,2023-04-12_21h28.17.436,PRaM,2021.2.3,Win32,60.01680471,61b8f3437b89212fae0dfadf
2,2.2806,space,0.6841,0,319,319,333,1,,,6108295fdd0270d7544b5a8a,6437761d3576902c440d3464,2023-04-12_21h28.17.436,PRaM,2021.2.3,Win32,60.01680471,61b8f3437b89212fae0dfadf
2,1.5124,space,0.228,0,320,320,141,1,,,6108295fdd0270d7544b5a8a,6437761d3576902c440d3464,2023-04-12_21h28.17.436,PRaM,2021.2.3,Win32,60.01680471,61b8f3437b89212fae0dfadf
3,2.0298,space,0.353,0,321,321,374,1,,,6108295fdd0270d7544b5a8a,6437761d3576902c440d3464,2023-04-12_21h28.17.436,PRaM,2021.2.3,Win32,60.01680471,61b8f3437b89212fae0dfadf
3,1.5857,space,0.3451,0,322,322,351,1,,,6108295fdd0270d7544b5a8a,6437761d3576902c440d3464,2023-04-12_21h28.17.436,PRaM,2021.2.3,Win32,60.01680471,61b8f3437b89212fae0dfadf
1,1.7621,space,0.0842,0,323,323,330,1,,,6108295fdd0270d7544b5a8a,6437761d3576902c440d3464,2023-04-12_21h28.17.436,PRaM,2021.2.3,Win32,60.01680471,61b8f3437b89212fae0dfadf
4,3.2292,space,1.5827,0,324,324,328,1,,,6108295fdd0270d7544b5a8a,6437761d3576902c440d3464,2023-04-12_21h28.17.436,PRaM,2021.2.3,Win32,60.01680471,61b8f3437b89212fae0dfadf
1,1.7631,space,0.0681,0,325,325,70,1,,,6108295fdd0270d7544b5a8a,6437761d3576902c440d3464,2023-04-12_21h28.17.436,PRaM,2021.2.3,Win32,60.01680471,61b8f3437b89212fae0dfadf
8,2.2102,space,0.5601,0,326,326,366,1,,,6108295fdd0270d7544b5a8a,6437761d3576902c440d3464,2023-04-12_21h28.17.436,PRaM,2021.2.3,Win32,60.01680471,61b8f3437b89212fae0dfadf
1,2.129,space,0.4495,0,327,327,290,1,,,6108295fdd0270d7544b5a8a,6437761d3576902c440d3464,2023-04-12_21h28.17.436,PRaM,2021.2.3,Win32,60.01680471,61b8f3437b89212fae0dfadf
1,1.2814,space,0.0076,0,328,328,65,1,,,6108295fdd0270d7544b5a8a,6437761d3576902c440d3464,2023-04-12_21h28.17.436,PRaM,2021.2.3,Win32,60.01680471,61b8f3437b89212fae0dfadf
1,1.3503,space,0.364,0,329,329,28,1,,,6108295fdd0270d7544b5a8a,6437761d3576902c440d3464,2023-04-12_21h28.17.436,PRaM,2021.2.3,Win32,60.01680471,61b8f3437b89212fae0dfadf
1,1.2712,space,0.2228,0,330,330,315,1,,,6108295fdd0270d7544b5a8a,6437761d3576902c440d3464,2023-04-12_21h28.17.436,PRaM,2021.2.3,Win32,60.01680471,61b8f3437b89212fae0dfadf
7,2.4674,space,0.8444,0,331,331,207,1,,,6108295fdd0270d7544b5a8a,6437761d3576902c440d3464,2023-04-12_21h28.17.436,PRaM,2021.2.3,Win32,60.01680471,61b8f3437b89212fae0dfadf
1,1.7008,space,0.212,0,332,332,329,1,,,6108295fdd0270d7544b5a8a,6437761d3576902c440d3464,2023-04-12_21h28.17.436,PRaM,2021.2.3,Win32,60.01680471,61b8f3437b89212fae0dfadf
3,2.3136,space,0.7122,0,333,333,367,1,,,6108295fdd0270d7544b5a8a,6437761d3576902c440d3464,2023-04-12_21h28.17.436,PRaM,2021.2.3,Win32,60.01680471,61b8f3437b89212fae0dfadf
1,1.5058,space,0.2511,0,334,334,247,1,,,6108295fdd0270d7544b5a8a,6437761d3576902c440d3464,2023-04-12_21h28.17.436,PRaM,2021.2.3,Win32,60.01680471,61b8f3437b89212fae0dfadf
7,2.5471,space,0.861,0,335,335,269,1,,,6108295fdd0270d7544b5a8a,6437761d3576902c440d3464,2023-04-12_21h28.17.436,PRaM,2021.2.3,Win32,60.01680471,61b8f3437b89212fae0dfadf
2,2.0235,space,0.3374,0,336,336,321,1,,,6108295fdd0270d7544b5a8a,6437761d3576902c440d3464,2023-04-12_21h28.17.436,PRaM,2021.2.3,Win32,60.01680471,61b8f3437b89212fae0dfadf
2,2.0913,space,0.4016,0,337,337,306,1,,,6108295fdd0270d7544b5a8a,6437761d3576902c440d3464,2023-04-12_21h28.17.436,PRaM,2021.2.3,Win32,60.01680471,61b8f3437b89212fae0dfadf
2,1.9463,space,0.4938,0,338,338,317,1,,,6108295fdd0270d7544b5a8a,6437761d3576902c440d3464,2023-04-12_21h28.17.436,PRaM,2021.2.3,Win32,60.01680471,61b8f3437b89212fae0dfadf
1,1.8958,space,0.1955,0,339,339,5,1,,,6108295fdd0270d7544b5a8a,6437761d3576902c440d3464,2023-04-12_21h28.17.436,PRaM,2021.2.3,Win32,60.01680471,61b8f3437b89212fae0dfadf
1,1.2971,space,0.0015,0,340,340,248,1,,,6108295fdd0270d7544b5a8a,6437761d3576902c440d3464,2023-04-12_21h28.17.436,PRaM,2021.2.3,Win32,60.01680471,61b8f3437b89212fae0dfadf
1,1.7666,space,0.1638,0,341,341,18,1,,,6108295fdd0270d7544b5a8a,6437761d3576902c440d3464,2023-04-12_21h28.17.436,PRaM,2021.2.3,Win32,60.01680471,61b8f3437b89212fae0dfadf
2,3.3388,space,1.5554,0,342,342,281,1,,,6108295fdd0270d7544b5a8a,6437761d3576902c440d3464,2023-04-12_21h28.17.436,PRaM,2021.2.3,Win32,60.01680471,61b8f3437b89212fae0dfadf
5,3.3361,space,1.6885,0,343,343,238,1,,,6108295fdd0270d7544b5a8a,6437761d3576902c440d3464,2023-04-12_21h28.17.436,PRaM,2021.2.3,Win32,60.01680471,61b8f3437b89212fae0dfadf
1,2.1859,space,0.5398,0,344,344,10,1,,,6108295fdd0270d7544b5a8a,6437761d3576902c440d3464,2023-04-12_21h28.17.436,PRaM,2021.2.3,Win32,60.01680471,61b8f3437b89212fae0dfadf
7,2.599,space,0.8839,0,345,345,3,1,,,6108295fdd0270d7544b5a8a,6437761d3576902c440d3464,2023-04-12_21h28.17.436,PRaM,2021.2.3,Win32,60.01680471,61b8f3437b89212fae0dfadf
5,2.2433,space,0.5201,0,346,346,80,1,,,6108295fdd0270d7544b5a8a,6437761d3576902c440d3464,2023-04-12_21h28.17.436,PRaM,2021.2.3,Win32,60.01680471,61b8f3437b89212fae0dfadf
1,2.6923,space,1.0564,0,347,347,251,1,,,6108295fdd0270d7544b5a8a,6437761d3576902c440d3464,2023-04-12_21h28.17.436,PRaM,2021.2.3,Win32,60.01680471,61b8f3437b89212fae0dfadf
1,1.4347,space,0.2431,0,348,348,162,1,,,6108295fdd0270d7544b5a8a,6437761d3576902c440d3464,2023-04-12_21h28.17.436,PRaM,2021.2.3,Win32,60.01680471,61b8f3437b89212fae0dfadf
1,1.8201,space,0.1593,0,349,349,98,1,,,6108295fdd0270d7544b5a8a,6437761d3576902c440d3464,2023-04-12_21h28.17.436,PRaM,2021.2.3,Win32,60.01680471,61b8f3437b89212fae0dfadf
7,2.3045,space,0.6682,0,350,350,221,1,,,6108295fdd0270d7544b5a8a,6437761d3576902c440d3464,2023-04-12_21h28.17.436,PRaM,2021.2.3,Win32,60.01680471,61b8f3437b89212fae0dfadf
1,1.6936,space,0.0329,0,351,351,158,1,,,6108295fdd0270d7544b5a8a,6437761d3576902c440d3464,2023-04-12_21h28.17.436,PRaM,2021.2.3,Win32,60.01680471,61b8f3437b89212fae0dfadf
1,1.4979,space,0.2346,0,352,352,183,1,,,6108295fdd0270d7544b5a8a,6437761d3576902c440d3464,2023-04-12_21h28.17.436,PRaM,2021.2.3,Win32,60.01680471,61b8f3437b89212fae0dfadf
3,2.544,space,0.7531,0,353,353,286,1,,,6108295fdd0270d7544b5a8a,6437761d3576902c440d3464,2023-04-12_21h28.17.436,PRaM,2021.2.3,Win32,60.01680471,61b8f3437b89212fae0dfadf
3,2.2518,space,0.5534,0,354,354,205,1,,,6108295fdd0270d7544b5a8a,6437761d3576902c440d3464,2023-04-12_21h28.17.436,PRaM,2021.2.3,Win32,60.01680471,61b8f3437b89212fae0dfadf
6,1.9622,space,0.3126,0,355,355,277,1,,,6108295fdd0270d7544b5a8a,6437761d3576902c440d3464,2023-04-12_21h28.17.436,PRaM,2021.2.3,Win32,60.01680471,61b8f3437b89212fae0dfadf
4,2.4117,space,0.6966,0,356,356,178,1,,,6108295fdd0270d7544b5a8a,6437761d3576902c440d3464,2023-04-12_21h28.17.436,PRaM,2021.2.3,Win32,60.01680471,61b8f3437b89212fae0dfadf
1,1.8927,space,0.2006,0,357,357,312,1,,,6108295fdd0270d7544b5a8a,6437761d3576902c440d3464,2023-04-12_21h28.17.436,PRaM,2021.2.3,Win32,60.01680471,61b8f3437b89212fae0dfadf
5,1.9724,space,0.2347,0,358,358,302,1,,,6108295fdd0270d7544b5a8a,6437761d3576902c440d3464,2023-04-12_21h28.17.436,PRaM,2021.2.3,Win32,60.01680471,61b8f3437b89212fae0dfadf
3,1.6745,space,0.4031,0,359,359,206,1,,,6108295fdd0270d7544b5a8a,6437761d3576902c440d3464,2023-04-12_21h28.17.436,PRaM,2021.2.3,Win32,60.01680471,61b8f3437b89212fae0dfadf
2,2.5589,space,0.8395,0,360,360,55,1,,,6108295fdd0270d7544b5a8a,6437761d3576902c440d3464,2023-04-12_21h28.17.436,PRaM,2021.2.3,Win32,60.01680471,61b8f3437b89212fae0dfadf
2,2.625,space,0.9358,0,361,361,252,1,,,6108295fdd0270d7544b5a8a,6437761d3576902c440d3464,2023-04-12_21h28.17.436,PRaM,2021.2.3,Win32,60.01680471,61b8f3437b89212fae0dfadf
1,1.6674,space,0.3172,0,362,362,95,1,,,6108295fdd0270d7544b5a8a,6437761d3576902c440d3464,2023-04-12_21h28.17.436,PRaM,2021.2.3,Win32,60.01680471,61b8f3437b89212fae0dfadf
1,1.6994,space,0.0009,0,363,363,295,1,,,6108295fdd0270d7544b5a8a,6437761d3576902c440d3464,2023-04-12_21h28.17.436,PRaM,2021.2.3,Win32,60.01680471,61b8f3437b89212fae0dfadf
1,1.2564,space,0.4063,0,364,364,217,1,,,6108295fdd0270d7544b5a8a,6437761d3576902c440d3464,2023-04-12_21h28.17.436,PRaM,2021.2.3,Win32,60.01680471,61b8f3437b89212fae0dfadf
2,2.3047,space,0.6009,0,365,365,104,1,,,6108295fdd0270d7544b5a8a,6437761d3576902c440d3464,2023-04-12_21h28.17.436,PRaM,2021.2.3,Win32,60.01680471,61b8f3437b89212fae0dfadf
1,1.6402,space,0.3328,0,366,366,23,1,,,6108295fdd0270d7544b5a8a,6437761d3576902c440d3464,2023-04-12_21h28.17.436,PRaM,2021.2.3,Win32,60.01680471,61b8f3437b89212fae0dfadf
1,1.307,space,0.0176,0,367,367,354,1,,,6108295fdd0270d7544b5a8a,6437761d3576902c440d3464,2023-04-12_21h28.17.436,PRaM,2021.2.3,Win32,60.01680471,61b8f3437b89212fae0dfadf
1,1.4772,space,0.0725,0,368,368,78,1,,,6108295fdd0270d7544b5a8a,6437761d3576902c440d3464,2023-04-12_21h28.17.436,PRaM,2021.2.3,Win32,60.01680471,61b8f3437b89212fae0dfadf
7,2.4887,space,0.8552,0,369,369,239,1,,,6108295fdd0270d7544b5a8a,6437761d3576902c440d3464,2023-04-12_21h28.17.436,PRaM,2021.2.3,Win32,60.01680471,61b8f3437b89212fae0dfadf
3,1.761,space,0.0611,0,370,370,52,1,,,6108295fdd0270d7544b5a8a,6437761d3576902c440d3464,2023-04-12_21h28.17.436,PRaM,2021.2.3,Win32,60.01680471,61b8f3437b89212fae0dfadf
6,1.8721,space,0.1881,0,371,371,177,1,,,6108295fdd0270d7544b5a8a,6437761d3576902c440d3464,2023-04-12_21h28.17.436,PRaM,2021.2.3,Win32,60.01680471,61b8f3437b89212fae0dfadf
1,1.964,space,0.201,0,372,372,234,1,,,6108295fdd0270d7544b5a8a,6437761d3576902c440d3464,2023-04-12_21h28.17.436,PRaM,2021.2.3,Win32,60.01680471,61b8f3437b89212fae0dfadf
1,1.7897,space,0.1247,0,373,373,176,1,,,6108295fdd0270d7544b5a8a,6437761d3576902c440d3464,2023-04-12_21h28.17.436,PRaM,2021.2.3,Win32,60.01680471,61b8f3437b89212fae0dfadf
1,1.4468,space,0.1682,0,374,374,258,1,,,6108295fdd0270d7544b5a8a,6437761d3576902c440d3464,2023-04-12_21h28.17.436,PRaM,2021.2.3,Win32,60.01680471,61b8f3437b89212fae0dfadf
6,2.8799,space,1.2174,0,375,375,255,1,,,6108295fdd0270d7544b5a8a,6437761d3576902c440d3464,2023-04-12_21h28.17.436,PRaM,2021.2.3,Win32,60.01680471,61b8f3437b89212fae0dfadf
2,3.797,space,2.1003,0,376,376,76,1,,,6108295fdd0270d7544b5a8a,6437761d3576902c440d3464,2023-04-12_21h28.17.436,PRaM,2021.2.3,Win32,60.01680471,61b8f3437b89212fae0dfadf
1,1.7259,space,0.0723,0,377,377,202,1,,,6108295fdd0270d7544b5a8a,6437761d3576902c440d3464,2023-04-12_21h28.17.436,PRaM,2021.2.3,Win32,60.01680471,61b8f3437b89212fae0dfadf
