Rating.response,Rating.rt,EndTrial.keys,EndTrial.rt,trials.thisRepN,trials.thisTrialN,trials.thisN,trials.thisIndex,trials.ran,Pos1,Pos2,participant,session,date,expName,psychopyVersion,OS,frameRate,study_id
1,15.8615,space,18.8048,0,0,0,195,1,,,6110db4e6d45d7849cd5231e,61b9002bb5887c717b9f8e7c,2021-12-14_20h41.27.758,PRaM,2021.2.3,Win32,49.54419342,61b8f3437b89212fae0dfade
6,11.4585,space,10.7174,0,1,1,86,1,,,6110db4e6d45d7849cd5231e,61b9002bb5887c717b9f8e7c,2021-12-14_20h41.27.758,PRaM,2021.2.3,Win32,49.54419342,61b8f3437b89212fae0dfade
1,3.8912,space,2.3799,0,2,2,329,1,,,6110db4e6d45d7849cd5231e,61b9002bb5887c717b9f8e7c,2021-12-14_20h41.27.758,PRaM,2021.2.3,Win32,49.54419342,61b8f3437b89212fae0dfade
7,3.3507,space,2.1092,0,3,3,43,1,,,6110db4e6d45d7849cd5231e,61b9002bb5887c717b9f8e7c,2021-12-14_20h41.27.758,PRaM,2021.2.3,Win32,49.54419342,61b8f3437b89212fae0dfade
7,2.4835,space,0.7538,0,4,4,56,1,,,6110db4e6d45d7849cd5231e,61b9002bb5887c717b9f8e7c,2021-12-14_20h41.27.758,PRaM,2021.2.3,Win32,49.54419342,61b8f3437b89212fae0dfade
1,2.9759,space,1.3418,0,5,5,204,1,,,6110db4e6d45d7849cd5231e,61b9002bb5887c717b9f8e7c,2021-12-14_20h41.27.758,PRaM,2021.2.3,Win32,49.54419342,61b8f3437b89212fae0dfade
3,7.3552,space,5.5143,0,6,6,110,1,,,6110db4e6d45d7849cd5231e,61b9002bb5887c717b9f8e7c,2021-12-14_20h41.27.758,PRaM,2021.2.3,Win32,49.54419342,61b8f3437b89212fae0dfade
1,2.9527,space,1.0462,0,7,7,82,1,,,6110db4e6d45d7849cd5231e,61b9002bb5887c717b9f8e7c,2021-12-14_20h41.27.758,PRaM,2021.2.3,Win32,49.54419342,61b8f3437b89212fae0dfade
1,3.8518,space,2.03,0,8,8,141,1,,,6110db4e6d45d7849cd5231e,61b9002bb5887c717b9f8e7c,2021-12-14_20h41.27.758,PRaM,2021.2.3,Win32,49.54419342,61b8f3437b89212fae0dfade
1,4.5652,space,2.7467,0,9,9,306,1,,,6110db4e6d45d7849cd5231e,61b9002bb5887c717b9f8e7c,2021-12-14_20h41.27.758,PRaM,2021.2.3,Win32,49.54419342,61b8f3437b89212fae0dfade
1,2.9463,space,1.3672,0,10,10,128,1,,,6110db4e6d45d7849cd5231e,61b9002bb5887c717b9f8e7c,2021-12-14_20h41.27.758,PRaM,2021.2.3,Win32,49.54419342,61b8f3437b89212fae0dfade
1,2.6198,space,2.3349,0,11,11,94,1,,,6110db4e6d45d7849cd5231e,61b9002bb5887c717b9f8e7c,2021-12-14_20h41.27.758,PRaM,2021.2.3,Win32,49.54419342,61b8f3437b89212fae0dfade
1,1.9421,space,0.3742,0,12,12,50,1,,,6110db4e6d45d7849cd5231e,61b9002bb5887c717b9f8e7c,2021-12-14_20h41.27.758,PRaM,2021.2.3,Win32,49.54419342,61b8f3437b89212fae0dfade
2,3.1753,space,1.4941,0,13,13,100,1,,,6110db4e6d45d7849cd5231e,61b9002bb5887c717b9f8e7c,2021-12-14_20h41.27.758,PRaM,2021.2.3,Win32,49.54419342,61b8f3437b89212fae0dfade
1,3.3074,space,1.6873,0,14,14,78,1,,,6110db4e6d45d7849cd5231e,61b9002bb5887c717b9f8e7c,2021-12-14_20h41.27.758,PRaM,2021.2.3,Win32,49.54419342,61b8f3437b89212fae0dfade
1,1.9421,space,1.4621,0,15,15,157,1,,,6110db4e6d45d7849cd5231e,61b9002bb5887c717b9f8e7c,2021-12-14_20h41.27.758,PRaM,2021.2.3,Win32,49.54419342,61b8f3437b89212fae0dfade
2,3.9896,space,2.3707,0,16,16,182,1,,,6110db4e6d45d7849cd5231e,61b9002bb5887c717b9f8e7c,2021-12-14_20h41.27.758,PRaM,2021.2.3,Win32,49.54419342,61b8f3437b89212fae0dfade
5,3.1334,space,2.0269,0,17,17,165,1,,,6110db4e6d45d7849cd5231e,61b9002bb5887c717b9f8e7c,2021-12-14_20h41.27.758,PRaM,2021.2.3,Win32,49.54419342,61b8f3437b89212fae0dfade
8,10.457,space,8.9617,0,18,18,196,1,,,6110db4e6d45d7849cd5231e,61b9002bb5887c717b9f8e7c,2021-12-14_20h41.27.758,PRaM,2021.2.3,Win32,49.54419342,61b8f3437b89212fae0dfade
1,3.8099,space,2.015,0,19,19,185,1,,,6110db4e6d45d7849cd5231e,61b9002bb5887c717b9f8e7c,2021-12-14_20h41.27.758,PRaM,2021.2.3,Win32,49.54419342,61b8f3437b89212fae0dfade
5,3.0918,space,1.1762,0,20,20,177,1,,,6110db4e6d45d7849cd5231e,61b9002bb5887c717b9f8e7c,2021-12-14_20h41.27.758,PRaM,2021.2.3,Win32,49.54419342,61b8f3437b89212fae0dfade
7,3.0846,space,1.3347,0,21,21,276,1,,,6110db4e6d45d7849cd5231e,61b9002bb5887c717b9f8e7c,2021-12-14_20h41.27.758,PRaM,2021.2.3,Win32,49.54419342,61b8f3437b89212fae0dfade
7,2.5065,space,0.7088,0,22,22,53,1,,,6110db4e6d45d7849cd5231e,61b9002bb5887c717b9f8e7c,2021-12-14_20h41.27.758,PRaM,2021.2.3,Win32,49.54419342,61b8f3437b89212fae0dfade
1,3.4387,space,1.712,0,23,23,70,1,,,6110db4e6d45d7849cd5231e,61b9002bb5887c717b9f8e7c,2021-12-14_20h41.27.758,PRaM,2021.2.3,Win32,49.54419342,61b8f3437b89212fae0dfade
1,2.0231,space,0.196,0,24,24,260,1,,,6110db4e6d45d7849cd5231e,61b9002bb5887c717b9f8e7c,2021-12-14_20h41.27.758,PRaM,2021.2.3,Win32,49.54419342,61b8f3437b89212fae0dfade
3,3.9896,space,2.1196,0,25,25,164,1,,,6110db4e6d45d7849cd5231e,61b9002bb5887c717b9f8e7c,2021-12-14_20h41.27.758,PRaM,2021.2.3,Win32,49.54419342,61b8f3437b89212fae0dfade
4,2.0246,space,0.3218,0,26,26,366,1,,,6110db4e6d45d7849cd5231e,61b9002bb5887c717b9f8e7c,2021-12-14_20h41.27.758,PRaM,2021.2.3,Win32,49.54419342,61b8f3437b89212fae0dfade
1,2.2472,space,0.4404,0,27,27,129,1,,,6110db4e6d45d7849cd5231e,61b9002bb5887c717b9f8e7c,2021-12-14_20h41.27.758,PRaM,2021.2.3,Win32,49.54419342,61b8f3437b89212fae0dfade
1,7.2472,space,5.5282,0,28,28,142,1,,,6110db4e6d45d7849cd5231e,61b9002bb5887c717b9f8e7c,2021-12-14_20h41.27.758,PRaM,2021.2.3,Win32,49.54419342,61b8f3437b89212fae0dfade
3,2.9978,space,1.2889,0,29,29,221,1,,,6110db4e6d45d7849cd5231e,61b9002bb5887c717b9f8e7c,2021-12-14_20h41.27.758,PRaM,2021.2.3,Win32,49.54419342,61b8f3437b89212fae0dfade
1,4.352,space,2.5848,0,30,30,170,1,,,6110db4e6d45d7849cd5231e,61b9002bb5887c717b9f8e7c,2021-12-14_20h41.27.758,PRaM,2021.2.3,Win32,49.54419342,61b8f3437b89212fae0dfade
1,1.903,space,0.3157,0,31,31,2,1,,,6110db4e6d45d7849cd5231e,61b9002bb5887c717b9f8e7c,2021-12-14_20h41.27.758,PRaM,2021.2.3,Win32,49.54419342,61b8f3437b89212fae0dfade
1,2.486,space,0.5902,0,32,32,230,1,,,6110db4e6d45d7849cd5231e,61b9002bb5887c717b9f8e7c,2021-12-14_20h41.27.758,PRaM,2021.2.3,Win32,49.54419342,61b8f3437b89212fae0dfade
5,5.1091,space,3.9487,0,33,33,357,1,,,6110db4e6d45d7849cd5231e,61b9002bb5887c717b9f8e7c,2021-12-14_20h41.27.758,PRaM,2021.2.3,Win32,49.54419342,61b8f3437b89212fae0dfade
1,2.6401,space,0.861,0,34,34,27,1,,,6110db4e6d45d7849cd5231e,61b9002bb5887c717b9f8e7c,2021-12-14_20h41.27.758,PRaM,2021.2.3,Win32,49.54419342,61b8f3437b89212fae0dfade
1,2.844,space,1.033,0,35,35,214,1,,,6110db4e6d45d7849cd5231e,61b9002bb5887c717b9f8e7c,2021-12-14_20h41.27.758,PRaM,2021.2.3,Win32,49.54419342,61b8f3437b89212fae0dfade
6,3.3857,space,1.9852,0,36,36,215,1,,,6110db4e6d45d7849cd5231e,61b9002bb5887c717b9f8e7c,2021-12-14_20h41.27.758,PRaM,2021.2.3,Win32,49.54419342,61b8f3437b89212fae0dfade
1,4.5548,space,2.8846,0,37,37,257,1,,,6110db4e6d45d7849cd5231e,61b9002bb5887c717b9f8e7c,2021-12-14_20h41.27.758,PRaM,2021.2.3,Win32,49.54419342,61b8f3437b89212fae0dfade
1,2.6016,space,0.7731,0,38,38,18,1,,,6110db4e6d45d7849cd5231e,61b9002bb5887c717b9f8e7c,2021-12-14_20h41.27.758,PRaM,2021.2.3,Win32,49.54419342,61b8f3437b89212fae0dfade
1,2.7601,space,1.0532,0,39,39,345,1,,,6110db4e6d45d7849cd5231e,61b9002bb5887c717b9f8e7c,2021-12-14_20h41.27.758,PRaM,2021.2.3,Win32,49.54419342,61b8f3437b89212fae0dfade
5,5.1663,space,3.8218,0,40,40,256,1,,,6110db4e6d45d7849cd5231e,61b9002bb5887c717b9f8e7c,2021-12-14_20h41.27.758,PRaM,2021.2.3,Win32,49.54419342,61b8f3437b89212fae0dfade
7,4.2463,space,2.7457,0,41,41,3,1,,,6110db4e6d45d7849cd5231e,61b9002bb5887c717b9f8e7c,2021-12-14_20h41.27.758,PRaM,2021.2.3,Win32,49.54419342,61b8f3437b89212fae0dfade
9,2.3434,space,0.7356,0,42,42,323,1,,,6110db4e6d45d7849cd5231e,61b9002bb5887c717b9f8e7c,2021-12-14_20h41.27.758,PRaM,2021.2.3,Win32,49.54419342,61b8f3437b89212fae0dfade
1,2.2022,space,0.4824,0,43,43,97,1,,,6110db4e6d45d7849cd5231e,61b9002bb5887c717b9f8e7c,2021-12-14_20h41.27.758,PRaM,2021.2.3,Win32,49.54419342,61b8f3437b89212fae0dfade
7,4.7029,space,2.9377,0,44,44,333,1,,,6110db4e6d45d7849cd5231e,61b9002bb5887c717b9f8e7c,2021-12-14_20h41.27.758,PRaM,2021.2.3,Win32,49.54419342,61b8f3437b89212fae0dfade
1,2.1658,space,0.5939,0,45,45,217,1,,,6110db4e6d45d7849cd5231e,61b9002bb5887c717b9f8e7c,2021-12-14_20h41.27.758,PRaM,2021.2.3,Win32,49.54419342,61b8f3437b89212fae0dfade
1,1.4986,space,2.8217,0,46,46,55,1,,,6110db4e6d45d7849cd5231e,61b9002bb5887c717b9f8e7c,2021-12-14_20h41.27.758,PRaM,2021.2.3,Win32,49.54419342,61b8f3437b89212fae0dfade
1,4.3696,space,2.633,0,47,47,167,1,,,6110db4e6d45d7849cd5231e,61b9002bb5887c717b9f8e7c,2021-12-14_20h41.27.758,PRaM,2021.2.3,Win32,49.54419342,61b8f3437b89212fae0dfade
1,2.1532,space,0.5907,0,48,48,266,1,,,6110db4e6d45d7849cd5231e,61b9002bb5887c717b9f8e7c,2021-12-14_20h41.27.758,PRaM,2021.2.3,Win32,49.54419342,61b8f3437b89212fae0dfade
1,2.9353,space,1.1941,0,49,49,287,1,,,6110db4e6d45d7849cd5231e,61b9002bb5887c717b9f8e7c,2021-12-14_20h41.27.758,PRaM,2021.2.3,Win32,49.54419342,61b8f3437b89212fae0dfade
9,4.1268,space,2.3832,0,50,50,339,1,,,6110db4e6d45d7849cd5231e,61b9002bb5887c717b9f8e7c,2021-12-14_20h41.27.758,PRaM,2021.2.3,Win32,49.54419342,61b8f3437b89212fae0dfade
3,3.5707,space,1.7635,0,51,51,238,1,,,6110db4e6d45d7849cd5231e,61b9002bb5887c717b9f8e7c,2021-12-14_20h41.27.758,PRaM,2021.2.3,Win32,49.54419342,61b8f3437b89212fae0dfade
1,3.5313,space,1.7706,0,52,52,189,1,,,6110db4e6d45d7849cd5231e,61b9002bb5887c717b9f8e7c,2021-12-14_20h41.27.758,PRaM,2021.2.3,Win32,49.54419342,61b8f3437b89212fae0dfade
1,4.4332,space,2.5945,0,53,53,106,1,,,6110db4e6d45d7849cd5231e,61b9002bb5887c717b9f8e7c,2021-12-14_20h41.27.758,PRaM,2021.2.3,Win32,49.54419342,61b8f3437b89212fae0dfade
1,4.1552,space,2.3424,0,54,54,190,1,,,6110db4e6d45d7849cd5231e,61b9002bb5887c717b9f8e7c,2021-12-14_20h41.27.758,PRaM,2021.2.3,Win32,49.54419342,61b8f3437b89212fae0dfade
1,3.0427,space,1.2533,0,55,55,283,1,,,6110db4e6d45d7849cd5231e,61b9002bb5887c717b9f8e7c,2021-12-14_20h41.27.758,PRaM,2021.2.3,Win32,49.54419342,61b8f3437b89212fae0dfade
9,3.3711,space,1.6553,0,56,56,64,1,,,6110db4e6d45d7849cd5231e,61b9002bb5887c717b9f8e7c,2021-12-14_20h41.27.758,PRaM,2021.2.3,Win32,49.54419342,61b8f3437b89212fae0dfade
9,2.5162,space,0.671,0,57,57,197,1,,,6110db4e6d45d7849cd5231e,61b9002bb5887c717b9f8e7c,2021-12-14_20h41.27.758,PRaM,2021.2.3,Win32,49.54419342,61b8f3437b89212fae0dfade
1,3.8428,space,2.2024,0,58,58,316,1,,,6110db4e6d45d7849cd5231e,61b9002bb5887c717b9f8e7c,2021-12-14_20h41.27.758,PRaM,2021.2.3,Win32,49.54419342,61b8f3437b89212fae0dfade
1,3.2854,space,1.644,0,59,59,309,1,,,6110db4e6d45d7849cd5231e,61b9002bb5887c717b9f8e7c,2021-12-14_20h41.27.758,PRaM,2021.2.3,Win32,49.54419342,61b8f3437b89212fae0dfade
1,4.1868,space,2.4908,0,60,60,240,1,,,6110db4e6d45d7849cd5231e,61b9002bb5887c717b9f8e7c,2021-12-14_20h41.27.758,PRaM,2021.2.3,Win32,49.54419342,61b8f3437b89212fae0dfade
1,2.9512,space,1.348,0,61,61,356,1,,,6110db4e6d45d7849cd5231e,61b9002bb5887c717b9f8e7c,2021-12-14_20h41.27.758,PRaM,2021.2.3,Win32,49.54419342,61b8f3437b89212fae0dfade
1,2.0898,space,0.3917,0,62,62,99,1,,,6110db4e6d45d7849cd5231e,61b9002bb5887c717b9f8e7c,2021-12-14_20h41.27.758,PRaM,2021.2.3,Win32,49.54419342,61b8f3437b89212fae0dfade
1,1.8641,space,0.1797,0,63,63,155,1,,,6110db4e6d45d7849cd5231e,61b9002bb5887c717b9f8e7c,2021-12-14_20h41.27.758,PRaM,2021.2.3,Win32,49.54419342,61b8f3437b89212fae0dfade
1,1.9165,space,0.4229,0,64,64,101,1,,,6110db4e6d45d7849cd5231e,61b9002bb5887c717b9f8e7c,2021-12-14_20h41.27.758,PRaM,2021.2.3,Win32,49.54419342,61b8f3437b89212fae0dfade
6,2.6989,space,1.0927,0,65,65,60,1,,,6110db4e6d45d7849cd5231e,61b9002bb5887c717b9f8e7c,2021-12-14_20h41.27.758,PRaM,2021.2.3,Win32,49.54419342,61b8f3437b89212fae0dfade
1,3.9201,space,2.1015,0,66,66,34,1,,,6110db4e6d45d7849cd5231e,61b9002bb5887c717b9f8e7c,2021-12-14_20h41.27.758,PRaM,2021.2.3,Win32,49.54419342,61b8f3437b89212fae0dfade
2,2.3129,space,0.4721,0,67,67,270,1,,,6110db4e6d45d7849cd5231e,61b9002bb5887c717b9f8e7c,2021-12-14_20h41.27.758,PRaM,2021.2.3,Win32,49.54419342,61b8f3437b89212fae0dfade
1,3.5871,space,1.8759,0,68,68,338,1,,,6110db4e6d45d7849cd5231e,61b9002bb5887c717b9f8e7c,2021-12-14_20h41.27.758,PRaM,2021.2.3,Win32,49.54419342,61b8f3437b89212fae0dfade
2,4.2484,space,2.7273,0,69,69,216,1,,,6110db4e6d45d7849cd5231e,61b9002bb5887c717b9f8e7c,2021-12-14_20h41.27.758,PRaM,2021.2.3,Win32,49.54419342,61b8f3437b89212fae0dfade
1,6.4788,space,4.817,0,70,70,116,1,,,6110db4e6d45d7849cd5231e,61b9002bb5887c717b9f8e7c,2021-12-14_20h41.27.758,PRaM,2021.2.3,Win32,49.54419342,61b8f3437b89212fae0dfade
6,10.404,space,8.7451,0,71,71,51,1,,,6110db4e6d45d7849cd5231e,61b9002bb5887c717b9f8e7c,2021-12-14_20h41.27.758,PRaM,2021.2.3,Win32,49.54419342,61b8f3437b89212fae0dfade
5,5.2476,space,3.4374,0,72,72,264,1,,,6110db4e6d45d7849cd5231e,61b9002bb5887c717b9f8e7c,2021-12-14_20h41.27.758,PRaM,2021.2.3,Win32,49.54419342,61b8f3437b89212fae0dfade
6,1.8436,space,0.0372,0,73,73,331,1,,,6110db4e6d45d7849cd5231e,61b9002bb5887c717b9f8e7c,2021-12-14_20h41.27.758,PRaM,2021.2.3,Win32,49.54419342,61b8f3437b89212fae0dfade
8,4.2632,space,2.6677,0,74,74,144,1,,,6110db4e6d45d7849cd5231e,61b9002bb5887c717b9f8e7c,2021-12-14_20h41.27.758,PRaM,2021.2.3,Win32,49.54419342,61b8f3437b89212fae0dfade
1,2.0065,space,0.2173,0,75,75,268,1,,,6110db4e6d45d7849cd5231e,61b9002bb5887c717b9f8e7c,2021-12-14_20h41.27.758,PRaM,2021.2.3,Win32,49.54419342,61b8f3437b89212fae0dfade
1,1.6577,space,1.5128,0,76,76,96,1,,,6110db4e6d45d7849cd5231e,61b9002bb5887c717b9f8e7c,2021-12-14_20h41.27.758,PRaM,2021.2.3,Win32,49.54419342,61b8f3437b89212fae0dfade
1,2.7496,space,1.2689,0,77,77,35,1,,,6110db4e6d45d7849cd5231e,61b9002bb5887c717b9f8e7c,2021-12-14_20h41.27.758,PRaM,2021.2.3,Win32,49.54419342,61b8f3437b89212fae0dfade
2,2.5937,space,1.0014,0,78,78,296,1,,,6110db4e6d45d7849cd5231e,61b9002bb5887c717b9f8e7c,2021-12-14_20h41.27.758,PRaM,2021.2.3,Win32,49.54419342,61b8f3437b89212fae0dfade
5,2.946,space,1.1066,0,79,79,133,1,,,6110db4e6d45d7849cd5231e,61b9002bb5887c717b9f8e7c,2021-12-14_20h41.27.758,PRaM,2021.2.3,Win32,49.54419342,61b8f3437b89212fae0dfade
1,1.9887,space,0.1803,0,80,80,191,1,,,6110db4e6d45d7849cd5231e,61b9002bb5887c717b9f8e7c,2021-12-14_20h41.27.758,PRaM,2021.2.3,Win32,49.54419342,61b8f3437b89212fae0dfade
9,6.3209,space,4.8492,0,81,81,14,1,,,6110db4e6d45d7849cd5231e,61b9002bb5887c717b9f8e7c,2021-12-14_20h41.27.758,PRaM,2021.2.3,Win32,49.54419342,61b8f3437b89212fae0dfade
1,2.2654,space,0.7407,0,82,82,232,1,,,6110db4e6d45d7849cd5231e,61b9002bb5887c717b9f8e7c,2021-12-14_20h41.27.758,PRaM,2021.2.3,Win32,49.54419342,61b8f3437b89212fae0dfade
1,2.2763,space,0.5542,0,83,83,247,1,,,6110db4e6d45d7849cd5231e,61b9002bb5887c717b9f8e7c,2021-12-14_20h41.27.758,PRaM,2021.2.3,Win32,49.54419342,61b8f3437b89212fae0dfade
7,6.1927,space,4.462,0,84,84,202,1,,,6110db4e6d45d7849cd5231e,61b9002bb5887c717b9f8e7c,2021-12-14_20h41.27.758,PRaM,2021.2.3,Win32,49.54419342,61b8f3437b89212fae0dfade
9,2.7246,space,1.0224,0,85,85,278,1,,,6110db4e6d45d7849cd5231e,61b9002bb5887c717b9f8e7c,2021-12-14_20h41.27.758,PRaM,2021.2.3,Win32,49.54419342,61b8f3437b89212fae0dfade
9,4.1568,space,2.5424,0,86,86,313,1,,,6110db4e6d45d7849cd5231e,61b9002bb5887c717b9f8e7c,2021-12-14_20h41.27.758,PRaM,2021.2.3,Win32,49.54419342,61b8f3437b89212fae0dfade
1,3.4419,space,1.7467,0,87,87,212,1,,,6110db4e6d45d7849cd5231e,61b9002bb5887c717b9f8e7c,2021-12-14_20h41.27.758,PRaM,2021.2.3,Win32,49.54419342,61b8f3437b89212fae0dfade
6,2.955,space,1.2541,0,88,88,244,1,,,6110db4e6d45d7849cd5231e,61b9002bb5887c717b9f8e7c,2021-12-14_20h41.27.758,PRaM,2021.2.3,Win32,49.54419342,61b8f3437b89212fae0dfade
1,2.714,space,1.1106,0,89,89,161,1,,,6110db4e6d45d7849cd5231e,61b9002bb5887c717b9f8e7c,2021-12-14_20h41.27.758,PRaM,2021.2.3,Win32,49.54419342,61b8f3437b89212fae0dfade
7,3.0224,space,1.2902,0,90,90,277,1,,,6110db4e6d45d7849cd5231e,61b9002bb5887c717b9f8e7c,2021-12-14_20h41.27.758,PRaM,2021.2.3,Win32,49.54419342,61b8f3437b89212fae0dfade
6,4.2415,space,2.4746,0,91,91,112,1,,,6110db4e6d45d7849cd5231e,61b9002bb5887c717b9f8e7c,2021-12-14_20h41.27.758,PRaM,2021.2.3,Win32,49.54419342,61b8f3437b89212fae0dfade
1,2.1033,space,0.3429,0,92,92,184,1,,,6110db4e6d45d7849cd5231e,61b9002bb5887c717b9f8e7c,2021-12-14_20h41.27.758,PRaM,2021.2.3,Win32,49.54419342,61b8f3437b89212fae0dfade
2,3.544,space,1.7141,0,93,93,258,1,,,6110db4e6d45d7849cd5231e,61b9002bb5887c717b9f8e7c,2021-12-14_20h41.27.758,PRaM,2021.2.3,Win32,49.54419342,61b8f3437b89212fae0dfade
1,7.0453,space,5.2465,0,94,94,6,1,,,6110db4e6d45d7849cd5231e,61b9002bb5887c717b9f8e7c,2021-12-14_20h41.27.758,PRaM,2021.2.3,Win32,49.54419342,61b8f3437b89212fae0dfade
1,1.5308,space,0.52,0,95,95,111,1,,,6110db4e6d45d7849cd5231e,61b9002bb5887c717b9f8e7c,2021-12-14_20h41.27.758,PRaM,2021.2.3,Win32,49.54419342,61b8f3437b89212fae0dfade
1,1.7715,space,0.0699,0,96,96,341,1,,,6110db4e6d45d7849cd5231e,61b9002bb5887c717b9f8e7c,2021-12-14_20h41.27.758,PRaM,2021.2.3,Win32,49.54419342,61b8f3437b89212fae0dfade
1,1.3037,space,0.3939,0,97,97,362,1,,,6110db4e6d45d7849cd5231e,61b9002bb5887c717b9f8e7c,2021-12-14_20h41.27.758,PRaM,2021.2.3,Win32,49.54419342,61b8f3437b89212fae0dfade
5,2.726,space,1.2463,0,98,98,127,1,,,6110db4e6d45d7849cd5231e,61b9002bb5887c717b9f8e7c,2021-12-14_20h41.27.758,PRaM,2021.2.3,Win32,49.54419342,61b8f3437b89212fae0dfade
6,2.7979,space,1.1538,0,99,99,198,1,,,6110db4e6d45d7849cd5231e,61b9002bb5887c717b9f8e7c,2021-12-14_20h41.27.758,PRaM,2021.2.3,Win32,49.54419342,61b8f3437b89212fae0dfade
1,1.7436,space,0.0874,0,100,100,95,1,,,6110db4e6d45d7849cd5231e,61b9002bb5887c717b9f8e7c,2021-12-14_20h41.27.758,PRaM,2021.2.3,Win32,49.54419342,61b8f3437b89212fae0dfade
9,3.7226,space,2.1109,0,101,101,20,1,,,6110db4e6d45d7849cd5231e,61b9002bb5887c717b9f8e7c,2021-12-14_20h41.27.758,PRaM,2021.2.3,Win32,49.54419342,61b8f3437b89212fae0dfade
2,4.435,space,2.627,0,102,102,208,1,,,6110db4e6d45d7849cd5231e,61b9002bb5887c717b9f8e7c,2021-12-14_20h41.27.758,PRaM,2021.2.3,Win32,49.54419342,61b8f3437b89212fae0dfade
1,1.9089,space,0.3028,0,103,103,124,1,,,6110db4e6d45d7849cd5231e,61b9002bb5887c717b9f8e7c,2021-12-14_20h41.27.758,PRaM,2021.2.3,Win32,49.54419342,61b8f3437b89212fae0dfade
1,1.7432,space,0.0358,0,104,104,317,1,,,6110db4e6d45d7849cd5231e,61b9002bb5887c717b9f8e7c,2021-12-14_20h41.27.758,PRaM,2021.2.3,Win32,49.54419342,61b8f3437b89212fae0dfade
1,1.3835,space,0.536,0,105,105,377,1,,,6110db4e6d45d7849cd5231e,61b9002bb5887c717b9f8e7c,2021-12-14_20h41.27.758,PRaM,2021.2.3,Win32,49.54419342,61b8f3437b89212fae0dfade
2,3.583,space,1.7757,0,106,106,321,1,,,6110db4e6d45d7849cd5231e,61b9002bb5887c717b9f8e7c,2021-12-14_20h41.27.758,PRaM,2021.2.3,Win32,49.54419342,61b8f3437b89212fae0dfade
2,2.9964,space,1.2883,0,107,107,76,1,,,6110db4e6d45d7849cd5231e,61b9002bb5887c717b9f8e7c,2021-12-14_20h41.27.758,PRaM,2021.2.3,Win32,49.54419342,61b8f3437b89212fae0dfade
1,3.8117,space,2.1529,0,108,108,347,1,,,6110db4e6d45d7849cd5231e,61b9002bb5887c717b9f8e7c,2021-12-14_20h41.27.758,PRaM,2021.2.3,Win32,49.54419342,61b8f3437b89212fae0dfade
6,2.1632,space,0.4919,0,109,109,324,1,,,6110db4e6d45d7849cd5231e,61b9002bb5887c717b9f8e7c,2021-12-14_20h41.27.758,PRaM,2021.2.3,Win32,49.54419342,61b8f3437b89212fae0dfade
1,3.5954,space,1.9919,0,110,110,119,1,,,6110db4e6d45d7849cd5231e,61b9002bb5887c717b9f8e7c,2021-12-14_20h41.27.758,PRaM,2021.2.3,Win32,49.54419342,61b8f3437b89212fae0dfade
1,1.6997,space,0.0931,0,111,111,289,1,,,6110db4e6d45d7849cd5231e,61b9002bb5887c717b9f8e7c,2021-12-14_20h41.27.758,PRaM,2021.2.3,Win32,49.54419342,61b8f3437b89212fae0dfade
1,1.5021,space,2.6523,0,112,112,370,1,,,6110db4e6d45d7849cd5231e,61b9002bb5887c717b9f8e7c,2021-12-14_20h41.27.758,PRaM,2021.2.3,Win32,49.54419342,61b8f3437b89212fae0dfade
1,4.1505,space,2.5167,0,113,113,312,1,,,6110db4e6d45d7849cd5231e,61b9002bb5887c717b9f8e7c,2021-12-14_20h41.27.758,PRaM,2021.2.3,Win32,49.54419342,61b8f3437b89212fae0dfade
1,1.8461,space,0.1615,0,114,114,359,1,,,6110db4e6d45d7849cd5231e,61b9002bb5887c717b9f8e7c,2021-12-14_20h41.27.758,PRaM,2021.2.3,Win32,49.54419342,61b8f3437b89212fae0dfade
1,2.2374,space,1.016,0,115,115,307,1,,,6110db4e6d45d7849cd5231e,61b9002bb5887c717b9f8e7c,2021-12-14_20h41.27.758,PRaM,2021.2.3,Win32,49.54419342,61b8f3437b89212fae0dfade
1,2.35,space,1.4097,0,116,116,239,1,,,6110db4e6d45d7849cd5231e,61b9002bb5887c717b9f8e7c,2021-12-14_20h41.27.758,PRaM,2021.2.3,Win32,49.54419342,61b8f3437b89212fae0dfade
1,3.1805,space,2.7289,0,117,117,273,1,,,6110db4e6d45d7849cd5231e,61b9002bb5887c717b9f8e7c,2021-12-14_20h41.27.758,PRaM,2021.2.3,Win32,49.54419342,61b8f3437b89212fae0dfade
1,4.2319,space,2.5374,0,118,118,303,1,,,6110db4e6d45d7849cd5231e,61b9002bb5887c717b9f8e7c,2021-12-14_20h41.27.758,PRaM,2021.2.3,Win32,49.54419342,61b8f3437b89212fae0dfade
5,3.4155,space,1.6896,0,119,119,304,1,,,6110db4e6d45d7849cd5231e,61b9002bb5887c717b9f8e7c,2021-12-14_20h41.27.758,PRaM,2021.2.3,Win32,49.54419342,61b8f3437b89212fae0dfade
1,1.7979,space,0.0422,0,120,120,371,1,,,6110db4e6d45d7849cd5231e,61b9002bb5887c717b9f8e7c,2021-12-14_20h41.27.758,PRaM,2021.2.3,Win32,49.54419342,61b8f3437b89212fae0dfade
1,1.5906,space,0.4492,0,121,121,251,1,,,6110db4e6d45d7849cd5231e,61b9002bb5887c717b9f8e7c,2021-12-14_20h41.27.758,PRaM,2021.2.3,Win32,49.54419342,61b8f3437b89212fae0dfade
1,1.772,space,0.4414,0,122,122,246,1,,,6110db4e6d45d7849cd5231e,61b9002bb5887c717b9f8e7c,2021-12-14_20h41.27.758,PRaM,2021.2.3,Win32,49.54419342,61b8f3437b89212fae0dfade
2,2.4939,space,1.1851,0,123,123,75,1,,,6110db4e6d45d7849cd5231e,61b9002bb5887c717b9f8e7c,2021-12-14_20h41.27.758,PRaM,2021.2.3,Win32,49.54419342,61b8f3437b89212fae0dfade
1,2.4584,space,0.6532,0,124,124,68,1,,,6110db4e6d45d7849cd5231e,61b9002bb5887c717b9f8e7c,2021-12-14_20h41.27.758,PRaM,2021.2.3,Win32,49.54419342,61b8f3437b89212fae0dfade
5,4.0216,space,2.2851,0,125,125,74,1,,,6110db4e6d45d7849cd5231e,61b9002bb5887c717b9f8e7c,2021-12-14_20h41.27.758,PRaM,2021.2.3,Win32,49.54419342,61b8f3437b89212fae0dfade
1,2.4618,space,0.7736,0,126,126,41,1,,,6110db4e6d45d7849cd5231e,61b9002bb5887c717b9f8e7c,2021-12-14_20h41.27.758,PRaM,2021.2.3,Win32,49.54419342,61b8f3437b89212fae0dfade
2,5.0367,space,3.4135,0,127,127,233,1,,,6110db4e6d45d7849cd5231e,61b9002bb5887c717b9f8e7c,2021-12-14_20h41.27.758,PRaM,2021.2.3,Win32,49.54419342,61b8f3437b89212fae0dfade
1,1.5287,space,0.4299,0,128,128,332,1,,,6110db4e6d45d7849cd5231e,61b9002bb5887c717b9f8e7c,2021-12-14_20h41.27.758,PRaM,2021.2.3,Win32,49.54419342,61b8f3437b89212fae0dfade
1,2.2709,space,0.569,0,129,129,293,1,,,6110db4e6d45d7849cd5231e,61b9002bb5887c717b9f8e7c,2021-12-14_20h41.27.758,PRaM,2021.2.3,Win32,49.54419342,61b8f3437b89212fae0dfade
2,2.4726,space,0.8101,0,130,130,222,1,,,6110db4e6d45d7849cd5231e,61b9002bb5887c717b9f8e7c,2021-12-14_20h41.27.758,PRaM,2021.2.3,Win32,49.54419342,61b8f3437b89212fae0dfade
1,4.1428,space,2.969,0,131,131,367,1,,,6110db4e6d45d7849cd5231e,61b9002bb5887c717b9f8e7c,2021-12-14_20h41.27.758,PRaM,2021.2.3,Win32,49.54419342,61b8f3437b89212fae0dfade
5,3.646,space,1.8896,0,132,132,139,1,,,6110db4e6d45d7849cd5231e,61b9002bb5887c717b9f8e7c,2021-12-14_20h41.27.758,PRaM,2021.2.3,Win32,49.54419342,61b8f3437b89212fae0dfade
1,2.3491,space,0.5944,0,133,133,346,1,,,6110db4e6d45d7849cd5231e,61b9002bb5887c717b9f8e7c,2021-12-14_20h41.27.758,PRaM,2021.2.3,Win32,49.54419342,61b8f3437b89212fae0dfade
1,2.4509,space,0.7906,0,134,134,322,1,,,6110db4e6d45d7849cd5231e,61b9002bb5887c717b9f8e7c,2021-12-14_20h41.27.758,PRaM,2021.2.3,Win32,49.54419342,61b8f3437b89212fae0dfade
5,2.7933,space,1.1063,0,135,135,335,1,,,6110db4e6d45d7849cd5231e,61b9002bb5887c717b9f8e7c,2021-12-14_20h41.27.758,PRaM,2021.2.3,Win32,49.54419342,61b8f3437b89212fae0dfade
1,2.975,space,1.2471,0,136,136,187,1,,,6110db4e6d45d7849cd5231e,61b9002bb5887c717b9f8e7c,2021-12-14_20h41.27.758,PRaM,2021.2.3,Win32,49.54419342,61b8f3437b89212fae0dfade
1,1.3873,space,0.2146,0,137,137,183,1,,,6110db4e6d45d7849cd5231e,61b9002bb5887c717b9f8e7c,2021-12-14_20h41.27.758,PRaM,2021.2.3,Win32,49.54419342,61b8f3437b89212fae0dfade
4,5.9302,space,4.1264,0,138,138,350,1,,,6110db4e6d45d7849cd5231e,61b9002bb5887c717b9f8e7c,2021-12-14_20h41.27.758,PRaM,2021.2.3,Win32,49.54419342,61b8f3437b89212fae0dfade
1,2.5249,space,0.7114,0,139,139,365,1,,,6110db4e6d45d7849cd5231e,61b9002bb5887c717b9f8e7c,2021-12-14_20h41.27.758,PRaM,2021.2.3,Win32,49.54419342,61b8f3437b89212fae0dfade
,,space,1.7944,0,140,140,374,1,,,6110db4e6d45d7849cd5231e,61b9002bb5887c717b9f8e7c,2021-12-14_20h41.27.758,PRaM,2021.2.3,Win32,49.54419342,61b8f3437b89212fae0dfade
1,5.3038,space,3.6474,0,141,141,122,1,,,6110db4e6d45d7849cd5231e,61b9002bb5887c717b9f8e7c,2021-12-14_20h41.27.758,PRaM,2021.2.3,Win32,49.54419342,61b8f3437b89212fae0dfade
9,2.4619,space,0.9418,0,142,142,285,1,,,6110db4e6d45d7849cd5231e,61b9002bb5887c717b9f8e7c,2021-12-14_20h41.27.758,PRaM,2021.2.3,Win32,49.54419342,61b8f3437b89212fae0dfade
5,3.2633,space,1.9668,0,143,143,301,1,,,6110db4e6d45d7849cd5231e,61b9002bb5887c717b9f8e7c,2021-12-14_20h41.27.758,PRaM,2021.2.3,Win32,49.54419342,61b8f3437b89212fae0dfade
1,2.6063,space,0.8714,0,144,144,72,1,,,6110db4e6d45d7849cd5231e,61b9002bb5887c717b9f8e7c,2021-12-14_20h41.27.758,PRaM,2021.2.3,Win32,49.54419342,61b8f3437b89212fae0dfade
7,3.1386,space,1.4473,0,145,145,42,1,,,6110db4e6d45d7849cd5231e,61b9002bb5887c717b9f8e7c,2021-12-14_20h41.27.758,PRaM,2021.2.3,Win32,49.54419342,61b8f3437b89212fae0dfade
1,3.5421,space,1.7518,0,146,146,194,1,,,6110db4e6d45d7849cd5231e,61b9002bb5887c717b9f8e7c,2021-12-14_20h41.27.758,PRaM,2021.2.3,Win32,49.54419342,61b8f3437b89212fae0dfade
1,3.4737,space,1.7559,0,147,147,169,1,,,6110db4e6d45d7849cd5231e,61b9002bb5887c717b9f8e7c,2021-12-14_20h41.27.758,PRaM,2021.2.3,Win32,49.54419342,61b8f3437b89212fae0dfade
7,3.8688,space,2.3676,0,148,148,33,1,,,6110db4e6d45d7849cd5231e,61b9002bb5887c717b9f8e7c,2021-12-14_20h41.27.758,PRaM,2021.2.3,Win32,49.54419342,61b8f3437b89212fae0dfade
1,1.6413,space,0.0486,0,149,149,36,1,,,6110db4e6d45d7849cd5231e,61b9002bb5887c717b9f8e7c,2021-12-14_20h41.27.758,PRaM,2021.2.3,Win32,49.54419342,61b8f3437b89212fae0dfade
1,1.8621,space,0.104,0,150,150,369,1,,,6110db4e6d45d7849cd5231e,61b9002bb5887c717b9f8e7c,2021-12-14_20h41.27.758,PRaM,2021.2.3,Win32,49.54419342,61b8f3437b89212fae0dfade
1,4.6274,space,2.908,0,151,151,337,1,,,6110db4e6d45d7849cd5231e,61b9002bb5887c717b9f8e7c,2021-12-14_20h41.27.758,PRaM,2021.2.3,Win32,49.54419342,61b8f3437b89212fae0dfade
1,7.2091,space,5.5491,0,152,152,123,1,,,6110db4e6d45d7849cd5231e,61b9002bb5887c717b9f8e7c,2021-12-14_20h41.27.758,PRaM,2021.2.3,Win32,49.54419342,61b8f3437b89212fae0dfade
1,1.993,space,0.3276,0,153,153,160,1,,,6110db4e6d45d7849cd5231e,61b9002bb5887c717b9f8e7c,2021-12-14_20h41.27.758,PRaM,2021.2.3,Win32,49.54419342,61b8f3437b89212fae0dfade
2,3.2068,space,1.5124,0,154,154,336,1,,,6110db4e6d45d7849cd5231e,61b9002bb5887c717b9f8e7c,2021-12-14_20h41.27.758,PRaM,2021.2.3,Win32,49.54419342,61b8f3437b89212fae0dfade
1,2.5299,space,0.7958,0,155,155,22,1,,,6110db4e6d45d7849cd5231e,61b9002bb5887c717b9f8e7c,2021-12-14_20h41.27.758,PRaM,2021.2.3,Win32,49.54419342,61b8f3437b89212fae0dfade
6,3.1736,space,1.5328,0,156,156,61,1,,,6110db4e6d45d7849cd5231e,61b9002bb5887c717b9f8e7c,2021-12-14_20h41.27.758,PRaM,2021.2.3,Win32,49.54419342,61b8f3437b89212fae0dfade
,,space,0.453,0,157,157,174,1,,,6110db4e6d45d7849cd5231e,61b9002bb5887c717b9f8e7c,2021-12-14_20h41.27.758,PRaM,2021.2.3,Win32,49.54419342,61b8f3437b89212fae0dfade
1,2.6948,space,1.0455,0,158,158,220,1,,,6110db4e6d45d7849cd5231e,61b9002bb5887c717b9f8e7c,2021-12-14_20h41.27.758,PRaM,2021.2.3,Win32,49.54419342,61b8f3437b89212fae0dfade
6,2.864,space,1.3133,0,159,159,66,1,,,6110db4e6d45d7849cd5231e,61b9002bb5887c717b9f8e7c,2021-12-14_20h41.27.758,PRaM,2021.2.3,Win32,49.54419342,61b8f3437b89212fae0dfade
1,2.4428,space,0.7325,0,160,160,219,1,,,6110db4e6d45d7849cd5231e,61b9002bb5887c717b9f8e7c,2021-12-14_20h41.27.758,PRaM,2021.2.3,Win32,49.54419342,61b8f3437b89212fae0dfade
4,2.2654,space,0.5008,0,161,161,199,1,,,6110db4e6d45d7849cd5231e,61b9002bb5887c717b9f8e7c,2021-12-14_20h41.27.758,PRaM,2021.2.3,Win32,49.54419342,61b8f3437b89212fae0dfade
7,4.1227,space,2.4327,0,162,162,213,1,,,6110db4e6d45d7849cd5231e,61b9002bb5887c717b9f8e7c,2021-12-14_20h41.27.758,PRaM,2021.2.3,Win32,49.54419342,61b8f3437b89212fae0dfade
1,3.6723,space,2.0448,0,163,163,288,1,,,6110db4e6d45d7849cd5231e,61b9002bb5887c717b9f8e7c,2021-12-14_20h41.27.758,PRaM,2021.2.3,Win32,49.54419342,61b8f3437b89212fae0dfade
1,2.5339,space,1.0578,0,164,164,234,1,,,6110db4e6d45d7849cd5231e,61b9002bb5887c717b9f8e7c,2021-12-14_20h41.27.758,PRaM,2021.2.3,Win32,49.54419342,61b8f3437b89212fae0dfade
1,2.2774,space,0.6252,0,165,165,1,1,,,6110db4e6d45d7849cd5231e,61b9002bb5887c717b9f8e7c,2021-12-14_20h41.27.758,PRaM,2021.2.3,Win32,49.54419342,61b8f3437b89212fae0dfade
5,4.1839,space,2.477,0,166,166,228,1,,,6110db4e6d45d7849cd5231e,61b9002bb5887c717b9f8e7c,2021-12-14_20h41.27.758,PRaM,2021.2.3,Win32,49.54419342,61b8f3437b89212fae0dfade
1,3.9844,space,2.5296,0,167,167,271,1,,,6110db4e6d45d7849cd5231e,61b9002bb5887c717b9f8e7c,2021-12-14_20h41.27.758,PRaM,2021.2.3,Win32,49.54419342,61b8f3437b89212fae0dfade
1,1.4885,space,0.3856,0,168,168,126,1,,,6110db4e6d45d7849cd5231e,61b9002bb5887c717b9f8e7c,2021-12-14_20h41.27.758,PRaM,2021.2.3,Win32,49.54419342,61b8f3437b89212fae0dfade
1,1.2898,space,0.342,0,169,169,30,1,,,6110db4e6d45d7849cd5231e,61b9002bb5887c717b9f8e7c,2021-12-14_20h41.27.758,PRaM,2021.2.3,Win32,49.54419342,61b8f3437b89212fae0dfade
1,1.0317,space,8.2258,0,170,170,26,1,,,6110db4e6d45d7849cd5231e,61b9002bb5887c717b9f8e7c,2021-12-14_20h41.27.758,PRaM,2021.2.3,Win32,49.54419342,61b8f3437b89212fae0dfade
6,3.995,space,2.6864,0,171,171,159,1,,,6110db4e6d45d7849cd5231e,61b9002bb5887c717b9f8e7c,2021-12-14_20h41.27.758,PRaM,2021.2.3,Win32,49.54419342,61b8f3437b89212fae0dfade
7,2.7269,space,1.1742,0,172,172,372,1,,,6110db4e6d45d7849cd5231e,61b9002bb5887c717b9f8e7c,2021-12-14_20h41.27.758,PRaM,2021.2.3,Win32,49.54419342,61b8f3437b89212fae0dfade
1,2.309,space,0.5498,0,173,173,253,1,,,6110db4e6d45d7849cd5231e,61b9002bb5887c717b9f8e7c,2021-12-14_20h41.27.758,PRaM,2021.2.3,Win32,49.54419342,61b8f3437b89212fae0dfade
1,1.8828,space,0.2665,0,174,174,201,1,,,6110db4e6d45d7849cd5231e,61b9002bb5887c717b9f8e7c,2021-12-14_20h41.27.758,PRaM,2021.2.3,Win32,49.54419342,61b8f3437b89212fae0dfade
1,1.4928,space,0.4405,0,175,175,54,1,,,6110db4e6d45d7849cd5231e,61b9002bb5887c717b9f8e7c,2021-12-14_20h41.27.758,PRaM,2021.2.3,Win32,49.54419342,61b8f3437b89212fae0dfade
1,2.2651,space,0.5912,0,176,176,229,1,,,6110db4e6d45d7849cd5231e,61b9002bb5887c717b9f8e7c,2021-12-14_20h41.27.758,PRaM,2021.2.3,Win32,49.54419342,61b8f3437b89212fae0dfade
1,1.5074,space,0.4821,0,177,177,162,1,,,6110db4e6d45d7849cd5231e,61b9002bb5887c717b9f8e7c,2021-12-14_20h41.27.758,PRaM,2021.2.3,Win32,49.54419342,61b8f3437b89212fae0dfade
1,4.6696,space,3.0107,0,178,178,9,1,,,6110db4e6d45d7849cd5231e,61b9002bb5887c717b9f8e7c,2021-12-14_20h41.27.758,PRaM,2021.2.3,Win32,49.54419342,61b8f3437b89212fae0dfade
1,2.3314,space,0.6508,0,179,179,318,1,,,6110db4e6d45d7849cd5231e,61b9002bb5887c717b9f8e7c,2021-12-14_20h41.27.758,PRaM,2021.2.3,Win32,49.54419342,61b8f3437b89212fae0dfade
6,4.212,space,2.562,0,180,180,83,1,,,6110db4e6d45d7849cd5231e,61b9002bb5887c717b9f8e7c,2021-12-14_20h41.27.758,PRaM,2021.2.3,Win32,49.54419342,61b8f3437b89212fae0dfade
1,3.3858,space,1.5542,0,181,181,310,1,,,6110db4e6d45d7849cd5231e,61b9002bb5887c717b9f8e7c,2021-12-14_20h41.27.758,PRaM,2021.2.3,Win32,49.54419342,61b8f3437b89212fae0dfade
1,1.5174,space,0.5109,0,182,182,210,1,,,6110db4e6d45d7849cd5231e,61b9002bb5887c717b9f8e7c,2021-12-14_20h41.27.758,PRaM,2021.2.3,Win32,49.54419342,61b8f3437b89212fae0dfade
1,1.6099,space,0.5413,0,183,183,290,1,,,6110db4e6d45d7849cd5231e,61b9002bb5887c717b9f8e7c,2021-12-14_20h41.27.758,PRaM,2021.2.3,Win32,49.54419342,61b8f3437b89212fae0dfade
1,1.4317,space,0.6643,0,184,184,73,1,,,6110db4e6d45d7849cd5231e,61b9002bb5887c717b9f8e7c,2021-12-14_20h41.27.758,PRaM,2021.2.3,Win32,49.54419342,61b8f3437b89212fae0dfade
1,17.9003,space,16.6281,0,185,185,243,1,,,6110db4e6d45d7849cd5231e,61b9002bb5887c717b9f8e7c,2021-12-14_20h41.27.758,PRaM,2021.2.3,Win32,49.54419342,61b8f3437b89212fae0dfade
1,1.4843,space,2.6952,0,186,186,92,1,,,6110db4e6d45d7849cd5231e,61b9002bb5887c717b9f8e7c,2021-12-14_20h41.27.758,PRaM,2021.2.3,Win32,49.54419342,61b8f3437b89212fae0dfade
6,6.4531,space,4.783,0,187,187,302,1,,,6110db4e6d45d7849cd5231e,61b9002bb5887c717b9f8e7c,2021-12-14_20h41.27.758,PRaM,2021.2.3,Win32,49.54419342,61b8f3437b89212fae0dfade
7,3.6444,space,1.9999,0,188,188,209,1,,,6110db4e6d45d7849cd5231e,61b9002bb5887c717b9f8e7c,2021-12-14_20h41.27.758,PRaM,2021.2.3,Win32,49.54419342,61b8f3437b89212fae0dfade
1,2.6877,space,1.0489,0,189,189,245,1,,,6110db4e6d45d7849cd5231e,61b9002bb5887c717b9f8e7c,2021-12-14_20h41.27.758,PRaM,2021.2.3,Win32,49.54419342,61b8f3437b89212fae0dfade
1,1.4512,space,0.4559,0,190,190,87,1,,,6110db4e6d45d7849cd5231e,61b9002bb5887c717b9f8e7c,2021-12-14_20h41.27.758,PRaM,2021.2.3,Win32,49.54419342,61b8f3437b89212fae0dfade
1,2.4031,space,0.6964,0,191,191,353,1,,,6110db4e6d45d7849cd5231e,61b9002bb5887c717b9f8e7c,2021-12-14_20h41.27.758,PRaM,2021.2.3,Win32,49.54419342,61b8f3437b89212fae0dfade
6,3.9488,space,2.3609,0,192,192,328,1,,,6110db4e6d45d7849cd5231e,61b9002bb5887c717b9f8e7c,2021-12-14_20h41.27.758,PRaM,2021.2.3,Win32,49.54419342,61b8f3437b89212fae0dfade
6,3.6935,space,2.2563,0,193,193,279,1,,,6110db4e6d45d7849cd5231e,61b9002bb5887c717b9f8e7c,2021-12-14_20h41.27.758,PRaM,2021.2.3,Win32,49.54419342,61b8f3437b89212fae0dfade
1,2.0353,space,0.3216,0,194,194,25,1,,,6110db4e6d45d7849cd5231e,61b9002bb5887c717b9f8e7c,2021-12-14_20h41.27.758,PRaM,2021.2.3,Win32,49.54419342,61b8f3437b89212fae0dfade
1,2.2172,space,0.584,0,195,195,361,1,,,6110db4e6d45d7849cd5231e,61b9002bb5887c717b9f8e7c,2021-12-14_20h41.27.758,PRaM,2021.2.3,Win32,49.54419342,61b8f3437b89212fae0dfade
1,4.5272,space,2.8704,0,196,196,181,1,,,6110db4e6d45d7849cd5231e,61b9002bb5887c717b9f8e7c,2021-12-14_20h41.27.758,PRaM,2021.2.3,Win32,49.54419342,61b8f3437b89212fae0dfade
1,4.9687,space,3.4653,0,197,197,237,1,,,6110db4e6d45d7849cd5231e,61b9002bb5887c717b9f8e7c,2021-12-14_20h41.27.758,PRaM,2021.2.3,Win32,49.54419342,61b8f3437b89212fae0dfade
1,1.313,space,0.2374,0,198,198,291,1,,,6110db4e6d45d7849cd5231e,61b9002bb5887c717b9f8e7c,2021-12-14_20h41.27.758,PRaM,2021.2.3,Win32,49.54419342,61b8f3437b89212fae0dfade
1,1.6756,space,0.3285,0,199,199,200,1,,,6110db4e6d45d7849cd5231e,61b9002bb5887c717b9f8e7c,2021-12-14_20h41.27.758,PRaM,2021.2.3,Win32,49.54419342,61b8f3437b89212fae0dfade
1,1.5175,space,1.7451,0,200,200,298,1,,,6110db4e6d45d7849cd5231e,61b9002bb5887c717b9f8e7c,2021-12-14_20h41.27.758,PRaM,2021.2.3,Win32,49.54419342,61b8f3437b89212fae0dfade
1,2.2411,space,0.6865,0,201,201,10,1,,,6110db4e6d45d7849cd5231e,61b9002bb5887c717b9f8e7c,2021-12-14_20h41.27.758,PRaM,2021.2.3,Win32,49.54419342,61b8f3437b89212fae0dfade
1,1.9413,space,0.2721,0,202,202,343,1,,,6110db4e6d45d7849cd5231e,61b9002bb5887c717b9f8e7c,2021-12-14_20h41.27.758,PRaM,2021.2.3,Win32,49.54419342,61b8f3437b89212fae0dfade
1,2.2527,space,0.5893,0,203,203,134,1,,,6110db4e6d45d7849cd5231e,61b9002bb5887c717b9f8e7c,2021-12-14_20h41.27.758,PRaM,2021.2.3,Win32,49.54419342,61b8f3437b89212fae0dfade
1,1.4257,space,0.4658,0,204,204,115,1,,,6110db4e6d45d7849cd5231e,61b9002bb5887c717b9f8e7c,2021-12-14_20h41.27.758,PRaM,2021.2.3,Win32,49.54419342,61b8f3437b89212fae0dfade
1,2.3179,space,0.7018,0,205,205,227,1,,,6110db4e6d45d7849cd5231e,61b9002bb5887c717b9f8e7c,2021-12-14_20h41.27.758,PRaM,2021.2.3,Win32,49.54419342,61b8f3437b89212fae0dfade
1,2.8592,space,1.1782,0,206,206,63,1,,,6110db4e6d45d7849cd5231e,61b9002bb5887c717b9f8e7c,2021-12-14_20h41.27.758,PRaM,2021.2.3,Win32,49.54419342,61b8f3437b89212fae0dfade
1,3.7088,space,2.1138,0,207,207,364,1,,,6110db4e6d45d7849cd5231e,61b9002bb5887c717b9f8e7c,2021-12-14_20h41.27.758,PRaM,2021.2.3,Win32,49.54419342,61b8f3437b89212fae0dfade
9,3.0041,space,1.4602,0,208,208,207,1,,,6110db4e6d45d7849cd5231e,61b9002bb5887c717b9f8e7c,2021-12-14_20h41.27.758,PRaM,2021.2.3,Win32,49.54419342,61b8f3437b89212fae0dfade
1,1.7561,space,0.0661,0,209,209,294,1,,,6110db4e6d45d7849cd5231e,61b9002bb5887c717b9f8e7c,2021-12-14_20h41.27.758,PRaM,2021.2.3,Win32,49.54419342,61b8f3437b89212fae0dfade
1,1.8981,space,0.1016,0,210,210,11,1,,,6110db4e6d45d7849cd5231e,61b9002bb5887c717b9f8e7c,2021-12-14_20h41.27.758,PRaM,2021.2.3,Win32,49.54419342,61b8f3437b89212fae0dfade
6,3.3309,space,1.6023,0,211,211,168,1,,,6110db4e6d45d7849cd5231e,61b9002bb5887c717b9f8e7c,2021-12-14_20h41.27.758,PRaM,2021.2.3,Win32,49.54419342,61b8f3437b89212fae0dfade
1,2.2438,space,0.5417,0,212,212,236,1,,,6110db4e6d45d7849cd5231e,61b9002bb5887c717b9f8e7c,2021-12-14_20h41.27.758,PRaM,2021.2.3,Win32,49.54419342,61b8f3437b89212fae0dfade
1,5.1738,space,3.322,0,213,213,23,1,,,6110db4e6d45d7849cd5231e,61b9002bb5887c717b9f8e7c,2021-12-14_20h41.27.758,PRaM,2021.2.3,Win32,49.54419342,61b8f3437b89212fae0dfade
1,1.6471,space,0.6513,0,214,214,8,1,,,6110db4e6d45d7849cd5231e,61b9002bb5887c717b9f8e7c,2021-12-14_20h41.27.758,PRaM,2021.2.3,Win32,49.54419342,61b8f3437b89212fae0dfade
,,space,0.6621,0,215,215,373,1,,,6110db4e6d45d7849cd5231e,61b9002bb5887c717b9f8e7c,2021-12-14_20h41.27.758,PRaM,2021.2.3,Win32,49.54419342,61b8f3437b89212fae0dfade
1,0.911,space,1.1395,0,216,216,0,1,,,6110db4e6d45d7849cd5231e,61b9002bb5887c717b9f8e7c,2021-12-14_20h41.27.758,PRaM,2021.2.3,Win32,49.54419342,61b8f3437b89212fae0dfade
1,1.3227,space,0.1505,0,217,217,153,1,,,6110db4e6d45d7849cd5231e,61b9002bb5887c717b9f8e7c,2021-12-14_20h41.27.758,PRaM,2021.2.3,Win32,49.54419342,61b8f3437b89212fae0dfade
1,3.3254,space,2.1698,0,218,218,314,1,,,6110db4e6d45d7849cd5231e,61b9002bb5887c717b9f8e7c,2021-12-14_20h41.27.758,PRaM,2021.2.3,Win32,49.54419342,61b8f3437b89212fae0dfade
5,3.0888,space,1.3646,0,219,219,135,1,,,6110db4e6d45d7849cd5231e,61b9002bb5887c717b9f8e7c,2021-12-14_20h41.27.758,PRaM,2021.2.3,Win32,49.54419342,61b8f3437b89212fae0dfade
5,4.703,space,3.0544,0,220,220,150,1,,,6110db4e6d45d7849cd5231e,61b9002bb5887c717b9f8e7c,2021-12-14_20h41.27.758,PRaM,2021.2.3,Win32,49.54419342,61b8f3437b89212fae0dfade
,,space,0.4106,0,221,221,344,1,,,6110db4e6d45d7849cd5231e,61b9002bb5887c717b9f8e7c,2021-12-14_20h41.27.758,PRaM,2021.2.3,Win32,49.54419342,61b8f3437b89212fae0dfade
1,5.135,space,3.3949,0,222,222,360,1,,,6110db4e6d45d7849cd5231e,61b9002bb5887c717b9f8e7c,2021-12-14_20h41.27.758,PRaM,2021.2.3,Win32,49.54419342,61b8f3437b89212fae0dfade
1,1.3617,space,0.3748,0,223,223,79,1,,,6110db4e6d45d7849cd5231e,61b9002bb5887c717b9f8e7c,2021-12-14_20h41.27.758,PRaM,2021.2.3,Win32,49.54419342,61b8f3437b89212fae0dfade
1,1.6013,space,0.5035,0,224,224,89,1,,,6110db4e6d45d7849cd5231e,61b9002bb5887c717b9f8e7c,2021-12-14_20h41.27.758,PRaM,2021.2.3,Win32,49.54419342,61b8f3437b89212fae0dfade
1,104.1712,space,104.2674,0,225,225,32,1,,,6110db4e6d45d7849cd5231e,61b9002bb5887c717b9f8e7c,2021-12-14_20h41.27.758,PRaM,2021.2.3,Win32,49.54419342,61b8f3437b89212fae0dfade
1,5.596,space,3.9456,0,226,226,117,1,,,6110db4e6d45d7849cd5231e,61b9002bb5887c717b9f8e7c,2021-12-14_20h41.27.758,PRaM,2021.2.3,Win32,49.54419342,61b8f3437b89212fae0dfade
1,17.9798,space,16.5691,0,227,227,44,1,,,6110db4e6d45d7849cd5231e,61b9002bb5887c717b9f8e7c,2021-12-14_20h41.27.758,PRaM,2021.2.3,Win32,49.54419342,61b8f3437b89212fae0dfade
1,49.7029,space,49.7285,0,228,228,146,1,,,6110db4e6d45d7849cd5231e,61b9002bb5887c717b9f8e7c,2021-12-14_20h41.27.758,PRaM,2021.2.3,Win32,49.54419342,61b8f3437b89212fae0dfade
1,3.3474,space,1.7245,0,229,229,151,1,,,6110db4e6d45d7849cd5231e,61b9002bb5887c717b9f8e7c,2021-12-14_20h41.27.758,PRaM,2021.2.3,Win32,49.54419342,61b8f3437b89212fae0dfade
1,1.9695,space,0.3008,0,230,230,315,1,,,6110db4e6d45d7849cd5231e,61b9002bb5887c717b9f8e7c,2021-12-14_20h41.27.758,PRaM,2021.2.3,Win32,49.54419342,61b8f3437b89212fae0dfade
1,3.8573,space,2.2562,0,231,231,311,1,,,6110db4e6d45d7849cd5231e,61b9002bb5887c717b9f8e7c,2021-12-14_20h41.27.758,PRaM,2021.2.3,Win32,49.54419342,61b8f3437b89212fae0dfade
1,2.1035,space,0.2568,0,232,232,325,1,,,6110db4e6d45d7849cd5231e,61b9002bb5887c717b9f8e7c,2021-12-14_20h41.27.758,PRaM,2021.2.3,Win32,49.54419342,61b8f3437b89212fae0dfade
5,2.2656,space,0.4881,0,233,233,334,1,,,6110db4e6d45d7849cd5231e,61b9002bb5887c717b9f8e7c,2021-12-14_20h41.27.758,PRaM,2021.2.3,Win32,49.54419342,61b8f3437b89212fae0dfade
1,46.1707,space,44.4968,0,234,234,104,1,,,6110db4e6d45d7849cd5231e,61b9002bb5887c717b9f8e7c,2021-12-14_20h41.27.758,PRaM,2021.2.3,Win32,49.54419342,61b8f3437b89212fae0dfade
1,2.2046,space,0.458,0,235,235,93,1,,,6110db4e6d45d7849cd5231e,61b9002bb5887c717b9f8e7c,2021-12-14_20h41.27.758,PRaM,2021.2.3,Win32,49.54419342,61b8f3437b89212fae0dfade
9,4.8272,space,3.1856,0,236,236,319,1,,,6110db4e6d45d7849cd5231e,61b9002bb5887c717b9f8e7c,2021-12-14_20h41.27.758,PRaM,2021.2.3,Win32,49.54419342,61b8f3437b89212fae0dfade
1,2.2309,space,70.5299,0,237,237,90,1,,,6110db4e6d45d7849cd5231e,61b9002bb5887c717b9f8e7c,2021-12-14_20h41.27.758,PRaM,2021.2.3,Win32,49.54419342,61b8f3437b89212fae0dfade
1,2.1162,space,0.4042,0,238,238,231,1,,,6110db4e6d45d7849cd5231e,61b9002bb5887c717b9f8e7c,2021-12-14_20h41.27.758,PRaM,2021.2.3,Win32,49.54419342,61b8f3437b89212fae0dfade
1,1.5666,space,0.3556,0,239,239,203,1,,,6110db4e6d45d7849cd5231e,61b9002bb5887c717b9f8e7c,2021-12-14_20h41.27.758,PRaM,2021.2.3,Win32,49.54419342,61b8f3437b89212fae0dfade
1,3.9084,space,2.096,0,240,240,140,1,,,6110db4e6d45d7849cd5231e,61b9002bb5887c717b9f8e7c,2021-12-14_20h41.27.758,PRaM,2021.2.3,Win32,49.54419342,61b8f3437b89212fae0dfade
1,2.5706,space,1.0084,0,241,241,326,1,,,6110db4e6d45d7849cd5231e,61b9002bb5887c717b9f8e7c,2021-12-14_20h41.27.758,PRaM,2021.2.3,Win32,49.54419342,61b8f3437b89212fae0dfade
1,1.3526,space,0.3364,0,242,242,120,1,,,6110db4e6d45d7849cd5231e,61b9002bb5887c717b9f8e7c,2021-12-14_20h41.27.758,PRaM,2021.2.3,Win32,49.54419342,61b8f3437b89212fae0dfade
1,1.1545,space,0.7029,0,243,243,295,1,,,6110db4e6d45d7849cd5231e,61b9002bb5887c717b9f8e7c,2021-12-14_20h41.27.758,PRaM,2021.2.3,Win32,49.54419342,61b8f3437b89212fae0dfade
4,3.5707,space,1.9151,0,244,244,154,1,,,6110db4e6d45d7849cd5231e,61b9002bb5887c717b9f8e7c,2021-12-14_20h41.27.758,PRaM,2021.2.3,Win32,49.54419342,61b8f3437b89212fae0dfade
1,1.8435,space,0.1841,0,245,245,180,1,,,6110db4e6d45d7849cd5231e,61b9002bb5887c717b9f8e7c,2021-12-14_20h41.27.758,PRaM,2021.2.3,Win32,49.54419342,61b8f3437b89212fae0dfade
1,1.0747,space,0.7071,0,246,246,299,1,,,6110db4e6d45d7849cd5231e,61b9002bb5887c717b9f8e7c,2021-12-14_20h41.27.758,PRaM,2021.2.3,Win32,49.54419342,61b8f3437b89212fae0dfade
1,1.7275,space,0.4165,0,247,247,173,1,,,6110db4e6d45d7849cd5231e,61b9002bb5887c717b9f8e7c,2021-12-14_20h41.27.758,PRaM,2021.2.3,Win32,49.54419342,61b8f3437b89212fae0dfade
1,1.2597,space,0.4318,0,248,248,37,1,,,6110db4e6d45d7849cd5231e,61b9002bb5887c717b9f8e7c,2021-12-14_20h41.27.758,PRaM,2021.2.3,Win32,49.54419342,61b8f3437b89212fae0dfade
1,1.7425,space,0.8217,0,249,249,375,1,,,6110db4e6d45d7849cd5231e,61b9002bb5887c717b9f8e7c,2021-12-14_20h41.27.758,PRaM,2021.2.3,Win32,49.54419342,61b8f3437b89212fae0dfade
1,2.0328,space,0.3223,0,250,250,250,1,,,6110db4e6d45d7849cd5231e,61b9002bb5887c717b9f8e7c,2021-12-14_20h41.27.758,PRaM,2021.2.3,Win32,49.54419342,61b8f3437b89212fae0dfade
1,28.5152,space,27.2241,0,251,251,91,1,,,6110db4e6d45d7849cd5231e,61b9002bb5887c717b9f8e7c,2021-12-14_20h41.27.758,PRaM,2021.2.3,Win32,49.54419342,61b8f3437b89212fae0dfade
1,5.557,space,3.9253,0,252,252,280,1,,,6110db4e6d45d7849cd5231e,61b9002bb5887c717b9f8e7c,2021-12-14_20h41.27.758,PRaM,2021.2.3,Win32,49.54419342,61b8f3437b89212fae0dfade
1,1.232,space,0.1262,0,253,253,272,1,,,6110db4e6d45d7849cd5231e,61b9002bb5887c717b9f8e7c,2021-12-14_20h41.27.758,PRaM,2021.2.3,Win32,49.54419342,61b8f3437b89212fae0dfade
1,5.3027,space,7.6626,0,254,254,24,1,,,6110db4e6d45d7849cd5231e,61b9002bb5887c717b9f8e7c,2021-12-14_20h41.27.758,PRaM,2021.2.3,Win32,49.54419342,61b8f3437b89212fae0dfade
1,6.4277,space,4.7456,0,255,255,269,1,,,6110db4e6d45d7849cd5231e,61b9002bb5887c717b9f8e7c,2021-12-14_20h41.27.758,PRaM,2021.2.3,Win32,49.54419342,61b8f3437b89212fae0dfade
1,4.4516,space,2.694,0,256,256,21,1,,,6110db4e6d45d7849cd5231e,61b9002bb5887c717b9f8e7c,2021-12-14_20h41.27.758,PRaM,2021.2.3,Win32,49.54419342,61b8f3437b89212fae0dfade
1,1.2526,space,0.0222,0,257,257,88,1,,,6110db4e6d45d7849cd5231e,61b9002bb5887c717b9f8e7c,2021-12-14_20h41.27.758,PRaM,2021.2.3,Win32,49.54419342,61b8f3437b89212fae0dfade
1,1.1343,space,0.3387,0,258,258,241,1,,,6110db4e6d45d7849cd5231e,61b9002bb5887c717b9f8e7c,2021-12-14_20h41.27.758,PRaM,2021.2.3,Win32,49.54419342,61b8f3437b89212fae0dfade
1,1.9779,space,0.2499,0,259,259,80,1,,,6110db4e6d45d7849cd5231e,61b9002bb5887c717b9f8e7c,2021-12-14_20h41.27.758,PRaM,2021.2.3,Win32,49.54419342,61b8f3437b89212fae0dfade
1,2.5215,space,0.8593,0,260,260,186,1,,,6110db4e6d45d7849cd5231e,61b9002bb5887c717b9f8e7c,2021-12-14_20h41.27.758,PRaM,2021.2.3,Win32,49.54419342,61b8f3437b89212fae0dfade
1,1.1623,space,0.1781,0,261,261,166,1,,,6110db4e6d45d7849cd5231e,61b9002bb5887c717b9f8e7c,2021-12-14_20h41.27.758,PRaM,2021.2.3,Win32,49.54419342,61b8f3437b89212fae0dfade
1,8.662,space,7.6997,0,262,262,84,1,,,6110db4e6d45d7849cd5231e,61b9002bb5887c717b9f8e7c,2021-12-14_20h41.27.758,PRaM,2021.2.3,Win32,49.54419342,61b8f3437b89212fae0dfade
1,1.3972,space,0.3602,0,263,263,308,1,,,6110db4e6d45d7849cd5231e,61b9002bb5887c717b9f8e7c,2021-12-14_20h41.27.758,PRaM,2021.2.3,Win32,49.54419342,61b8f3437b89212fae0dfade
1,14.0688,space,12.2948,0,264,264,348,1,,,6110db4e6d45d7849cd5231e,61b9002bb5887c717b9f8e7c,2021-12-14_20h41.27.758,PRaM,2021.2.3,Win32,49.54419342,61b8f3437b89212fae0dfade
1,3.7042,space,2.0304,0,265,265,31,1,,,6110db4e6d45d7849cd5231e,61b9002bb5887c717b9f8e7c,2021-12-14_20h41.27.758,PRaM,2021.2.3,Win32,49.54419342,61b8f3437b89212fae0dfade
1,1.3753,space,0.1878,0,266,266,71,1,,,6110db4e6d45d7849cd5231e,61b9002bb5887c717b9f8e7c,2021-12-14_20h41.27.758,PRaM,2021.2.3,Win32,49.54419342,61b8f3437b89212fae0dfade
1,8.0103,space,8.0549,0,267,267,235,1,,,6110db4e6d45d7849cd5231e,61b9002bb5887c717b9f8e7c,2021-12-14_20h41.27.758,PRaM,2021.2.3,Win32,49.54419342,61b8f3437b89212fae0dfade
1,4.13,space,3.031,0,268,268,152,1,,,6110db4e6d45d7849cd5231e,61b9002bb5887c717b9f8e7c,2021-12-14_20h41.27.758,PRaM,2021.2.3,Win32,49.54419342,61b8f3437b89212fae0dfade
1,3.6203,space,1.9409,0,269,269,262,1,,,6110db4e6d45d7849cd5231e,61b9002bb5887c717b9f8e7c,2021-12-14_20h41.27.758,PRaM,2021.2.3,Win32,49.54419342,61b8f3437b89212fae0dfade
1,2.9415,space,1.3034,0,270,270,19,1,,,6110db4e6d45d7849cd5231e,61b9002bb5887c717b9f8e7c,2021-12-14_20h41.27.758,PRaM,2021.2.3,Win32,49.54419342,61b8f3437b89212fae0dfade
1,2.4166,space,1.1963,0,271,271,131,1,,,6110db4e6d45d7849cd5231e,61b9002bb5887c717b9f8e7c,2021-12-14_20h41.27.758,PRaM,2021.2.3,Win32,49.54419342,61b8f3437b89212fae0dfade
1,1.1688,space,0.0072,0,272,272,46,1,,,6110db4e6d45d7849cd5231e,61b9002bb5887c717b9f8e7c,2021-12-14_20h41.27.758,PRaM,2021.2.3,Win32,49.54419342,61b8f3437b89212fae0dfade
1,2.4818,space,0.808,0,273,273,52,1,,,6110db4e6d45d7849cd5231e,61b9002bb5887c717b9f8e7c,2021-12-14_20h41.27.758,PRaM,2021.2.3,Win32,49.54419342,61b8f3437b89212fae0dfade
3,2.1652,space,0.5042,0,274,274,149,1,,,6110db4e6d45d7849cd5231e,61b9002bb5887c717b9f8e7c,2021-12-14_20h41.27.758,PRaM,2021.2.3,Win32,49.54419342,61b8f3437b89212fae0dfade
1,1.5076,space,0.7234,0,275,275,171,1,,,6110db4e6d45d7849cd5231e,61b9002bb5887c717b9f8e7c,2021-12-14_20h41.27.758,PRaM,2021.2.3,Win32,49.54419342,61b8f3437b89212fae0dfade
1,1.719,space,0.1008,0,276,276,223,1,,,6110db4e6d45d7849cd5231e,61b9002bb5887c717b9f8e7c,2021-12-14_20h41.27.758,PRaM,2021.2.3,Win32,49.54419342,61b8f3437b89212fae0dfade
5,2.463,space,0.7841,0,277,277,69,1,,,6110db4e6d45d7849cd5231e,61b9002bb5887c717b9f8e7c,2021-12-14_20h41.27.758,PRaM,2021.2.3,Win32,49.54419342,61b8f3437b89212fae0dfade
1,1.7863,space,0.052,0,278,278,81,1,,,6110db4e6d45d7849cd5231e,61b9002bb5887c717b9f8e7c,2021-12-14_20h41.27.758,PRaM,2021.2.3,Win32,49.54419342,61b8f3437b89212fae0dfade
1,2.1566,space,1.1255,0,279,279,300,1,,,6110db4e6d45d7849cd5231e,61b9002bb5887c717b9f8e7c,2021-12-14_20h41.27.758,PRaM,2021.2.3,Win32,49.54419342,61b8f3437b89212fae0dfade
1,1.7428,space,0.092,0,280,280,138,1,,,6110db4e6d45d7849cd5231e,61b9002bb5887c717b9f8e7c,2021-12-14_20h41.27.758,PRaM,2021.2.3,Win32,49.54419342,61b8f3437b89212fae0dfade
1,2.0409,space,0.6847,0,281,281,39,1,,,6110db4e6d45d7849cd5231e,61b9002bb5887c717b9f8e7c,2021-12-14_20h41.27.758,PRaM,2021.2.3,Win32,49.54419342,61b8f3437b89212fae0dfade
1,1.1933,space,0.0855,0,282,282,67,1,,,6110db4e6d45d7849cd5231e,61b9002bb5887c717b9f8e7c,2021-12-14_20h41.27.758,PRaM,2021.2.3,Win32,49.54419342,61b8f3437b89212fae0dfade
3,4.5673,space,2.9246,0,283,283,254,1,,,6110db4e6d45d7849cd5231e,61b9002bb5887c717b9f8e7c,2021-12-14_20h41.27.758,PRaM,2021.2.3,Win32,49.54419342,61b8f3437b89212fae0dfade
5,2.6124,space,0.8771,0,284,284,178,1,,,6110db4e6d45d7849cd5231e,61b9002bb5887c717b9f8e7c,2021-12-14_20h41.27.758,PRaM,2021.2.3,Win32,49.54419342,61b8f3437b89212fae0dfade
6,4.9867,space,3.329,0,285,285,38,1,,,6110db4e6d45d7849cd5231e,61b9002bb5887c717b9f8e7c,2021-12-14_20h41.27.758,PRaM,2021.2.3,Win32,49.54419342,61b8f3437b89212fae0dfade
1,1.7479,space,0.057,0,286,286,179,1,,,6110db4e6d45d7849cd5231e,61b9002bb5887c717b9f8e7c,2021-12-14_20h41.27.758,PRaM,2021.2.3,Win32,49.54419342,61b8f3437b89212fae0dfade
1,1.1503,space,0.313,0,287,287,248,1,,,6110db4e6d45d7849cd5231e,61b9002bb5887c717b9f8e7c,2021-12-14_20h41.27.758,PRaM,2021.2.3,Win32,49.54419342,61b8f3437b89212fae0dfade
1,1.7116,space,0.1814,0,288,288,261,1,,,6110db4e6d45d7849cd5231e,61b9002bb5887c717b9f8e7c,2021-12-14_20h41.27.758,PRaM,2021.2.3,Win32,49.54419342,61b8f3437b89212fae0dfade
3,3.0359,space,1.3851,0,289,289,158,1,,,6110db4e6d45d7849cd5231e,61b9002bb5887c717b9f8e7c,2021-12-14_20h41.27.758,PRaM,2021.2.3,Win32,49.54419342,61b8f3437b89212fae0dfade
1,2.5573,space,0.9181,0,290,290,349,1,,,6110db4e6d45d7849cd5231e,61b9002bb5887c717b9f8e7c,2021-12-14_20h41.27.758,PRaM,2021.2.3,Win32,49.54419342,61b8f3437b89212fae0dfade
2,4.2912,space,2.6581,0,291,291,263,1,,,6110db4e6d45d7849cd5231e,61b9002bb5887c717b9f8e7c,2021-12-14_20h41.27.758,PRaM,2021.2.3,Win32,49.54419342,61b8f3437b89212fae0dfade
2,2.6752,space,0.978,0,292,292,62,1,,,6110db4e6d45d7849cd5231e,61b9002bb5887c717b9f8e7c,2021-12-14_20h41.27.758,PRaM,2021.2.3,Win32,49.54419342,61b8f3437b89212fae0dfade
3,2.4493,space,0.824,0,293,293,297,1,,,6110db4e6d45d7849cd5231e,61b9002bb5887c717b9f8e7c,2021-12-14_20h41.27.758,PRaM,2021.2.3,Win32,49.54419342,61b8f3437b89212fae0dfade
1,2.6515,space,1.0777,0,294,294,143,1,,,6110db4e6d45d7849cd5231e,61b9002bb5887c717b9f8e7c,2021-12-14_20h41.27.758,PRaM,2021.2.3,Win32,49.54419342,61b8f3437b89212fae0dfade
1,1.523,space,0.8988,0,295,295,132,1,,,6110db4e6d45d7849cd5231e,61b9002bb5887c717b9f8e7c,2021-12-14_20h41.27.758,PRaM,2021.2.3,Win32,49.54419342,61b8f3437b89212fae0dfade
1,2.0457,space,0.6256,0,296,296,45,1,,,6110db4e6d45d7849cd5231e,61b9002bb5887c717b9f8e7c,2021-12-14_20h41.27.758,PRaM,2021.2.3,Win32,49.54419342,61b8f3437b89212fae0dfade
1,1.1882,space,0.0411,0,297,297,29,1,,,6110db4e6d45d7849cd5231e,61b9002bb5887c717b9f8e7c,2021-12-14_20h41.27.758,PRaM,2021.2.3,Win32,49.54419342,61b8f3437b89212fae0dfade
6,3.4406,space,1.7664,0,298,298,192,1,,,6110db4e6d45d7849cd5231e,61b9002bb5887c717b9f8e7c,2021-12-14_20h41.27.758,PRaM,2021.2.3,Win32,49.54419342,61b8f3437b89212fae0dfade
1,1.9345,space,0.2695,0,299,299,286,1,,,6110db4e6d45d7849cd5231e,61b9002bb5887c717b9f8e7c,2021-12-14_20h41.27.758,PRaM,2021.2.3,Win32,49.54419342,61b8f3437b89212fae0dfade
1,1.4869,space,0.5055,0,300,300,148,1,,,6110db4e6d45d7849cd5231e,61b9002bb5887c717b9f8e7c,2021-12-14_20h41.27.758,PRaM,2021.2.3,Win32,49.54419342,61b8f3437b89212fae0dfade
1,1.4483,space,1.4618,0,301,301,252,1,,,6110db4e6d45d7849cd5231e,61b9002bb5887c717b9f8e7c,2021-12-14_20h41.27.758,PRaM,2021.2.3,Win32,49.54419342,61b8f3437b89212fae0dfade
1,1.0309,space,3.7146,0,302,302,85,1,,,6110db4e6d45d7849cd5231e,61b9002bb5887c717b9f8e7c,2021-12-14_20h41.27.758,PRaM,2021.2.3,Win32,49.54419342,61b8f3437b89212fae0dfade
1,1.9942,space,0.3177,0,303,303,282,1,,,6110db4e6d45d7849cd5231e,61b9002bb5887c717b9f8e7c,2021-12-14_20h41.27.758,PRaM,2021.2.3,Win32,49.54419342,61b8f3437b89212fae0dfade
1,1.6051,space,0.4412,0,304,304,114,1,,,6110db4e6d45d7849cd5231e,61b9002bb5887c717b9f8e7c,2021-12-14_20h41.27.758,PRaM,2021.2.3,Win32,49.54419342,61b8f3437b89212fae0dfade
1,2.0274,space,0.3832,0,305,305,249,1,,,6110db4e6d45d7849cd5231e,61b9002bb5887c717b9f8e7c,2021-12-14_20h41.27.758,PRaM,2021.2.3,Win32,49.54419342,61b8f3437b89212fae0dfade
1,3.3423,space,12.2112,0,306,306,47,1,,,6110db4e6d45d7849cd5231e,61b9002bb5887c717b9f8e7c,2021-12-14_20h41.27.758,PRaM,2021.2.3,Win32,49.54419342,61b8f3437b89212fae0dfade
1,1.6035,space,0.4034,0,307,307,118,1,,,6110db4e6d45d7849cd5231e,61b9002bb5887c717b9f8e7c,2021-12-14_20h41.27.758,PRaM,2021.2.3,Win32,49.54419342,61b8f3437b89212fae0dfade
1,1.0531,space,0.4612,0,308,308,224,1,,,6110db4e6d45d7849cd5231e,61b9002bb5887c717b9f8e7c,2021-12-14_20h41.27.758,PRaM,2021.2.3,Win32,49.54419342,61b8f3437b89212fae0dfade
1,0.9055,space,0.4412,0,309,309,284,1,,,6110db4e6d45d7849cd5231e,61b9002bb5887c717b9f8e7c,2021-12-14_20h41.27.758,PRaM,2021.2.3,Win32,49.54419342,61b8f3437b89212fae0dfade
1,1.1874,space,0.3276,0,310,310,77,1,,,6110db4e6d45d7849cd5231e,61b9002bb5887c717b9f8e7c,2021-12-14_20h41.27.758,PRaM,2021.2.3,Win32,49.54419342,61b8f3437b89212fae0dfade
1,1.2821,space,0.2074,0,311,311,205,1,,,6110db4e6d45d7849cd5231e,61b9002bb5887c717b9f8e7c,2021-12-14_20h41.27.758,PRaM,2021.2.3,Win32,49.54419342,61b8f3437b89212fae0dfade
1,1.1517,space,0.3845,0,312,312,136,1,,,6110db4e6d45d7849cd5231e,61b9002bb5887c717b9f8e7c,2021-12-14_20h41.27.758,PRaM,2021.2.3,Win32,49.54419342,61b8f3437b89212fae0dfade
1,1.3246,space,0.3708,0,313,313,172,1,,,6110db4e6d45d7849cd5231e,61b9002bb5887c717b9f8e7c,2021-12-14_20h41.27.758,PRaM,2021.2.3,Win32,49.54419342,61b8f3437b89212fae0dfade
1,1.2359,space,0.2668,0,314,314,259,1,,,6110db4e6d45d7849cd5231e,61b9002bb5887c717b9f8e7c,2021-12-14_20h41.27.758,PRaM,2021.2.3,Win32,49.54419342,61b8f3437b89212fae0dfade
1,1.3178,space,0.0482,0,315,315,354,1,,,6110db4e6d45d7849cd5231e,61b9002bb5887c717b9f8e7c,2021-12-14_20h41.27.758,PRaM,2021.2.3,Win32,49.54419342,61b8f3437b89212fae0dfade
1,0.9511,space,0.0072,0,316,316,4,1,,,6110db4e6d45d7849cd5231e,61b9002bb5887c717b9f8e7c,2021-12-14_20h41.27.758,PRaM,2021.2.3,Win32,49.54419342,61b8f3437b89212fae0dfade
1,1.2123,space,0.5824,0,317,317,376,1,,,6110db4e6d45d7849cd5231e,61b9002bb5887c717b9f8e7c,2021-12-14_20h41.27.758,PRaM,2021.2.3,Win32,49.54419342,61b8f3437b89212fae0dfade
1,2.2214,space,0.5472,0,318,318,113,1,,,6110db4e6d45d7849cd5231e,61b9002bb5887c717b9f8e7c,2021-12-14_20h41.27.758,PRaM,2021.2.3,Win32,49.54419342,61b8f3437b89212fae0dfade
1,1.6063,space,0.9042,0,319,319,147,1,,,6110db4e6d45d7849cd5231e,61b9002bb5887c717b9f8e7c,2021-12-14_20h41.27.758,PRaM,2021.2.3,Win32,49.54419342,61b8f3437b89212fae0dfade
1,2.0881,space,0.428,0,320,320,218,1,,,6110db4e6d45d7849cd5231e,61b9002bb5887c717b9f8e7c,2021-12-14_20h41.27.758,PRaM,2021.2.3,Win32,49.54419342,61b8f3437b89212fae0dfade
1,3.0094,space,1.3044,0,321,321,255,1,,,6110db4e6d45d7849cd5231e,61b9002bb5887c717b9f8e7c,2021-12-14_20h41.27.758,PRaM,2021.2.3,Win32,49.54419342,61b8f3437b89212fae0dfade
1,1.463,space,0.3408,0,322,322,352,1,,,6110db4e6d45d7849cd5231e,61b9002bb5887c717b9f8e7c,2021-12-14_20h41.27.758,PRaM,2021.2.3,Win32,49.54419342,61b8f3437b89212fae0dfade
1,1.5239,space,0.2722,0,323,323,305,1,,,6110db4e6d45d7849cd5231e,61b9002bb5887c717b9f8e7c,2021-12-14_20h41.27.758,PRaM,2021.2.3,Win32,49.54419342,61b8f3437b89212fae0dfade
1,2.0475,space,0.4037,0,324,324,13,1,,,6110db4e6d45d7849cd5231e,61b9002bb5887c717b9f8e7c,2021-12-14_20h41.27.758,PRaM,2021.2.3,Win32,49.54419342,61b8f3437b89212fae0dfade
1,1.2281,space,0.1409,0,325,325,175,1,,,6110db4e6d45d7849cd5231e,61b9002bb5887c717b9f8e7c,2021-12-14_20h41.27.758,PRaM,2021.2.3,Win32,49.54419342,61b8f3437b89212fae0dfade
1,1.263,space,0.4482,0,326,326,102,1,,,6110db4e6d45d7849cd5231e,61b9002bb5887c717b9f8e7c,2021-12-14_20h41.27.758,PRaM,2021.2.3,Win32,49.54419342,61b8f3437b89212fae0dfade
1,2.6229,space,0.962,0,327,327,12,1,,,6110db4e6d45d7849cd5231e,61b9002bb5887c717b9f8e7c,2021-12-14_20h41.27.758,PRaM,2021.2.3,Win32,49.54419342,61b8f3437b89212fae0dfade
1,1.4255,space,0.2715,0,328,328,98,1,,,6110db4e6d45d7849cd5231e,61b9002bb5887c717b9f8e7c,2021-12-14_20h41.27.758,PRaM,2021.2.3,Win32,49.54419342,61b8f3437b89212fae0dfade
1,1.2069,space,0.0045,0,329,329,65,1,,,6110db4e6d45d7849cd5231e,61b9002bb5887c717b9f8e7c,2021-12-14_20h41.27.758,PRaM,2021.2.3,Win32,49.54419342,61b8f3437b89212fae0dfade
2,6.0712,space,4.4277,0,330,330,225,1,,,6110db4e6d45d7849cd5231e,61b9002bb5887c717b9f8e7c,2021-12-14_20h41.27.758,PRaM,2021.2.3,Win32,49.54419342,61b8f3437b89212fae0dfade
1,1.6344,space,0.0284,0,331,331,108,1,,,6110db4e6d45d7849cd5231e,61b9002bb5887c717b9f8e7c,2021-12-14_20h41.27.758,PRaM,2021.2.3,Win32,49.54419342,61b8f3437b89212fae0dfade
1,1.1951,space,0.3918,0,332,332,48,1,,,6110db4e6d45d7849cd5231e,61b9002bb5887c717b9f8e7c,2021-12-14_20h41.27.758,PRaM,2021.2.3,Win32,49.54419342,61b8f3437b89212fae0dfade
1,4.6953,space,5.8312,0,333,333,188,1,,,6110db4e6d45d7849cd5231e,61b9002bb5887c717b9f8e7c,2021-12-14_20h41.27.758,PRaM,2021.2.3,Win32,49.54419342,61b8f3437b89212fae0dfade
1,1.0633,space,0.368,0,334,334,211,1,,,6110db4e6d45d7849cd5231e,61b9002bb5887c717b9f8e7c,2021-12-14_20h41.27.758,PRaM,2021.2.3,Win32,49.54419342,61b8f3437b89212fae0dfade
1,1.763,space,1.0327,0,335,335,107,1,,,6110db4e6d45d7849cd5231e,61b9002bb5887c717b9f8e7c,2021-12-14_20h41.27.758,PRaM,2021.2.3,Win32,49.54419342,61b8f3437b89212fae0dfade
9,3.2877,space,1.9517,0,336,336,320,1,,,6110db4e6d45d7849cd5231e,61b9002bb5887c717b9f8e7c,2021-12-14_20h41.27.758,PRaM,2021.2.3,Win32,49.54419342,61b8f3437b89212fae0dfade
1,3.3113,space,1.7717,0,337,337,28,1,,,6110db4e6d45d7849cd5231e,61b9002bb5887c717b9f8e7c,2021-12-14_20h41.27.758,PRaM,2021.2.3,Win32,49.54419342,61b8f3437b89212fae0dfade
1,1.8036,space,0.5725,0,338,338,355,1,,,6110db4e6d45d7849cd5231e,61b9002bb5887c717b9f8e7c,2021-12-14_20h41.27.758,PRaM,2021.2.3,Win32,49.54419342,61b8f3437b89212fae0dfade
5,2.8381,space,1.2373,0,339,339,16,1,,,6110db4e6d45d7849cd5231e,61b9002bb5887c717b9f8e7c,2021-12-14_20h41.27.758,PRaM,2021.2.3,Win32,49.54419342,61b8f3437b89212fae0dfade
1,2.0805,space,0.4489,0,340,340,292,1,,,6110db4e6d45d7849cd5231e,61b9002bb5887c717b9f8e7c,2021-12-14_20h41.27.758,PRaM,2021.2.3,Win32,49.54419342,61b8f3437b89212fae0dfade
1,1.6125,space,1.2656,0,341,341,226,1,,,6110db4e6d45d7849cd5231e,61b9002bb5887c717b9f8e7c,2021-12-14_20h41.27.758,PRaM,2021.2.3,Win32,49.54419342,61b8f3437b89212fae0dfade
1,1.9659,space,6.1949,0,342,342,7,1,,,6110db4e6d45d7849cd5231e,61b9002bb5887c717b9f8e7c,2021-12-14_20h41.27.758,PRaM,2021.2.3,Win32,49.54419342,61b8f3437b89212fae0dfade
1,1.8776,space,0.2579,0,343,343,130,1,,,6110db4e6d45d7849cd5231e,61b9002bb5887c717b9f8e7c,2021-12-14_20h41.27.758,PRaM,2021.2.3,Win32,49.54419342,61b8f3437b89212fae0dfade
1,1.3376,space,0.0504,0,344,344,193,1,,,6110db4e6d45d7849cd5231e,61b9002bb5887c717b9f8e7c,2021-12-14_20h41.27.758,PRaM,2021.2.3,Win32,49.54419342,61b8f3437b89212fae0dfade
1,1.8421,space,0.2094,0,345,345,40,1,,,6110db4e6d45d7849cd5231e,61b9002bb5887c717b9f8e7c,2021-12-14_20h41.27.758,PRaM,2021.2.3,Win32,49.54419342,61b8f3437b89212fae0dfade
1,2.5026,space,1.4495,0,346,346,368,1,,,6110db4e6d45d7849cd5231e,61b9002bb5887c717b9f8e7c,2021-12-14_20h41.27.758,PRaM,2021.2.3,Win32,49.54419342,61b8f3437b89212fae0dfade
1,4.214,space,4.4823,0,347,347,58,1,,,6110db4e6d45d7849cd5231e,61b9002bb5887c717b9f8e7c,2021-12-14_20h41.27.758,PRaM,2021.2.3,Win32,49.54419342,61b8f3437b89212fae0dfade
1,1.0884,space,0.02,0,348,348,163,1,,,6110db4e6d45d7849cd5231e,61b9002bb5887c717b9f8e7c,2021-12-14_20h41.27.758,PRaM,2021.2.3,Win32,49.54419342,61b8f3437b89212fae0dfade
1,3.9717,space,2.3506,0,349,349,363,1,,,6110db4e6d45d7849cd5231e,61b9002bb5887c717b9f8e7c,2021-12-14_20h41.27.758,PRaM,2021.2.3,Win32,49.54419342,61b8f3437b89212fae0dfade
1,6.7421,space,5.5465,0,350,350,206,1,,,6110db4e6d45d7849cd5231e,61b9002bb5887c717b9f8e7c,2021-12-14_20h41.27.758,PRaM,2021.2.3,Win32,49.54419342,61b8f3437b89212fae0dfade
1,4.0484,space,2.386,0,351,351,358,1,,,6110db4e6d45d7849cd5231e,61b9002bb5887c717b9f8e7c,2021-12-14_20h41.27.758,PRaM,2021.2.3,Win32,49.54419342,61b8f3437b89212fae0dfade
1,1.3731,space,0.1095,0,352,352,342,1,,,6110db4e6d45d7849cd5231e,61b9002bb5887c717b9f8e7c,2021-12-14_20h41.27.758,PRaM,2021.2.3,Win32,49.54419342,61b8f3437b89212fae0dfade
1,1.0453,space,0.2608,0,353,353,176,1,,,6110db4e6d45d7849cd5231e,61b9002bb5887c717b9f8e7c,2021-12-14_20h41.27.758,PRaM,2021.2.3,Win32,49.54419342,61b8f3437b89212fae0dfade
1,4.5359,space,4.5023,0,354,354,103,1,,,6110db4e6d45d7849cd5231e,61b9002bb5887c717b9f8e7c,2021-12-14_20h41.27.758,PRaM,2021.2.3,Win32,49.54419342,61b8f3437b89212fae0dfade
9,2.4237,space,0.7812,0,355,355,137,1,,,6110db4e6d45d7849cd5231e,61b9002bb5887c717b9f8e7c,2021-12-14_20h41.27.758,PRaM,2021.2.3,Win32,49.54419342,61b8f3437b89212fae0dfade
1,1.5733,space,0.6555,0,356,356,330,1,,,6110db4e6d45d7849cd5231e,61b9002bb5887c717b9f8e7c,2021-12-14_20h41.27.758,PRaM,2021.2.3,Win32,49.54419342,61b8f3437b89212fae0dfade
6,2.0246,space,0.3436,0,357,357,340,1,,,6110db4e6d45d7849cd5231e,61b9002bb5887c717b9f8e7c,2021-12-14_20h41.27.758,PRaM,2021.2.3,Win32,49.54419342,61b8f3437b89212fae0dfade
1,639.6369,space,640.3772,0,358,358,274,1,,,6110db4e6d45d7849cd5231e,61b9002bb5887c717b9f8e7c,2021-12-14_20h41.27.758,PRaM,2021.2.3,Win32,49.54419342,61b8f3437b89212fae0dfade
1,4.3893,space,3.7205,0,359,359,265,1,,,6110db4e6d45d7849cd5231e,61b9002bb5887c717b9f8e7c,2021-12-14_20h41.27.758,PRaM,2021.2.3,Win32,49.54419342,61b8f3437b89212fae0dfade
1,3.5439,space,2.2881,0,360,360,281,1,,,6110db4e6d45d7849cd5231e,61b9002bb5887c717b9f8e7c,2021-12-14_20h41.27.758,PRaM,2021.2.3,Win32,49.54419342,61b8f3437b89212fae0dfade
6,3.5089,space,2.3448,0,361,361,17,1,,,6110db4e6d45d7849cd5231e,61b9002bb5887c717b9f8e7c,2021-12-14_20h41.27.758,PRaM,2021.2.3,Win32,49.54419342,61b8f3437b89212fae0dfade
1,3.1893,space,1.9641,0,362,362,5,1,,,6110db4e6d45d7849cd5231e,61b9002bb5887c717b9f8e7c,2021-12-14_20h41.27.758,PRaM,2021.2.3,Win32,49.54419342,61b8f3437b89212fae0dfade
4,3.4144,space,2.3087,0,363,363,59,1,,,6110db4e6d45d7849cd5231e,61b9002bb5887c717b9f8e7c,2021-12-14_20h41.27.758,PRaM,2021.2.3,Win32,49.54419342,61b8f3437b89212fae0dfade
1,8.1174,space,7.0152,0,364,364,49,1,,,6110db4e6d45d7849cd5231e,61b9002bb5887c717b9f8e7c,2021-12-14_20h41.27.758,PRaM,2021.2.3,Win32,49.54419342,61b8f3437b89212fae0dfade
1,4.0203,space,2.8004,0,365,365,351,1,,,6110db4e6d45d7849cd5231e,61b9002bb5887c717b9f8e7c,2021-12-14_20h41.27.758,PRaM,2021.2.3,Win32,49.54419342,61b8f3437b89212fae0dfade
1,3.9059,space,2.6165,0,366,366,15,1,,,6110db4e6d45d7849cd5231e,61b9002bb5887c717b9f8e7c,2021-12-14_20h41.27.758,PRaM,2021.2.3,Win32,49.54419342,61b8f3437b89212fae0dfade
1,4.8272,space,3.5375,0,367,367,57,1,,,6110db4e6d45d7849cd5231e,61b9002bb5887c717b9f8e7c,2021-12-14_20h41.27.758,PRaM,2021.2.3,Win32,49.54419342,61b8f3437b89212fae0dfade
1,4.3369,space,3.9293,0,368,368,242,1,,,6110db4e6d45d7849cd5231e,61b9002bb5887c717b9f8e7c,2021-12-14_20h41.27.758,PRaM,2021.2.3,Win32,49.54419342,61b8f3437b89212fae0dfade
1,2.5113,space,1.6411,0,369,369,109,1,,,6110db4e6d45d7849cd5231e,61b9002bb5887c717b9f8e7c,2021-12-14_20h41.27.758,PRaM,2021.2.3,Win32,49.54419342,61b8f3437b89212fae0dfade
1,2.4028,space,1.0492,0,370,370,121,1,,,6110db4e6d45d7849cd5231e,61b9002bb5887c717b9f8e7c,2021-12-14_20h41.27.758,PRaM,2021.2.3,Win32,49.54419342,61b8f3437b89212fae0dfade
1,2.1266,space,1.0821,0,371,371,156,1,,,6110db4e6d45d7849cd5231e,61b9002bb5887c717b9f8e7c,2021-12-14_20h41.27.758,PRaM,2021.2.3,Win32,49.54419342,61b8f3437b89212fae0dfade
1,3.5026,space,2.2734,0,372,372,125,1,,,6110db4e6d45d7849cd5231e,61b9002bb5887c717b9f8e7c,2021-12-14_20h41.27.758,PRaM,2021.2.3,Win32,49.54419342,61b8f3437b89212fae0dfade
1,5.6425,space,4.4212,0,373,373,267,1,,,6110db4e6d45d7849cd5231e,61b9002bb5887c717b9f8e7c,2021-12-14_20h41.27.758,PRaM,2021.2.3,Win32,49.54419342,61b8f3437b89212fae0dfade
1,1.6269,space,0.5855,0,374,374,327,1,,,6110db4e6d45d7849cd5231e,61b9002bb5887c717b9f8e7c,2021-12-14_20h41.27.758,PRaM,2021.2.3,Win32,49.54419342,61b8f3437b89212fae0dfade
1,1.3996,space,0.2699,0,375,375,105,1,,,6110db4e6d45d7849cd5231e,61b9002bb5887c717b9f8e7c,2021-12-14_20h41.27.758,PRaM,2021.2.3,Win32,49.54419342,61b8f3437b89212fae0dfade
1,2.0699,space,1.2618,0,376,376,275,1,,,6110db4e6d45d7849cd5231e,61b9002bb5887c717b9f8e7c,2021-12-14_20h41.27.758,PRaM,2021.2.3,Win32,49.54419342,61b8f3437b89212fae0dfade
1,1.3724,space,0.2372,0,377,377,145,1,,,6110db4e6d45d7849cd5231e,61b9002bb5887c717b9f8e7c,2021-12-14_20h41.27.758,PRaM,2021.2.3,Win32,49.54419342,61b8f3437b89212fae0dfade
