Rating.response,Rating.rt,EndTrial.keys,EndTrial.rt,trials.thisRepN,trials.thisTrialN,trials.thisN,trials.thisIndex,trials.ran,Pos1,Pos2,participant,session,date,expName,psychopyVersion,OS,frameRate,study_id
1,8.272,space,8.6671,0,0,0,94,1,,,61115c54d46f4606854c8843,61b9000faed682a91429f075,2021-12-14_15h35.54.760,PRaM,2021.2.3,Win32,59.61962678,61b8f3437b89212fae0dfadf
1,2.5329,space,0.9521,0,1,1,283,1,,,61115c54d46f4606854c8843,61b9000faed682a91429f075,2021-12-14_15h35.54.760,PRaM,2021.2.3,Win32,59.61962678,61b8f3437b89212fae0dfadf
6,6.8967,space,5.2718,0,2,2,296,1,,,61115c54d46f4606854c8843,61b9000faed682a91429f075,2021-12-14_15h35.54.760,PRaM,2021.2.3,Win32,59.61962678,61b8f3437b89212fae0dfadf
3,2.554,space,1.1867,0,3,3,376,1,,,61115c54d46f4606854c8843,61b9000faed682a91429f075,2021-12-14_15h35.54.760,PRaM,2021.2.3,Win32,59.61962678,61b8f3437b89212fae0dfadf
2,2.041,space,1.3186,0,4,4,39,1,,,61115c54d46f4606854c8843,61b9000faed682a91429f075,2021-12-14_15h35.54.760,PRaM,2021.2.3,Win32,59.61962678,61b8f3437b89212fae0dfadf
7,1.9987,space,0.5369,0,5,5,326,1,,,61115c54d46f4606854c8843,61b9000faed682a91429f075,2021-12-14_15h35.54.760,PRaM,2021.2.3,Win32,59.61962678,61b8f3437b89212fae0dfadf
5,3.1202,space,1.5748,0,6,6,201,1,,,61115c54d46f4606854c8843,61b9000faed682a91429f075,2021-12-14_15h35.54.760,PRaM,2021.2.3,Win32,59.61962678,61b8f3437b89212fae0dfadf
2,2.0786,space,0.568,0,7,7,322,1,,,61115c54d46f4606854c8843,61b9000faed682a91429f075,2021-12-14_15h35.54.760,PRaM,2021.2.3,Win32,59.61962678,61b8f3437b89212fae0dfadf
3,2.4866,space,1.0018,0,8,8,341,1,,,61115c54d46f4606854c8843,61b9000faed682a91429f075,2021-12-14_15h35.54.760,PRaM,2021.2.3,Win32,59.61962678,61b8f3437b89212fae0dfadf
2,5.3134,space,3.683,0,9,9,300,1,,,61115c54d46f4606854c8843,61b9000faed682a91429f075,2021-12-14_15h35.54.760,PRaM,2021.2.3,Win32,59.61962678,61b8f3437b89212fae0dfadf
1,4.7114,space,3.1737,0,10,10,65,1,,,61115c54d46f4606854c8843,61b9000faed682a91429f075,2021-12-14_15h35.54.760,PRaM,2021.2.3,Win32,59.61962678,61b8f3437b89212fae0dfadf
1,1.9549,space,0.4678,0,11,11,268,1,,,61115c54d46f4606854c8843,61b9000faed682a91429f075,2021-12-14_15h35.54.760,PRaM,2021.2.3,Win32,59.61962678,61b8f3437b89212fae0dfadf
5,3.1305,space,1.5239,0,12,12,135,1,,,61115c54d46f4606854c8843,61b9000faed682a91429f075,2021-12-14_15h35.54.760,PRaM,2021.2.3,Win32,59.61962678,61b8f3437b89212fae0dfadf
1,3.5259,space,1.8725,0,13,13,91,1,,,61115c54d46f4606854c8843,61b9000faed682a91429f075,2021-12-14_15h35.54.760,PRaM,2021.2.3,Win32,59.61962678,61b8f3437b89212fae0dfadf
4,5.8396,space,6.0178,0,14,14,124,1,,,61115c54d46f4606854c8843,61b9000faed682a91429f075,2021-12-14_15h35.54.760,PRaM,2021.2.3,Win32,59.61962678,61b8f3437b89212fae0dfadf
7,2.0044,space,0.3716,0,15,15,325,1,,,61115c54d46f4606854c8843,61b9000faed682a91429f075,2021-12-14_15h35.54.760,PRaM,2021.2.3,Win32,59.61962678,61b8f3437b89212fae0dfadf
7,1.6563,space,0.1205,0,16,16,7,1,,,61115c54d46f4606854c8843,61b9000faed682a91429f075,2021-12-14_15h35.54.760,PRaM,2021.2.3,Win32,59.61962678,61b8f3437b89212fae0dfadf
4,3.3129,space,1.7209,0,17,17,266,1,,,61115c54d46f4606854c8843,61b9000faed682a91429f075,2021-12-14_15h35.54.760,PRaM,2021.2.3,Win32,59.61962678,61b8f3437b89212fae0dfadf
5,3.8362,space,2.2394,0,18,18,123,1,,,61115c54d46f4606854c8843,61b9000faed682a91429f075,2021-12-14_15h35.54.760,PRaM,2021.2.3,Win32,59.61962678,61b8f3437b89212fae0dfadf
5,2.2373,space,0.5822,0,19,19,148,1,,,61115c54d46f4606854c8843,61b9000faed682a91429f075,2021-12-14_15h35.54.760,PRaM,2021.2.3,Win32,59.61962678,61b8f3437b89212fae0dfadf
4,8.4632,space,6.8383,0,20,20,359,1,,,61115c54d46f4606854c8843,61b9000faed682a91429f075,2021-12-14_15h35.54.760,PRaM,2021.2.3,Win32,59.61962678,61b8f3437b89212fae0dfadf
6,7.0547,space,5.4343,0,21,21,165,1,,,61115c54d46f4606854c8843,61b9000faed682a91429f075,2021-12-14_15h35.54.760,PRaM,2021.2.3,Win32,59.61962678,61b8f3437b89212fae0dfadf
6,8.7518,space,7.6692,0,22,22,6,1,,,61115c54d46f4606854c8843,61b9000faed682a91429f075,2021-12-14_15h35.54.760,PRaM,2021.2.3,Win32,59.61962678,61b8f3437b89212fae0dfadf
7,2.421,space,0.635,0,23,23,319,1,,,61115c54d46f4606854c8843,61b9000faed682a91429f075,2021-12-14_15h35.54.760,PRaM,2021.2.3,Win32,59.61962678,61b8f3437b89212fae0dfadf
6,2.9593,space,1.5047,0,24,24,142,1,,,61115c54d46f4606854c8843,61b9000faed682a91429f075,2021-12-14_15h35.54.760,PRaM,2021.2.3,Win32,59.61962678,61b8f3437b89212fae0dfadf
4,1.9595,space,0.3352,0,25,25,292,1,,,61115c54d46f4606854c8843,61b9000faed682a91429f075,2021-12-14_15h35.54.760,PRaM,2021.2.3,Win32,59.61962678,61b8f3437b89212fae0dfadf
1,2.0701,space,0.5381,0,26,26,190,1,,,61115c54d46f4606854c8843,61b9000faed682a91429f075,2021-12-14_15h35.54.760,PRaM,2021.2.3,Win32,59.61962678,61b8f3437b89212fae0dfadf
3,2.7205,space,1.1512,0,27,27,193,1,,,61115c54d46f4606854c8843,61b9000faed682a91429f075,2021-12-14_15h35.54.760,PRaM,2021.2.3,Win32,59.61962678,61b8f3437b89212fae0dfadf
1,2.7811,space,1.1682,0,28,28,41,1,,,61115c54d46f4606854c8843,61b9000faed682a91429f075,2021-12-14_15h35.54.760,PRaM,2021.2.3,Win32,59.61962678,61b8f3437b89212fae0dfadf
8,3.6722,space,2.0591,0,29,29,84,1,,,61115c54d46f4606854c8843,61b9000faed682a91429f075,2021-12-14_15h35.54.760,PRaM,2021.2.3,Win32,59.61962678,61b8f3437b89212fae0dfadf
3,2.6388,space,1.5061,0,30,30,167,1,,,61115c54d46f4606854c8843,61b9000faed682a91429f075,2021-12-14_15h35.54.760,PRaM,2021.2.3,Win32,59.61962678,61b8f3437b89212fae0dfadf
2,11.8691,space,11.0214,0,31,31,215,1,,,61115c54d46f4606854c8843,61b9000faed682a91429f075,2021-12-14_15h35.54.760,PRaM,2021.2.3,Win32,59.61962678,61b8f3437b89212fae0dfadf
2,2.2738,space,0.9155,0,32,32,287,1,,,61115c54d46f4606854c8843,61b9000faed682a91429f075,2021-12-14_15h35.54.760,PRaM,2021.2.3,Win32,59.61962678,61b8f3437b89212fae0dfadf
6,1.8144,space,0.4679,0,33,33,346,1,,,61115c54d46f4606854c8843,61b9000faed682a91429f075,2021-12-14_15h35.54.760,PRaM,2021.2.3,Win32,59.61962678,61b8f3437b89212fae0dfadf
3,2.2747,space,0.5347,0,34,34,343,1,,,61115c54d46f4606854c8843,61b9000faed682a91429f075,2021-12-14_15h35.54.760,PRaM,2021.2.3,Win32,59.61962678,61b8f3437b89212fae0dfadf
8,3.1049,space,2.6695,0,35,35,83,1,,,61115c54d46f4606854c8843,61b9000faed682a91429f075,2021-12-14_15h35.54.760,PRaM,2021.2.3,Win32,59.61962678,61b8f3437b89212fae0dfadf
8,1.8359,space,0.2189,0,36,36,242,1,,,61115c54d46f4606854c8843,61b9000faed682a91429f075,2021-12-14_15h35.54.760,PRaM,2021.2.3,Win32,59.61962678,61b8f3437b89212fae0dfadf
2,1.9207,space,0.3503,0,37,37,35,1,,,61115c54d46f4606854c8843,61b9000faed682a91429f075,2021-12-14_15h35.54.760,PRaM,2021.2.3,Win32,59.61962678,61b8f3437b89212fae0dfadf
8,1.7387,space,2.0239,0,38,38,208,1,,,61115c54d46f4606854c8843,61b9000faed682a91429f075,2021-12-14_15h35.54.760,PRaM,2021.2.3,Win32,59.61962678,61b8f3437b89212fae0dfadf
5,2.9768,space,1.2518,0,39,39,305,1,,,61115c54d46f4606854c8843,61b9000faed682a91429f075,2021-12-14_15h35.54.760,PRaM,2021.2.3,Win32,59.61962678,61b8f3437b89212fae0dfadf
6,1.3872,space,0.6548,0,40,40,46,1,,,61115c54d46f4606854c8843,61b9000faed682a91429f075,2021-12-14_15h35.54.760,PRaM,2021.2.3,Win32,59.61962678,61b8f3437b89212fae0dfadf
6,3.496,space,1.9895,0,41,41,221,1,,,61115c54d46f4606854c8843,61b9000faed682a91429f075,2021-12-14_15h35.54.760,PRaM,2021.2.3,Win32,59.61962678,61b8f3437b89212fae0dfadf
2,1.8361,space,0.2269,0,42,42,275,1,,,61115c54d46f4606854c8843,61b9000faed682a91429f075,2021-12-14_15h35.54.760,PRaM,2021.2.3,Win32,59.61962678,61b8f3437b89212fae0dfadf
6,1.9179,space,0.32,0,43,43,280,1,,,61115c54d46f4606854c8843,61b9000faed682a91429f075,2021-12-14_15h35.54.760,PRaM,2021.2.3,Win32,59.61962678,61b8f3437b89212fae0dfadf
7,2.061,space,0.4967,0,44,44,149,1,,,61115c54d46f4606854c8843,61b9000faed682a91429f075,2021-12-14_15h35.54.760,PRaM,2021.2.3,Win32,59.61962678,61b8f3437b89212fae0dfadf
6,4.6327,space,3.0772,0,45,45,256,1,,,61115c54d46f4606854c8843,61b9000faed682a91429f075,2021-12-14_15h35.54.760,PRaM,2021.2.3,Win32,59.61962678,61b8f3437b89212fae0dfadf
1,2.0628,space,0.4517,0,46,46,107,1,,,61115c54d46f4606854c8843,61b9000faed682a91429f075,2021-12-14_15h35.54.760,PRaM,2021.2.3,Win32,59.61962678,61b8f3437b89212fae0dfadf
8,15.2927,space,13.6902,0,47,47,285,1,,,61115c54d46f4606854c8843,61b9000faed682a91429f075,2021-12-14_15h35.54.760,PRaM,2021.2.3,Win32,59.61962678,61b8f3437b89212fae0dfadf
6,1.7353,space,0.009,0,48,48,110,1,,,61115c54d46f4606854c8843,61b9000faed682a91429f075,2021-12-14_15h35.54.760,PRaM,2021.2.3,Win32,59.61962678,61b8f3437b89212fae0dfadf
5,1.555,space,0.3583,0,49,49,30,1,,,61115c54d46f4606854c8843,61b9000faed682a91429f075,2021-12-14_15h35.54.760,PRaM,2021.2.3,Win32,59.61962678,61b8f3437b89212fae0dfadf
8,3.0768,space,1.3593,0,50,50,17,1,,,61115c54d46f4606854c8843,61b9000faed682a91429f075,2021-12-14_15h35.54.760,PRaM,2021.2.3,Win32,59.61962678,61b8f3437b89212fae0dfadf
3,3.6856,space,2.0652,0,51,51,356,1,,,61115c54d46f4606854c8843,61b9000faed682a91429f075,2021-12-14_15h35.54.760,PRaM,2021.2.3,Win32,59.61962678,61b8f3437b89212fae0dfadf
7,4.6787,space,3.1059,0,52,52,246,1,,,61115c54d46f4606854c8843,61b9000faed682a91429f075,2021-12-14_15h35.54.760,PRaM,2021.2.3,Win32,59.61962678,61b8f3437b89212fae0dfadf
7,1.104,space,0.2587,0,53,53,59,1,,,61115c54d46f4606854c8843,61b9000faed682a91429f075,2021-12-14_15h35.54.760,PRaM,2021.2.3,Win32,59.61962678,61b8f3437b89212fae0dfadf
4,2.1445,space,0.6016,0,54,54,374,1,,,61115c54d46f4606854c8843,61b9000faed682a91429f075,2021-12-14_15h35.54.760,PRaM,2021.2.3,Win32,59.61962678,61b8f3437b89212fae0dfadf
1,2.8696,space,1.3196,0,55,55,70,1,,,61115c54d46f4606854c8843,61b9000faed682a91429f075,2021-12-14_15h35.54.760,PRaM,2021.2.3,Win32,59.61962678,61b8f3437b89212fae0dfadf
6,7.6041,space,6.0135,0,56,56,281,1,,,61115c54d46f4606854c8843,61b9000faed682a91429f075,2021-12-14_15h35.54.760,PRaM,2021.2.3,Win32,59.61962678,61b8f3437b89212fae0dfadf
4,19.8869,space,18.2865,0,57,57,116,1,,,61115c54d46f4606854c8843,61b9000faed682a91429f075,2021-12-14_15h35.54.760,PRaM,2021.2.3,Win32,59.61962678,61b8f3437b89212fae0dfadf
2,2.3211,space,0.7368,0,58,58,284,1,,,61115c54d46f4606854c8843,61b9000faed682a91429f075,2021-12-14_15h35.54.760,PRaM,2021.2.3,Win32,59.61962678,61b8f3437b89212fae0dfadf
7,2.385,space,0.8064,0,59,59,3,1,,,61115c54d46f4606854c8843,61b9000faed682a91429f075,2021-12-14_15h35.54.760,PRaM,2021.2.3,Win32,59.61962678,61b8f3437b89212fae0dfadf
1,2.5915,space,0.9411,0,60,60,54,1,,,61115c54d46f4606854c8843,61b9000faed682a91429f075,2021-12-14_15h35.54.760,PRaM,2021.2.3,Win32,59.61962678,61b8f3437b89212fae0dfadf
2,2.7659,space,1.2184,0,61,61,189,1,,,61115c54d46f4606854c8843,61b9000faed682a91429f075,2021-12-14_15h35.54.760,PRaM,2021.2.3,Win32,59.61962678,61b8f3437b89212fae0dfadf
7,1.9549,space,0.3465,0,62,62,351,1,,,61115c54d46f4606854c8843,61b9000faed682a91429f075,2021-12-14_15h35.54.760,PRaM,2021.2.3,Win32,59.61962678,61b8f3437b89212fae0dfadf
1,19.71,space,18.1432,0,63,63,78,1,,,61115c54d46f4606854c8843,61b9000faed682a91429f075,2021-12-14_15h35.54.760,PRaM,2021.2.3,Win32,59.61962678,61b8f3437b89212fae0dfadf
6,2.3033,space,0.7026,0,64,64,174,1,,,61115c54d46f4606854c8843,61b9000faed682a91429f075,2021-12-14_15h35.54.760,PRaM,2021.2.3,Win32,59.61962678,61b8f3437b89212fae0dfadf
7,1.6617,space,0.5845,0,65,65,112,1,,,61115c54d46f4606854c8843,61b9000faed682a91429f075,2021-12-14_15h35.54.760,PRaM,2021.2.3,Win32,59.61962678,61b8f3437b89212fae0dfadf
7,1.7699,space,0.2335,0,66,66,331,1,,,61115c54d46f4606854c8843,61b9000faed682a91429f075,2021-12-14_15h35.54.760,PRaM,2021.2.3,Win32,59.61962678,61b8f3437b89212fae0dfadf
5,1.6758,space,0.0417,0,67,67,336,1,,,61115c54d46f4606854c8843,61b9000faed682a91429f075,2021-12-14_15h35.54.760,PRaM,2021.2.3,Win32,59.61962678,61b8f3437b89212fae0dfadf
3,2.8049,space,1.3225,0,68,68,160,1,,,61115c54d46f4606854c8843,61b9000faed682a91429f075,2021-12-14_15h35.54.760,PRaM,2021.2.3,Win32,59.61962678,61b8f3437b89212fae0dfadf
6,1.7612,space,0.1352,0,69,69,177,1,,,61115c54d46f4606854c8843,61b9000faed682a91429f075,2021-12-14_15h35.54.760,PRaM,2021.2.3,Win32,59.61962678,61b8f3437b89212fae0dfadf
7,2.1711,space,0.9661,0,70,70,298,1,,,61115c54d46f4606854c8843,61b9000faed682a91429f075,2021-12-14_15h35.54.760,PRaM,2021.2.3,Win32,59.61962678,61b8f3437b89212fae0dfadf
3,1.7155,space,0.5174,0,71,71,72,1,,,61115c54d46f4606854c8843,61b9000faed682a91429f075,2021-12-14_15h35.54.760,PRaM,2021.2.3,Win32,59.61962678,61b8f3437b89212fae0dfadf
7,3.5626,space,1.9895,0,72,72,244,1,,,61115c54d46f4606854c8843,61b9000faed682a91429f075,2021-12-14_15h35.54.760,PRaM,2021.2.3,Win32,59.61962678,61b8f3437b89212fae0dfadf
6,1.8872,space,0.3161,0,73,73,282,1,,,61115c54d46f4606854c8843,61b9000faed682a91429f075,2021-12-14_15h35.54.760,PRaM,2021.2.3,Win32,59.61962678,61b8f3437b89212fae0dfadf
5,2.3471,space,0.7513,0,74,74,126,1,,,61115c54d46f4606854c8843,61b9000faed682a91429f075,2021-12-14_15h35.54.760,PRaM,2021.2.3,Win32,59.61962678,61b8f3437b89212fae0dfadf
5,2.421,space,0.8162,0,75,75,43,1,,,61115c54d46f4606854c8843,61b9000faed682a91429f075,2021-12-14_15h35.54.760,PRaM,2021.2.3,Win32,59.61962678,61b8f3437b89212fae0dfadf
1,3.5602,space,1.9699,0,76,76,286,1,,,61115c54d46f4606854c8843,61b9000faed682a91429f075,2021-12-14_15h35.54.760,PRaM,2021.2.3,Win32,59.61962678,61b8f3437b89212fae0dfadf
4,3.6242,space,2.0425,0,77,77,90,1,,,61115c54d46f4606854c8843,61b9000faed682a91429f075,2021-12-14_15h35.54.760,PRaM,2021.2.3,Win32,59.61962678,61b8f3437b89212fae0dfadf
8,2.8879,space,1.2851,0,78,78,207,1,,,61115c54d46f4606854c8843,61b9000faed682a91429f075,2021-12-14_15h35.54.760,PRaM,2021.2.3,Win32,59.61962678,61b8f3437b89212fae0dfadf
1,25.9173,space,24.32,0,79,79,241,1,,,61115c54d46f4606854c8843,61b9000faed682a91429f075,2021-12-14_15h35.54.760,PRaM,2021.2.3,Win32,59.61962678,61b8f3437b89212fae0dfadf
1,2.8701,space,1.3002,0,80,80,217,1,,,61115c54d46f4606854c8843,61b9000faed682a91429f075,2021-12-14_15h35.54.760,PRaM,2021.2.3,Win32,59.61962678,61b8f3437b89212fae0dfadf
6,2.0775,space,0.4593,0,81,81,261,1,,,61115c54d46f4606854c8843,61b9000faed682a91429f075,2021-12-14_15h35.54.760,PRaM,2021.2.3,Win32,59.61962678,61b8f3437b89212fae0dfadf
6,1.4723,space,0.7514,0,82,82,267,1,,,61115c54d46f4606854c8843,61b9000faed682a91429f075,2021-12-14_15h35.54.760,PRaM,2021.2.3,Win32,59.61962678,61b8f3437b89212fae0dfadf
8,2.0366,space,0.4559,0,83,83,134,1,,,61115c54d46f4606854c8843,61b9000faed682a91429f075,2021-12-14_15h35.54.760,PRaM,2021.2.3,Win32,59.61962678,61b8f3437b89212fae0dfadf
4,1.6724,space,0.0016,0,84,84,28,1,,,61115c54d46f4606854c8843,61b9000faed682a91429f075,2021-12-14_15h35.54.760,PRaM,2021.2.3,Win32,59.61962678,61b8f3437b89212fae0dfadf
2,2.0225,space,0.4693,0,85,85,73,1,,,61115c54d46f4606854c8843,61b9000faed682a91429f075,2021-12-14_15h35.54.760,PRaM,2021.2.3,Win32,59.61962678,61b8f3437b89212fae0dfadf
8,1.8381,space,0.3518,0,86,86,56,1,,,61115c54d46f4606854c8843,61b9000faed682a91429f075,2021-12-14_15h35.54.760,PRaM,2021.2.3,Win32,59.61962678,61b8f3437b89212fae0dfadf
6,1.6558,space,0.3694,0,87,87,321,1,,,61115c54d46f4606854c8843,61b9000faed682a91429f075,2021-12-14_15h35.54.760,PRaM,2021.2.3,Win32,59.61962678,61b8f3437b89212fae0dfadf
6,2.444,space,0.8339,0,88,88,175,1,,,61115c54d46f4606854c8843,61b9000faed682a91429f075,2021-12-14_15h35.54.760,PRaM,2021.2.3,Win32,59.61962678,61b8f3437b89212fae0dfadf
8,2.3111,space,0.985,0,89,89,288,1,,,61115c54d46f4606854c8843,61b9000faed682a91429f075,2021-12-14_15h35.54.760,PRaM,2021.2.3,Win32,59.61962678,61b8f3437b89212fae0dfadf
6,1.5134,space,0.4422,0,90,90,344,1,,,61115c54d46f4606854c8843,61b9000faed682a91429f075,2021-12-14_15h35.54.760,PRaM,2021.2.3,Win32,59.61962678,61b8f3437b89212fae0dfadf
4,1.5431,space,0.4729,0,91,91,357,1,,,61115c54d46f4606854c8843,61b9000faed682a91429f075,2021-12-14_15h35.54.760,PRaM,2021.2.3,Win32,59.61962678,61b8f3437b89212fae0dfadf
2,2.424,space,0.8672,0,92,92,15,1,,,61115c54d46f4606854c8843,61b9000faed682a91429f075,2021-12-14_15h35.54.760,PRaM,2021.2.3,Win32,59.61962678,61b8f3437b89212fae0dfadf
5,1.9134,space,0.3051,0,93,93,96,1,,,61115c54d46f4606854c8843,61b9000faed682a91429f075,2021-12-14_15h35.54.760,PRaM,2021.2.3,Win32,59.61962678,61b8f3437b89212fae0dfadf
6,1.9582,space,0.3339,0,94,94,259,1,,,61115c54d46f4606854c8843,61b9000faed682a91429f075,2021-12-14_15h35.54.760,PRaM,2021.2.3,Win32,59.61962678,61b8f3437b89212fae0dfadf
6,1.2881,space,0.2858,0,95,95,254,1,,,61115c54d46f4606854c8843,61b9000faed682a91429f075,2021-12-14_15h35.54.760,PRaM,2021.2.3,Win32,59.61962678,61b8f3437b89212fae0dfadf
2,57.2233,space,55.6351,0,96,96,360,1,,,61115c54d46f4606854c8843,61b9000faed682a91429f075,2021-12-14_15h35.54.760,PRaM,2021.2.3,Win32,59.61962678,61b8f3437b89212fae0dfadf
2,1.8074,space,0.1741,0,97,97,212,1,,,61115c54d46f4606854c8843,61b9000faed682a91429f075,2021-12-14_15h35.54.760,PRaM,2021.2.3,Win32,59.61962678,61b8f3437b89212fae0dfadf
2,0.9076,space,0.5209,0,98,98,128,1,,,61115c54d46f4606854c8843,61b9000faed682a91429f075,2021-12-14_15h35.54.760,PRaM,2021.2.3,Win32,59.61962678,61b8f3437b89212fae0dfadf
6,1.5127,space,0.2889,0,99,99,363,1,,,61115c54d46f4606854c8843,61b9000faed682a91429f075,2021-12-14_15h35.54.760,PRaM,2021.2.3,Win32,59.61962678,61b8f3437b89212fae0dfadf
6,2.1119,space,0.8032,0,100,100,166,1,,,61115c54d46f4606854c8843,61b9000faed682a91429f075,2021-12-14_15h35.54.760,PRaM,2021.2.3,Win32,59.61962678,61b8f3437b89212fae0dfadf
6,1.4742,space,0.3385,0,101,101,249,1,,,61115c54d46f4606854c8843,61b9000faed682a91429f075,2021-12-14_15h35.54.760,PRaM,2021.2.3,Win32,59.61962678,61b8f3437b89212fae0dfadf
3,1.5694,space,0.4547,0,102,102,82,1,,,61115c54d46f4606854c8843,61b9000faed682a91429f075,2021-12-14_15h35.54.760,PRaM,2021.2.3,Win32,59.61962678,61b8f3437b89212fae0dfadf
2,1.9255,space,0.3426,0,103,103,130,1,,,61115c54d46f4606854c8843,61b9000faed682a91429f075,2021-12-14_15h35.54.760,PRaM,2021.2.3,Win32,59.61962678,61b8f3437b89212fae0dfadf
6,1.7463,space,0.1365,0,104,104,274,1,,,61115c54d46f4606854c8843,61b9000faed682a91429f075,2021-12-14_15h35.54.760,PRaM,2021.2.3,Win32,59.61962678,61b8f3437b89212fae0dfadf
5,2.2109,space,0.6206,0,105,105,361,1,,,61115c54d46f4606854c8843,61b9000faed682a91429f075,2021-12-14_15h35.54.760,PRaM,2021.2.3,Win32,59.61962678,61b8f3437b89212fae0dfadf
2,6.0399,space,4.4087,0,106,106,353,1,,,61115c54d46f4606854c8843,61b9000faed682a91429f075,2021-12-14_15h35.54.760,PRaM,2021.2.3,Win32,59.61962678,61b8f3437b89212fae0dfadf
1,2.4402,space,0.8989,0,107,107,67,1,,,61115c54d46f4606854c8843,61b9000faed682a91429f075,2021-12-14_15h35.54.760,PRaM,2021.2.3,Win32,59.61962678,61b8f3437b89212fae0dfadf
2,9.8367,space,8.3008,0,108,108,203,1,,,61115c54d46f4606854c8843,61b9000faed682a91429f075,2021-12-14_15h35.54.760,PRaM,2021.2.3,Win32,59.61962678,61b8f3437b89212fae0dfadf
2,1.5715,space,0.6512,0,109,109,55,1,,,61115c54d46f4606854c8843,61b9000faed682a91429f075,2021-12-14_15h35.54.760,PRaM,2021.2.3,Win32,59.61962678,61b8f3437b89212fae0dfadf
2,4.0017,space,2.9736,0,110,110,265,1,,,61115c54d46f4606854c8843,61b9000faed682a91429f075,2021-12-14_15h35.54.760,PRaM,2021.2.3,Win32,59.61962678,61b8f3437b89212fae0dfadf
6,2.6117,space,2.9694,0,111,111,64,1,,,61115c54d46f4606854c8843,61b9000faed682a91429f075,2021-12-14_15h35.54.760,PRaM,2021.2.3,Win32,59.61962678,61b8f3437b89212fae0dfadf
4,3.7338,space,2.1086,0,112,112,327,1,,,61115c54d46f4606854c8843,61b9000faed682a91429f075,2021-12-14_15h35.54.760,PRaM,2021.2.3,Win32,59.61962678,61b8f3437b89212fae0dfadf
4,1.3868,space,12.0183,0,113,113,87,1,,,61115c54d46f4606854c8843,61b9000faed682a91429f075,2021-12-14_15h35.54.760,PRaM,2021.2.3,Win32,59.61962678,61b8f3437b89212fae0dfadf
6,2.1969,space,0.6743,0,114,114,255,1,,,61115c54d46f4606854c8843,61b9000faed682a91429f075,2021-12-14_15h35.54.760,PRaM,2021.2.3,Win32,59.61962678,61b8f3437b89212fae0dfadf
6,5.4673,space,3.9041,0,115,115,337,1,,,61115c54d46f4606854c8843,61b9000faed682a91429f075,2021-12-14_15h35.54.760,PRaM,2021.2.3,Win32,59.61962678,61b8f3437b89212fae0dfadf
6,1.3874,space,0.3062,0,116,116,151,1,,,61115c54d46f4606854c8843,61b9000faed682a91429f075,2021-12-14_15h35.54.760,PRaM,2021.2.3,Win32,59.61962678,61b8f3437b89212fae0dfadf
6,1.222,space,0.2904,0,117,117,270,1,,,61115c54d46f4606854c8843,61b9000faed682a91429f075,2021-12-14_15h35.54.760,PRaM,2021.2.3,Win32,59.61962678,61b8f3437b89212fae0dfadf
1,2.2373,space,0.6668,0,118,118,101,1,,,61115c54d46f4606854c8843,61b9000faed682a91429f075,2021-12-14_15h35.54.760,PRaM,2021.2.3,Win32,59.61962678,61b8f3437b89212fae0dfadf
1,1.9204,space,0.3536,0,119,119,111,1,,,61115c54d46f4606854c8843,61b9000faed682a91429f075,2021-12-14_15h35.54.760,PRaM,2021.2.3,Win32,59.61962678,61b8f3437b89212fae0dfadf
4,1.7847,space,0.2013,0,120,120,145,1,,,61115c54d46f4606854c8843,61b9000faed682a91429f075,2021-12-14_15h35.54.760,PRaM,2021.2.3,Win32,59.61962678,61b8f3437b89212fae0dfadf
2,1.9398,space,0.4402,0,121,121,77,1,,,61115c54d46f4606854c8843,61b9000faed682a91429f075,2021-12-14_15h35.54.760,PRaM,2021.2.3,Win32,59.61962678,61b8f3437b89212fae0dfadf
5,6.4234,space,4.8206,0,122,122,194,1,,,61115c54d46f4606854c8843,61b9000faed682a91429f075,2021-12-14_15h35.54.760,PRaM,2021.2.3,Win32,59.61962678,61b8f3437b89212fae0dfadf
6,1.7376,space,0.1543,0,123,123,16,1,,,61115c54d46f4606854c8843,61b9000faed682a91429f075,2021-12-14_15h35.54.760,PRaM,2021.2.3,Win32,59.61962678,61b8f3437b89212fae0dfadf
3,1.2044,space,0.4423,0,124,124,214,1,,,61115c54d46f4606854c8843,61b9000faed682a91429f075,2021-12-14_15h35.54.760,PRaM,2021.2.3,Win32,59.61962678,61b8f3437b89212fae0dfadf
1,3.4585,space,1.8372,0,125,125,89,1,,,61115c54d46f4606854c8843,61b9000faed682a91429f075,2021-12-14_15h35.54.760,PRaM,2021.2.3,Win32,59.61962678,61b8f3437b89212fae0dfadf
7,4.3078,space,2.6758,0,126,126,14,1,,,61115c54d46f4606854c8843,61b9000faed682a91429f075,2021-12-14_15h35.54.760,PRaM,2021.2.3,Win32,59.61962678,61b8f3437b89212fae0dfadf
2,1.748,space,0.3858,0,127,127,257,1,,,61115c54d46f4606854c8843,61b9000faed682a91429f075,2021-12-14_15h35.54.760,PRaM,2021.2.3,Win32,59.61962678,61b8f3437b89212fae0dfadf
,,space,10.457,0,128,128,229,1,,,61115c54d46f4606854c8843,61b9000faed682a91429f075,2021-12-14_15h35.54.760,PRaM,2021.2.3,Win32,59.61962678,61b8f3437b89212fae0dfadf
6,2.1039,space,15.285,0,129,129,153,1,,,61115c54d46f4606854c8843,61b9000faed682a91429f075,2021-12-14_15h35.54.760,PRaM,2021.2.3,Win32,59.61962678,61b8f3437b89212fae0dfadf
6,1.3472,space,0.389,0,130,130,31,1,,,61115c54d46f4606854c8843,61b9000faed682a91429f075,2021-12-14_15h35.54.760,PRaM,2021.2.3,Win32,59.61962678,61b8f3437b89212fae0dfadf
6,1.6743,space,0.0204,0,131,131,147,1,,,61115c54d46f4606854c8843,61b9000faed682a91429f075,2021-12-14_15h35.54.760,PRaM,2021.2.3,Win32,59.61962678,61b8f3437b89212fae0dfadf
1,3.2918,space,1.7224,0,132,132,245,1,,,61115c54d46f4606854c8843,61b9000faed682a91429f075,2021-12-14_15h35.54.760,PRaM,2021.2.3,Win32,59.61962678,61b8f3437b89212fae0dfadf
6,24.2338,space,22.6988,0,133,133,271,1,,,61115c54d46f4606854c8843,61b9000faed682a91429f075,2021-12-14_15h35.54.760,PRaM,2021.2.3,Win32,59.61962678,61b8f3437b89212fae0dfadf
4,1.556,space,1.4379,0,134,134,238,1,,,61115c54d46f4606854c8843,61b9000faed682a91429f075,2021-12-14_15h35.54.760,PRaM,2021.2.3,Win32,59.61962678,61b8f3437b89212fae0dfadf
3,1.8053,space,0.485,0,135,135,133,1,,,61115c54d46f4606854c8843,61b9000faed682a91429f075,2021-12-14_15h35.54.760,PRaM,2021.2.3,Win32,59.61962678,61b8f3437b89212fae0dfadf
5,5.2937,space,3.717,0,136,136,158,1,,,61115c54d46f4606854c8843,61b9000faed682a91429f075,2021-12-14_15h35.54.760,PRaM,2021.2.3,Win32,59.61962678,61b8f3437b89212fae0dfadf
6,2.6855,space,1.219,0,137,137,307,1,,,61115c54d46f4606854c8843,61b9000faed682a91429f075,2021-12-14_15h35.54.760,PRaM,2021.2.3,Win32,59.61962678,61b8f3437b89212fae0dfadf
4,2.3546,space,0.8645,0,138,138,57,1,,,61115c54d46f4606854c8843,61b9000faed682a91429f075,2021-12-14_15h35.54.760,PRaM,2021.2.3,Win32,59.61962678,61b8f3437b89212fae0dfadf
7,2.2712,space,0.6811,0,139,139,213,1,,,61115c54d46f4606854c8843,61b9000faed682a91429f075,2021-12-14_15h35.54.760,PRaM,2021.2.3,Win32,59.61962678,61b8f3437b89212fae0dfadf
2,1.8049,space,0.1703,0,140,140,23,1,,,61115c54d46f4606854c8843,61b9000faed682a91429f075,2021-12-14_15h35.54.760,PRaM,2021.2.3,Win32,59.61962678,61b8f3437b89212fae0dfadf
7,1.4629,space,0.2897,0,141,141,139,1,,,61115c54d46f4606854c8843,61b9000faed682a91429f075,2021-12-14_15h35.54.760,PRaM,2021.2.3,Win32,59.61962678,61b8f3437b89212fae0dfadf
8,1.7146,space,0.0683,0,142,142,225,1,,,61115c54d46f4606854c8843,61b9000faed682a91429f075,2021-12-14_15h35.54.760,PRaM,2021.2.3,Win32,59.61962678,61b8f3437b89212fae0dfadf
5,2.4878,space,0.9183,0,143,143,93,1,,,61115c54d46f4606854c8843,61b9000faed682a91429f075,2021-12-14_15h35.54.760,PRaM,2021.2.3,Win32,59.61962678,61b8f3437b89212fae0dfadf
3,2.1056,space,0.4585,0,144,144,144,1,,,61115c54d46f4606854c8843,61b9000faed682a91429f075,2021-12-14_15h35.54.760,PRaM,2021.2.3,Win32,59.61962678,61b8f3437b89212fae0dfadf
3,6.236,space,4.7548,0,145,145,27,1,,,61115c54d46f4606854c8843,61b9000faed682a91429f075,2021-12-14_15h35.54.760,PRaM,2021.2.3,Win32,59.61962678,61b8f3437b89212fae0dfadf
5,1.8037,space,0.2215,0,146,146,81,1,,,61115c54d46f4606854c8843,61b9000faed682a91429f075,2021-12-14_15h35.54.760,PRaM,2021.2.3,Win32,59.61962678,61b8f3437b89212fae0dfadf
5,1.6864,space,0.1232,0,147,147,69,1,,,61115c54d46f4606854c8843,61b9000faed682a91429f075,2021-12-14_15h35.54.760,PRaM,2021.2.3,Win32,59.61962678,61b8f3437b89212fae0dfadf
2,13.3592,space,11.7506,0,148,148,36,1,,,61115c54d46f4606854c8843,61b9000faed682a91429f075,2021-12-14_15h35.54.760,PRaM,2021.2.3,Win32,59.61962678,61b8f3437b89212fae0dfadf
6,1.8449,space,0.2764,0,149,149,335,1,,,61115c54d46f4606854c8843,61b9000faed682a91429f075,2021-12-14_15h35.54.760,PRaM,2021.2.3,Win32,59.61962678,61b8f3437b89212fae0dfadf
3,2.6061,space,1.0511,0,150,150,191,1,,,61115c54d46f4606854c8843,61b9000faed682a91429f075,2021-12-14_15h35.54.760,PRaM,2021.2.3,Win32,59.61962678,61b8f3437b89212fae0dfadf
2,2.4093,space,0.8031,0,151,151,345,1,,,61115c54d46f4606854c8843,61b9000faed682a91429f075,2021-12-14_15h35.54.760,PRaM,2021.2.3,Win32,59.61962678,61b8f3437b89212fae0dfadf
7,1.4397,space,0.6205,0,152,152,136,1,,,61115c54d46f4606854c8843,61b9000faed682a91429f075,2021-12-14_15h35.54.760,PRaM,2021.2.3,Win32,59.61962678,61b8f3437b89212fae0dfadf
3,2.8192,space,1.2043,0,153,153,79,1,,,61115c54d46f4606854c8843,61b9000faed682a91429f075,2021-12-14_15h35.54.760,PRaM,2021.2.3,Win32,59.61962678,61b8f3437b89212fae0dfadf
6,2.0058,space,0.3923,0,154,154,62,1,,,61115c54d46f4606854c8843,61b9000faed682a91429f075,2021-12-14_15h35.54.760,PRaM,2021.2.3,Win32,59.61962678,61b8f3437b89212fae0dfadf
3,1.9711,space,0.2933,0,155,155,373,1,,,61115c54d46f4606854c8843,61b9000faed682a91429f075,2021-12-14_15h35.54.760,PRaM,2021.2.3,Win32,59.61962678,61b8f3437b89212fae0dfadf
2,1.8212,space,0.2032,0,156,156,354,1,,,61115c54d46f4606854c8843,61b9000faed682a91429f075,2021-12-14_15h35.54.760,PRaM,2021.2.3,Win32,59.61962678,61b8f3437b89212fae0dfadf
2,2.0121,space,0.3348,0,157,157,210,1,,,61115c54d46f4606854c8843,61b9000faed682a91429f075,2021-12-14_15h35.54.760,PRaM,2021.2.3,Win32,59.61962678,61b8f3437b89212fae0dfadf
1,2.59,space,0.9616,0,158,158,63,1,,,61115c54d46f4606854c8843,61b9000faed682a91429f075,2021-12-14_15h35.54.760,PRaM,2021.2.3,Win32,59.61962678,61b8f3437b89212fae0dfadf
4,1.6053,space,0.6153,0,159,159,365,1,,,61115c54d46f4606854c8843,61b9000faed682a91429f075,2021-12-14_15h35.54.760,PRaM,2021.2.3,Win32,59.61962678,61b8f3437b89212fae0dfadf
7,2.037,space,0.42,0,160,160,20,1,,,61115c54d46f4606854c8843,61b9000faed682a91429f075,2021-12-14_15h35.54.760,PRaM,2021.2.3,Win32,59.61962678,61b8f3437b89212fae0dfadf
2,1.9115,space,0.3022,0,161,161,58,1,,,61115c54d46f4606854c8843,61b9000faed682a91429f075,2021-12-14_15h35.54.760,PRaM,2021.2.3,Win32,59.61962678,61b8f3437b89212fae0dfadf
6,2.6273,space,1.0337,0,162,162,154,1,,,61115c54d46f4606854c8843,61b9000faed682a91429f075,2021-12-14_15h35.54.760,PRaM,2021.2.3,Win32,59.61962678,61b8f3437b89212fae0dfadf
1,1.8432,space,0.2206,0,163,163,2,1,,,61115c54d46f4606854c8843,61b9000faed682a91429f075,2021-12-14_15h35.54.760,PRaM,2021.2.3,Win32,59.61962678,61b8f3437b89212fae0dfadf
2,2.6714,space,1.1562,0,164,164,253,1,,,61115c54d46f4606854c8843,61b9000faed682a91429f075,2021-12-14_15h35.54.760,PRaM,2021.2.3,Win32,59.61962678,61b8f3437b89212fae0dfadf
2,3.8172,space,2.1356,0,165,165,161,1,,,61115c54d46f4606854c8843,61b9000faed682a91429f075,2021-12-14_15h35.54.760,PRaM,2021.2.3,Win32,59.61962678,61b8f3437b89212fae0dfadf
6,2.3226,space,0.6169,0,166,166,40,1,,,61115c54d46f4606854c8843,61b9000faed682a91429f075,2021-12-14_15h35.54.760,PRaM,2021.2.3,Win32,59.61962678,61b8f3437b89212fae0dfadf
5,1.9383,space,0.3126,0,167,167,98,1,,,61115c54d46f4606854c8843,61b9000faed682a91429f075,2021-12-14_15h35.54.760,PRaM,2021.2.3,Win32,59.61962678,61b8f3437b89212fae0dfadf
4,2.2844,space,0.8887,0,168,168,95,1,,,61115c54d46f4606854c8843,61b9000faed682a91429f075,2021-12-14_15h35.54.760,PRaM,2021.2.3,Win32,59.61962678,61b8f3437b89212fae0dfadf
3,2.2045,space,0.6097,0,169,169,172,1,,,61115c54d46f4606854c8843,61b9000faed682a91429f075,2021-12-14_15h35.54.760,PRaM,2021.2.3,Win32,59.61962678,61b8f3437b89212fae0dfadf
7,12.9994,space,11.3847,0,170,170,0,1,,,61115c54d46f4606854c8843,61b9000faed682a91429f075,2021-12-14_15h35.54.760,PRaM,2021.2.3,Win32,59.61962678,61b8f3437b89212fae0dfadf
5,1.8528,space,0.2509,0,171,171,157,1,,,61115c54d46f4606854c8843,61b9000faed682a91429f075,2021-12-14_15h35.54.760,PRaM,2021.2.3,Win32,59.61962678,61b8f3437b89212fae0dfadf
1,3.3606,space,1.7747,0,172,172,108,1,,,61115c54d46f4606854c8843,61b9000faed682a91429f075,2021-12-14_15h35.54.760,PRaM,2021.2.3,Win32,59.61962678,61b8f3437b89212fae0dfadf
1,2.321,space,0.7397,0,173,173,52,1,,,61115c54d46f4606854c8843,61b9000faed682a91429f075,2021-12-14_15h35.54.760,PRaM,2021.2.3,Win32,59.61962678,61b8f3437b89212fae0dfadf
7,2.3134,space,0.6727,0,174,174,222,1,,,61115c54d46f4606854c8843,61b9000faed682a91429f075,2021-12-14_15h35.54.760,PRaM,2021.2.3,Win32,59.61962678,61b8f3437b89212fae0dfadf
9,3.2091,space,1.5729,0,175,175,197,1,,,61115c54d46f4606854c8843,61b9000faed682a91429f075,2021-12-14_15h35.54.760,PRaM,2021.2.3,Win32,59.61962678,61b8f3437b89212fae0dfadf
9,1.3209,space,0.3414,0,176,176,320,1,,,61115c54d46f4606854c8843,61b9000faed682a91429f075,2021-12-14_15h35.54.760,PRaM,2021.2.3,Win32,59.61962678,61b8f3437b89212fae0dfadf
7,1.8556,space,0.227,0,177,177,216,1,,,61115c54d46f4606854c8843,61b9000faed682a91429f075,2021-12-14_15h35.54.760,PRaM,2021.2.3,Win32,59.61962678,61b8f3437b89212fae0dfadf
7,1.303,space,0.2248,0,178,178,74,1,,,61115c54d46f4606854c8843,61b9000faed682a91429f075,2021-12-14_15h35.54.760,PRaM,2021.2.3,Win32,59.61962678,61b8f3437b89212fae0dfadf
9,1.8071,space,0.2204,0,179,179,301,1,,,61115c54d46f4606854c8843,61b9000faed682a91429f075,2021-12-14_15h35.54.760,PRaM,2021.2.3,Win32,59.61962678,61b8f3437b89212fae0dfadf
7,3.1705,space,1.5715,0,180,180,358,1,,,61115c54d46f4606854c8843,61b9000faed682a91429f075,2021-12-14_15h35.54.760,PRaM,2021.2.3,Win32,59.61962678,61b8f3437b89212fae0dfadf
3,1.853,space,0.2284,0,181,181,13,1,,,61115c54d46f4606854c8843,61b9000faed682a91429f075,2021-12-14_15h35.54.760,PRaM,2021.2.3,Win32,59.61962678,61b8f3437b89212fae0dfadf
8,2.396,space,0.7595,0,182,182,115,1,,,61115c54d46f4606854c8843,61b9000faed682a91429f075,2021-12-14_15h35.54.760,PRaM,2021.2.3,Win32,59.61962678,61b8f3437b89212fae0dfadf
8,3.9701,space,2.3189,0,183,183,348,1,,,61115c54d46f4606854c8843,61b9000faed682a91429f075,2021-12-14_15h35.54.760,PRaM,2021.2.3,Win32,59.61962678,61b8f3437b89212fae0dfadf
1,4.8048,space,3.2532,0,184,184,330,1,,,61115c54d46f4606854c8843,61b9000faed682a91429f075,2021-12-14_15h35.54.760,PRaM,2021.2.3,Win32,59.61962678,61b8f3437b89212fae0dfadf
1,1.9083,space,0.2904,0,185,185,122,1,,,61115c54d46f4606854c8843,61b9000faed682a91429f075,2021-12-14_15h35.54.760,PRaM,2021.2.3,Win32,59.61962678,61b8f3437b89212fae0dfadf
2,4.3344,space,2.7442,0,186,186,294,1,,,61115c54d46f4606854c8843,61b9000faed682a91429f075,2021-12-14_15h35.54.760,PRaM,2021.2.3,Win32,59.61962678,61b8f3437b89212fae0dfadf
4,2.5728,space,0.9501,0,187,187,303,1,,,61115c54d46f4606854c8843,61b9000faed682a91429f075,2021-12-14_15h35.54.760,PRaM,2021.2.3,Win32,59.61962678,61b8f3437b89212fae0dfadf
7,2.5656,space,0.953,0,188,188,372,1,,,61115c54d46f4606854c8843,61b9000faed682a91429f075,2021-12-14_15h35.54.760,PRaM,2021.2.3,Win32,59.61962678,61b8f3437b89212fae0dfadf
1,2.1194,space,0.4868,0,189,189,68,1,,,61115c54d46f4606854c8843,61b9000faed682a91429f075,2021-12-14_15h35.54.760,PRaM,2021.2.3,Win32,59.61962678,61b8f3437b89212fae0dfadf
1,1.3701,space,0.4505,0,190,190,34,1,,,61115c54d46f4606854c8843,61b9000faed682a91429f075,2021-12-14_15h35.54.760,PRaM,2021.2.3,Win32,59.61962678,61b8f3437b89212fae0dfadf
9,33.6144,space,32.0006,0,191,191,302,1,,,61115c54d46f4606854c8843,61b9000faed682a91429f075,2021-12-14_15h35.54.760,PRaM,2021.2.3,Win32,59.61962678,61b8f3437b89212fae0dfadf
7,2.1206,space,0.5512,0,192,192,209,1,,,61115c54d46f4606854c8843,61b9000faed682a91429f075,2021-12-14_15h35.54.760,PRaM,2021.2.3,Win32,59.61962678,61b8f3437b89212fae0dfadf
2,2.4123,space,0.7988,0,193,193,258,1,,,61115c54d46f4606854c8843,61b9000faed682a91429f075,2021-12-14_15h35.54.760,PRaM,2021.2.3,Win32,59.61962678,61b8f3437b89212fae0dfadf
2,1.3331,space,0.1667,0,194,194,315,1,,,61115c54d46f4606854c8843,61b9000faed682a91429f075,2021-12-14_15h35.54.760,PRaM,2021.2.3,Win32,59.61962678,61b8f3437b89212fae0dfadf
6,2.0621,space,0.5014,0,195,195,199,1,,,61115c54d46f4606854c8843,61b9000faed682a91429f075,2021-12-14_15h35.54.760,PRaM,2021.2.3,Win32,59.61962678,61b8f3437b89212fae0dfadf
6,1.3831,space,0.2695,0,196,196,140,1,,,61115c54d46f4606854c8843,61b9000faed682a91429f075,2021-12-14_15h35.54.760,PRaM,2021.2.3,Win32,59.61962678,61b8f3437b89212fae0dfadf
4,2.3012,space,0.6679,0,197,197,37,1,,,61115c54d46f4606854c8843,61b9000faed682a91429f075,2021-12-14_15h35.54.760,PRaM,2021.2.3,Win32,59.61962678,61b8f3437b89212fae0dfadf
3,2.3819,space,0.7387,0,198,198,364,1,,,61115c54d46f4606854c8843,61b9000faed682a91429f075,2021-12-14_15h35.54.760,PRaM,2021.2.3,Win32,59.61962678,61b8f3437b89212fae0dfadf
1,2.388,space,0.768,0,199,199,9,1,,,61115c54d46f4606854c8843,61b9000faed682a91429f075,2021-12-14_15h35.54.760,PRaM,2021.2.3,Win32,59.61962678,61b8f3437b89212fae0dfadf
5,2.353,space,0.7532,0,200,200,162,1,,,61115c54d46f4606854c8843,61b9000faed682a91429f075,2021-12-14_15h35.54.760,PRaM,2021.2.3,Win32,59.61962678,61b8f3437b89212fae0dfadf
2,2.0085,space,0.3583,0,201,201,299,1,,,61115c54d46f4606854c8843,61b9000faed682a91429f075,2021-12-14_15h35.54.760,PRaM,2021.2.3,Win32,59.61962678,61b8f3437b89212fae0dfadf
6,2.0881,space,0.4718,0,202,202,51,1,,,61115c54d46f4606854c8843,61b9000faed682a91429f075,2021-12-14_15h35.54.760,PRaM,2021.2.3,Win32,59.61962678,61b8f3437b89212fae0dfadf
2,1.9209,space,0.2681,0,203,203,50,1,,,61115c54d46f4606854c8843,61b9000faed682a91429f075,2021-12-14_15h35.54.760,PRaM,2021.2.3,Win32,59.61962678,61b8f3437b89212fae0dfadf
5,2.9275,space,1.2845,0,204,204,240,1,,,61115c54d46f4606854c8843,61b9000faed682a91429f075,2021-12-14_15h35.54.760,PRaM,2021.2.3,Win32,59.61962678,61b8f3437b89212fae0dfadf
8,1.6708,space,0.5851,0,205,205,334,1,,,61115c54d46f4606854c8843,61b9000faed682a91429f075,2021-12-14_15h35.54.760,PRaM,2021.2.3,Win32,59.61962678,61b8f3437b89212fae0dfadf
1,2.5051,space,0.8707,0,206,206,146,1,,,61115c54d46f4606854c8843,61b9000faed682a91429f075,2021-12-14_15h35.54.760,PRaM,2021.2.3,Win32,59.61962678,61b8f3437b89212fae0dfadf
1,1.6876,space,0.0258,0,207,207,247,1,,,61115c54d46f4606854c8843,61b9000faed682a91429f075,2021-12-14_15h35.54.760,PRaM,2021.2.3,Win32,59.61962678,61b8f3437b89212fae0dfadf
1,1.0898,space,0.0443,0,208,208,231,1,,,61115c54d46f4606854c8843,61b9000faed682a91429f075,2021-12-14_15h35.54.760,PRaM,2021.2.3,Win32,59.61962678,61b8f3437b89212fae0dfadf
1,1.3358,space,0.1361,0,209,209,290,1,,,61115c54d46f4606854c8843,61b9000faed682a91429f075,2021-12-14_15h35.54.760,PRaM,2021.2.3,Win32,59.61962678,61b8f3437b89212fae0dfadf
2,4.0383,space,2.5846,0,210,210,220,1,,,61115c54d46f4606854c8843,61b9000faed682a91429f075,2021-12-14_15h35.54.760,PRaM,2021.2.3,Win32,59.61962678,61b8f3437b89212fae0dfadf
1,2.7889,space,1.1342,0,211,211,235,1,,,61115c54d46f4606854c8843,61b9000faed682a91429f075,2021-12-14_15h35.54.760,PRaM,2021.2.3,Win32,59.61962678,61b8f3437b89212fae0dfadf
1,1.3354,space,0.1944,0,212,212,92,1,,,61115c54d46f4606854c8843,61b9000faed682a91429f075,2021-12-14_15h35.54.760,PRaM,2021.2.3,Win32,59.61962678,61b8f3437b89212fae0dfadf
6,2.1024,space,0.492,0,213,213,159,1,,,61115c54d46f4606854c8843,61b9000faed682a91429f075,2021-12-14_15h35.54.760,PRaM,2021.2.3,Win32,59.61962678,61b8f3437b89212fae0dfadf
3,1.7745,space,0.2015,0,214,214,188,1,,,61115c54d46f4606854c8843,61b9000faed682a91429f075,2021-12-14_15h35.54.760,PRaM,2021.2.3,Win32,59.61962678,61b8f3437b89212fae0dfadf
7,1.8285,space,0.4679,0,215,215,21,1,,,61115c54d46f4606854c8843,61b9000faed682a91429f075,2021-12-14_15h35.54.760,PRaM,2021.2.3,Win32,59.61962678,61b8f3437b89212fae0dfadf
2,1.3055,space,1.3753,0,216,216,171,1,,,61115c54d46f4606854c8843,61b9000faed682a91429f075,2021-12-14_15h35.54.760,PRaM,2021.2.3,Win32,59.61962678,61b8f3437b89212fae0dfadf
6,1.7537,space,0.0354,0,217,217,205,1,,,61115c54d46f4606854c8843,61b9000faed682a91429f075,2021-12-14_15h35.54.760,PRaM,2021.2.3,Win32,59.61962678,61b8f3437b89212fae0dfadf
7,0.8599,space,0.2424,0,218,218,340,1,,,61115c54d46f4606854c8843,61b9000faed682a91429f075,2021-12-14_15h35.54.760,PRaM,2021.2.3,Win32,59.61962678,61b8f3437b89212fae0dfadf
2,2.3795,space,0.8255,0,219,219,309,1,,,61115c54d46f4606854c8843,61b9000faed682a91429f075,2021-12-14_15h35.54.760,PRaM,2021.2.3,Win32,59.61962678,61b8f3437b89212fae0dfadf
2,1.2041,space,0.5017,0,220,220,99,1,,,61115c54d46f4606854c8843,61b9000faed682a91429f075,2021-12-14_15h35.54.760,PRaM,2021.2.3,Win32,59.61962678,61b8f3437b89212fae0dfadf
7,1.5197,space,0.4681,0,221,221,132,1,,,61115c54d46f4606854c8843,61b9000faed682a91429f075,2021-12-14_15h35.54.760,PRaM,2021.2.3,Win32,59.61962678,61b8f3437b89212fae0dfadf
2,1.5778,space,0.3449,0,222,222,289,1,,,61115c54d46f4606854c8843,61b9000faed682a91429f075,2021-12-14_15h35.54.760,PRaM,2021.2.3,Win32,59.61962678,61b8f3437b89212fae0dfadf
7,2.7801,space,1.173,0,223,223,264,1,,,61115c54d46f4606854c8843,61b9000faed682a91429f075,2021-12-14_15h35.54.760,PRaM,2021.2.3,Win32,59.61962678,61b8f3437b89212fae0dfadf
7,1.5093,space,0.2728,0,224,224,127,1,,,61115c54d46f4606854c8843,61b9000faed682a91429f075,2021-12-14_15h35.54.760,PRaM,2021.2.3,Win32,59.61962678,61b8f3437b89212fae0dfadf
6,1.1726,space,0.4495,0,225,225,22,1,,,61115c54d46f4606854c8843,61b9000faed682a91429f075,2021-12-14_15h35.54.760,PRaM,2021.2.3,Win32,59.61962678,61b8f3437b89212fae0dfadf
3,1.506,space,0.3519,0,226,226,243,1,,,61115c54d46f4606854c8843,61b9000faed682a91429f075,2021-12-14_15h35.54.760,PRaM,2021.2.3,Win32,59.61962678,61b8f3437b89212fae0dfadf
7,1.6062,space,0.5381,0,227,227,45,1,,,61115c54d46f4606854c8843,61b9000faed682a91429f075,2021-12-14_15h35.54.760,PRaM,2021.2.3,Win32,59.61962678,61b8f3437b89212fae0dfadf
2,2.5006,space,0.9373,0,228,228,184,1,,,61115c54d46f4606854c8843,61b9000faed682a91429f075,2021-12-14_15h35.54.760,PRaM,2021.2.3,Win32,59.61962678,61b8f3437b89212fae0dfadf
6,1.3879,space,0.2705,0,229,229,306,1,,,61115c54d46f4606854c8843,61b9000faed682a91429f075,2021-12-14_15h35.54.760,PRaM,2021.2.3,Win32,59.61962678,61b8f3437b89212fae0dfadf
7,1.8448,space,0.1237,0,230,230,186,1,,,61115c54d46f4606854c8843,61b9000faed682a91429f075,2021-12-14_15h35.54.760,PRaM,2021.2.3,Win32,59.61962678,61b8f3437b89212fae0dfadf
3,1.493,space,0.1878,0,231,231,252,1,,,61115c54d46f4606854c8843,61b9000faed682a91429f075,2021-12-14_15h35.54.760,PRaM,2021.2.3,Win32,59.61962678,61b8f3437b89212fae0dfadf
1,1.9873,space,0.3409,0,232,232,1,1,,,61115c54d46f4606854c8843,61b9000faed682a91429f075,2021-12-14_15h35.54.760,PRaM,2021.2.3,Win32,59.61962678,61b8f3437b89212fae0dfadf
6,1.5749,space,1.373,0,233,233,141,1,,,61115c54d46f4606854c8843,61b9000faed682a91429f075,2021-12-14_15h35.54.760,PRaM,2021.2.3,Win32,59.61962678,61b8f3437b89212fae0dfadf
7,2.2946,space,0.6483,0,234,234,277,1,,,61115c54d46f4606854c8843,61b9000faed682a91429f075,2021-12-14_15h35.54.760,PRaM,2021.2.3,Win32,59.61962678,61b8f3437b89212fae0dfadf
3,0.9979,space,0.4163,0,235,235,170,1,,,61115c54d46f4606854c8843,61b9000faed682a91429f075,2021-12-14_15h35.54.760,PRaM,2021.2.3,Win32,59.61962678,61b8f3437b89212fae0dfadf
5,0.7108,space,0.0151,0,236,236,182,1,,,61115c54d46f4606854c8843,61b9000faed682a91429f075,2021-12-14_15h35.54.760,PRaM,2021.2.3,Win32,59.61962678,61b8f3437b89212fae0dfadf
2,0.974,space,0.2077,0,237,237,185,1,,,61115c54d46f4606854c8843,61b9000faed682a91429f075,2021-12-14_15h35.54.760,PRaM,2021.2.3,Win32,59.61962678,61b8f3437b89212fae0dfadf
5,1.0441,space,0.5007,0,238,238,48,1,,,61115c54d46f4606854c8843,61b9000faed682a91429f075,2021-12-14_15h35.54.760,PRaM,2021.2.3,Win32,59.61962678,61b8f3437b89212fae0dfadf
6,1.0241,space,0.0878,0,239,239,183,1,,,61115c54d46f4606854c8843,61b9000faed682a91429f075,2021-12-14_15h35.54.760,PRaM,2021.2.3,Win32,59.61962678,61b8f3437b89212fae0dfadf
4,4.2247,space,2.5906,0,240,240,47,1,,,61115c54d46f4606854c8843,61b9000faed682a91429f075,2021-12-14_15h35.54.760,PRaM,2021.2.3,Win32,59.61962678,61b8f3437b89212fae0dfadf
6,2.005,space,0.4067,0,241,241,105,1,,,61115c54d46f4606854c8843,61b9000faed682a91429f075,2021-12-14_15h35.54.760,PRaM,2021.2.3,Win32,59.61962678,61b8f3437b89212fae0dfadf
1,8.852,space,7.2891,0,242,242,227,1,,,61115c54d46f4606854c8843,61b9000faed682a91429f075,2021-12-14_15h35.54.760,PRaM,2021.2.3,Win32,59.61962678,61b8f3437b89212fae0dfadf
1,3.8368,space,2.1837,0,243,243,8,1,,,61115c54d46f4606854c8843,61b9000faed682a91429f075,2021-12-14_15h35.54.760,PRaM,2021.2.3,Win32,59.61962678,61b8f3437b89212fae0dfadf
1,1.3728,space,0.1727,0,244,244,176,1,,,61115c54d46f4606854c8843,61b9000faed682a91429f075,2021-12-14_15h35.54.760,PRaM,2021.2.3,Win32,59.61962678,61b8f3437b89212fae0dfadf
5,1.9799,space,0.4436,0,245,245,310,1,,,61115c54d46f4606854c8843,61b9000faed682a91429f075,2021-12-14_15h35.54.760,PRaM,2021.2.3,Win32,59.61962678,61b8f3437b89212fae0dfadf
2,1.809,space,0.2265,0,246,246,71,1,,,61115c54d46f4606854c8843,61b9000faed682a91429f075,2021-12-14_15h35.54.760,PRaM,2021.2.3,Win32,59.61962678,61b8f3437b89212fae0dfadf
6,3.2841,space,1.6694,0,247,247,352,1,,,61115c54d46f4606854c8843,61b9000faed682a91429f075,2021-12-14_15h35.54.760,PRaM,2021.2.3,Win32,59.61962678,61b8f3437b89212fae0dfadf
3,3.9898,space,2.5088,0,248,248,293,1,,,61115c54d46f4606854c8843,61b9000faed682a91429f075,2021-12-14_15h35.54.760,PRaM,2021.2.3,Win32,59.61962678,61b8f3437b89212fae0dfadf
6,2.0588,space,0.5448,0,249,249,120,1,,,61115c54d46f4606854c8843,61b9000faed682a91429f075,2021-12-14_15h35.54.760,PRaM,2021.2.3,Win32,59.61962678,61b8f3437b89212fae0dfadf
6,3.2181,space,1.6052,0,250,250,80,1,,,61115c54d46f4606854c8843,61b9000faed682a91429f075,2021-12-14_15h35.54.760,PRaM,2021.2.3,Win32,59.61962678,61b8f3437b89212fae0dfadf
2,4.357,space,2.7183,0,251,251,368,1,,,61115c54d46f4606854c8843,61b9000faed682a91429f075,2021-12-14_15h35.54.760,PRaM,2021.2.3,Win32,59.61962678,61b8f3437b89212fae0dfadf
2,1.5566,space,0.6893,0,252,252,371,1,,,61115c54d46f4606854c8843,61b9000faed682a91429f075,2021-12-14_15h35.54.760,PRaM,2021.2.3,Win32,59.61962678,61b8f3437b89212fae0dfadf
8,3.0275,space,1.3694,0,253,253,228,1,,,61115c54d46f4606854c8843,61b9000faed682a91429f075,2021-12-14_15h35.54.760,PRaM,2021.2.3,Win32,59.61962678,61b8f3437b89212fae0dfadf
6,1.7107,space,0.0012,0,254,254,273,1,,,61115c54d46f4606854c8843,61b9000faed682a91429f075,2021-12-14_15h35.54.760,PRaM,2021.2.3,Win32,59.61962678,61b8f3437b89212fae0dfadf
1,1.9586,space,0.2998,0,255,255,263,1,,,61115c54d46f4606854c8843,61b9000faed682a91429f075,2021-12-14_15h35.54.760,PRaM,2021.2.3,Win32,59.61962678,61b8f3437b89212fae0dfadf
7,10.7017,space,9.0846,0,256,256,117,1,,,61115c54d46f4606854c8843,61b9000faed682a91429f075,2021-12-14_15h35.54.760,PRaM,2021.2.3,Win32,59.61962678,61b8f3437b89212fae0dfadf
7,1.5567,space,0.3708,0,257,257,66,1,,,61115c54d46f4606854c8843,61b9000faed682a91429f075,2021-12-14_15h35.54.760,PRaM,2021.2.3,Win32,59.61962678,61b8f3437b89212fae0dfadf
7,1.1254,space,0.402,0,258,258,164,1,,,61115c54d46f4606854c8843,61b9000faed682a91429f075,2021-12-14_15h35.54.760,PRaM,2021.2.3,Win32,59.61962678,61b8f3437b89212fae0dfadf
2,2.2043,space,0.6403,0,259,259,262,1,,,61115c54d46f4606854c8843,61b9000faed682a91429f075,2021-12-14_15h35.54.760,PRaM,2021.2.3,Win32,59.61962678,61b8f3437b89212fae0dfadf
1,2.6523,space,1.0384,0,260,260,187,1,,,61115c54d46f4606854c8843,61b9000faed682a91429f075,2021-12-14_15h35.54.760,PRaM,2021.2.3,Win32,59.61962678,61b8f3437b89212fae0dfadf
1,0.9541,space,0.4736,0,261,261,26,1,,,61115c54d46f4606854c8843,61b9000faed682a91429f075,2021-12-14_15h35.54.760,PRaM,2021.2.3,Win32,59.61962678,61b8f3437b89212fae0dfadf
7,2.7003,space,1.1154,0,262,262,86,1,,,61115c54d46f4606854c8843,61b9000faed682a91429f075,2021-12-14_15h35.54.760,PRaM,2021.2.3,Win32,59.61962678,61b8f3437b89212fae0dfadf
2,1.8377,space,0.2422,0,263,263,308,1,,,61115c54d46f4606854c8843,61b9000faed682a91429f075,2021-12-14_15h35.54.760,PRaM,2021.2.3,Win32,59.61962678,61b8f3437b89212fae0dfadf
2,1.3206,space,0.454,0,264,264,332,1,,,61115c54d46f4606854c8843,61b9000faed682a91429f075,2021-12-14_15h35.54.760,PRaM,2021.2.3,Win32,59.61962678,61b8f3437b89212fae0dfadf
2,1.1571,space,0.3869,0,265,265,251,1,,,61115c54d46f4606854c8843,61b9000faed682a91429f075,2021-12-14_15h35.54.760,PRaM,2021.2.3,Win32,59.61962678,61b8f3437b89212fae0dfadf
6,2.2099,space,0.7221,0,266,266,38,1,,,61115c54d46f4606854c8843,61b9000faed682a91429f075,2021-12-14_15h35.54.760,PRaM,2021.2.3,Win32,59.61962678,61b8f3437b89212fae0dfadf
7,2.4714,space,1.5748,0,267,267,114,1,,,61115c54d46f4606854c8843,61b9000faed682a91429f075,2021-12-14_15h35.54.760,PRaM,2021.2.3,Win32,59.61962678,61b8f3437b89212fae0dfadf
2,1.6888,space,0.7048,0,268,268,121,1,,,61115c54d46f4606854c8843,61b9000faed682a91429f075,2021-12-14_15h35.54.760,PRaM,2021.2.3,Win32,59.61962678,61b8f3437b89212fae0dfadf
2,2.7043,space,1.3189,0,269,269,318,1,,,61115c54d46f4606854c8843,61b9000faed682a91429f075,2021-12-14_15h35.54.760,PRaM,2021.2.3,Win32,59.61962678,61b8f3437b89212fae0dfadf
6,1.9112,space,0.3374,0,270,270,12,1,,,61115c54d46f4606854c8843,61b9000faed682a91429f075,2021-12-14_15h35.54.760,PRaM,2021.2.3,Win32,59.61962678,61b8f3437b89212fae0dfadf
2,39.6423,space,38.3036,0,271,271,49,1,,,61115c54d46f4606854c8843,61b9000faed682a91429f075,2021-12-14_15h35.54.760,PRaM,2021.2.3,Win32,59.61962678,61b8f3437b89212fae0dfadf
2,1.3394,space,0.136,0,272,272,362,1,,,61115c54d46f4606854c8843,61b9000faed682a91429f075,2021-12-14_15h35.54.760,PRaM,2021.2.3,Win32,59.61962678,61b8f3437b89212fae0dfadf
6,1.988,space,0.4033,0,273,273,347,1,,,61115c54d46f4606854c8843,61b9000faed682a91429f075,2021-12-14_15h35.54.760,PRaM,2021.2.3,Win32,59.61962678,61b8f3437b89212fae0dfadf
5,2.2927,space,0.8841,0,274,274,233,1,,,61115c54d46f4606854c8843,61b9000faed682a91429f075,2021-12-14_15h35.54.760,PRaM,2021.2.3,Win32,59.61962678,61b8f3437b89212fae0dfadf
1,1.6257,space,0.0012,0,275,275,272,1,,,61115c54d46f4606854c8843,61b9000faed682a91429f075,2021-12-14_15h35.54.760,PRaM,2021.2.3,Win32,59.61962678,61b8f3437b89212fae0dfadf
3,1.9899,space,0.3178,0,276,276,314,1,,,61115c54d46f4606854c8843,61b9000faed682a91429f075,2021-12-14_15h35.54.760,PRaM,2021.2.3,Win32,59.61962678,61b8f3437b89212fae0dfadf
2,2.004,space,0.3531,0,277,277,339,1,,,61115c54d46f4606854c8843,61b9000faed682a91429f075,2021-12-14_15h35.54.760,PRaM,2021.2.3,Win32,59.61962678,61b8f3437b89212fae0dfadf
1,1.2276,space,0.0018,0,278,278,338,1,,,61115c54d46f4606854c8843,61b9000faed682a91429f075,2021-12-14_15h35.54.760,PRaM,2021.2.3,Win32,59.61962678,61b8f3437b89212fae0dfadf
1,1.9252,space,0.2546,0,279,279,377,1,,,61115c54d46f4606854c8843,61b9000faed682a91429f075,2021-12-14_15h35.54.760,PRaM,2021.2.3,Win32,59.61962678,61b8f3437b89212fae0dfadf
1,9.2681,space,8.0065,0,280,280,232,1,,,61115c54d46f4606854c8843,61b9000faed682a91429f075,2021-12-14_15h35.54.760,PRaM,2021.2.3,Win32,59.61962678,61b8f3437b89212fae0dfadf
7,2.6322,space,0.9505,0,281,281,366,1,,,61115c54d46f4606854c8843,61b9000faed682a91429f075,2021-12-14_15h35.54.760,PRaM,2021.2.3,Win32,59.61962678,61b8f3437b89212fae0dfadf
7,1.2875,space,0.0174,0,282,282,19,1,,,61115c54d46f4606854c8843,61b9000faed682a91429f075,2021-12-14_15h35.54.760,PRaM,2021.2.3,Win32,59.61962678,61b8f3437b89212fae0dfadf
7,1.1774,space,0.2365,0,283,283,60,1,,,61115c54d46f4606854c8843,61b9000faed682a91429f075,2021-12-14_15h35.54.760,PRaM,2021.2.3,Win32,59.61962678,61b8f3437b89212fae0dfadf
8,3.5125,space,1.8705,0,284,284,118,1,,,61115c54d46f4606854c8843,61b9000faed682a91429f075,2021-12-14_15h35.54.760,PRaM,2021.2.3,Win32,59.61962678,61b8f3437b89212fae0dfadf
7,10.7695,space,9.1708,0,285,285,29,1,,,61115c54d46f4606854c8843,61b9000faed682a91429f075,2021-12-14_15h35.54.760,PRaM,2021.2.3,Win32,59.61962678,61b8f3437b89212fae0dfadf
1,2.0201,space,0.4193,0,286,286,349,1,,,61115c54d46f4606854c8843,61b9000faed682a91429f075,2021-12-14_15h35.54.760,PRaM,2021.2.3,Win32,59.61962678,61b8f3437b89212fae0dfadf
7,1.7794,space,0.1251,0,287,287,304,1,,,61115c54d46f4606854c8843,61b9000faed682a91429f075,2021-12-14_15h35.54.760,PRaM,2021.2.3,Win32,59.61962678,61b8f3437b89212fae0dfadf
2,1.8952,space,0.2513,0,288,288,11,1,,,61115c54d46f4606854c8843,61b9000faed682a91429f075,2021-12-14_15h35.54.760,PRaM,2021.2.3,Win32,59.61962678,61b8f3437b89212fae0dfadf
5,1.5756,space,0.3357,0,289,289,179,1,,,61115c54d46f4606854c8843,61b9000faed682a91429f075,2021-12-14_15h35.54.760,PRaM,2021.2.3,Win32,59.61962678,61b8f3437b89212fae0dfadf
1,7.6506,space,6.0192,0,290,290,367,1,,,61115c54d46f4606854c8843,61b9000faed682a91429f075,2021-12-14_15h35.54.760,PRaM,2021.2.3,Win32,59.61962678,61b8f3437b89212fae0dfadf
1,1.4875,space,0.2886,0,291,291,250,1,,,61115c54d46f4606854c8843,61b9000faed682a91429f075,2021-12-14_15h35.54.760,PRaM,2021.2.3,Win32,59.61962678,61b8f3437b89212fae0dfadf
8,2.0139,space,0.4043,0,292,292,226,1,,,61115c54d46f4606854c8843,61b9000faed682a91429f075,2021-12-14_15h35.54.760,PRaM,2021.2.3,Win32,59.61962678,61b8f3437b89212fae0dfadf
8,1.237,space,0.0709,0,293,293,291,1,,,61115c54d46f4606854c8843,61b9000faed682a91429f075,2021-12-14_15h35.54.760,PRaM,2021.2.3,Win32,59.61962678,61b8f3437b89212fae0dfadf
4,2.2713,space,0.6352,0,294,294,200,1,,,61115c54d46f4606854c8843,61b9000faed682a91429f075,2021-12-14_15h35.54.760,PRaM,2021.2.3,Win32,59.61962678,61b8f3437b89212fae0dfadf
2,2.2432,space,0.6185,0,295,295,97,1,,,61115c54d46f4606854c8843,61b9000faed682a91429f075,2021-12-14_15h35.54.760,PRaM,2021.2.3,Win32,59.61962678,61b8f3437b89212fae0dfadf
5,1.9377,space,0.2688,0,296,296,278,1,,,61115c54d46f4606854c8843,61b9000faed682a91429f075,2021-12-14_15h35.54.760,PRaM,2021.2.3,Win32,59.61962678,61b8f3437b89212fae0dfadf
3,1.6802,space,0.4019,0,297,297,138,1,,,61115c54d46f4606854c8843,61b9000faed682a91429f075,2021-12-14_15h35.54.760,PRaM,2021.2.3,Win32,59.61962678,61b8f3437b89212fae0dfadf
3,1.0133,space,0.2041,0,298,298,324,1,,,61115c54d46f4606854c8843,61b9000faed682a91429f075,2021-12-14_15h35.54.760,PRaM,2021.2.3,Win32,59.61962678,61b8f3437b89212fae0dfadf
7,2.0045,space,0.3865,0,299,299,211,1,,,61115c54d46f4606854c8843,61b9000faed682a91429f075,2021-12-14_15h35.54.760,PRaM,2021.2.3,Win32,59.61962678,61b8f3437b89212fae0dfadf
7,1.1209,space,0.9019,0,300,300,173,1,,,61115c54d46f4606854c8843,61b9000faed682a91429f075,2021-12-14_15h35.54.760,PRaM,2021.2.3,Win32,59.61962678,61b8f3437b89212fae0dfadf
1,2.428,space,0.8121,0,301,301,236,1,,,61115c54d46f4606854c8843,61b9000faed682a91429f075,2021-12-14_15h35.54.760,PRaM,2021.2.3,Win32,59.61962678,61b8f3437b89212fae0dfadf
1,12.0754,space,10.7011,0,302,302,311,1,,,61115c54d46f4606854c8843,61b9000faed682a91429f075,2021-12-14_15h35.54.760,PRaM,2021.2.3,Win32,59.61962678,61b8f3437b89212fae0dfadf
6,1.5525,space,0.2003,0,303,303,350,1,,,61115c54d46f4606854c8843,61b9000faed682a91429f075,2021-12-14_15h35.54.760,PRaM,2021.2.3,Win32,59.61962678,61b8f3437b89212fae0dfadf
8,2.3943,space,0.7314,0,304,304,53,1,,,61115c54d46f4606854c8843,61b9000faed682a91429f075,2021-12-14_15h35.54.760,PRaM,2021.2.3,Win32,59.61962678,61b8f3437b89212fae0dfadf
1,4.6556,space,3.1415,0,305,305,312,1,,,61115c54d46f4606854c8843,61b9000faed682a91429f075,2021-12-14_15h35.54.760,PRaM,2021.2.3,Win32,59.61962678,61b8f3437b89212fae0dfadf
7,3.3237,space,2.002,0,306,306,276,1,,,61115c54d46f4606854c8843,61b9000faed682a91429f075,2021-12-14_15h35.54.760,PRaM,2021.2.3,Win32,59.61962678,61b8f3437b89212fae0dfadf
2,1.9373,space,0.4703,0,307,307,131,1,,,61115c54d46f4606854c8843,61b9000faed682a91429f075,2021-12-14_15h35.54.760,PRaM,2021.2.3,Win32,59.61962678,61b8f3437b89212fae0dfadf
6,1.4386,space,0.5353,0,308,308,342,1,,,61115c54d46f4606854c8843,61b9000faed682a91429f075,2021-12-14_15h35.54.760,PRaM,2021.2.3,Win32,59.61962678,61b8f3437b89212fae0dfadf
2,2.6581,space,1.3571,0,309,309,10,1,,,61115c54d46f4606854c8843,61b9000faed682a91429f075,2021-12-14_15h35.54.760,PRaM,2021.2.3,Win32,59.61962678,61b8f3437b89212fae0dfadf
6,1.3372,space,1.4019,0,310,310,100,1,,,61115c54d46f4606854c8843,61b9000faed682a91429f075,2021-12-14_15h35.54.760,PRaM,2021.2.3,Win32,59.61962678,61b8f3437b89212fae0dfadf
8,2.8103,space,1.2238,0,311,311,61,1,,,61115c54d46f4606854c8843,61b9000faed682a91429f075,2021-12-14_15h35.54.760,PRaM,2021.2.3,Win32,59.61962678,61b8f3437b89212fae0dfadf
1,1.6207,space,0.3883,0,312,312,317,1,,,61115c54d46f4606854c8843,61b9000faed682a91429f075,2021-12-14_15h35.54.760,PRaM,2021.2.3,Win32,59.61962678,61b8f3437b89212fae0dfadf
3,1.4706,space,0.3384,0,313,313,198,1,,,61115c54d46f4606854c8843,61b9000faed682a91429f075,2021-12-14_15h35.54.760,PRaM,2021.2.3,Win32,59.61962678,61b8f3437b89212fae0dfadf
1,2.1581,space,0.5026,0,314,314,313,1,,,61115c54d46f4606854c8843,61b9000faed682a91429f075,2021-12-14_15h35.54.760,PRaM,2021.2.3,Win32,59.61962678,61b8f3437b89212fae0dfadf
2,1.8545,space,0.1215,0,315,315,369,1,,,61115c54d46f4606854c8843,61b9000faed682a91429f075,2021-12-14_15h35.54.760,PRaM,2021.2.3,Win32,59.61962678,61b8f3437b89212fae0dfadf
4,0.8207,space,0.0247,0,316,316,297,1,,,61115c54d46f4606854c8843,61b9000faed682a91429f075,2021-12-14_15h35.54.760,PRaM,2021.2.3,Win32,59.61962678,61b8f3437b89212fae0dfadf
3,1.8527,space,0.1211,0,317,317,316,1,,,61115c54d46f4606854c8843,61b9000faed682a91429f075,2021-12-14_15h35.54.760,PRaM,2021.2.3,Win32,59.61962678,61b8f3437b89212fae0dfadf
2,1.5766,space,0.2822,0,318,318,218,1,,,61115c54d46f4606854c8843,61b9000faed682a91429f075,2021-12-14_15h35.54.760,PRaM,2021.2.3,Win32,59.61962678,61b8f3437b89212fae0dfadf
7,1.8223,space,0.1247,0,319,319,180,1,,,61115c54d46f4606854c8843,61b9000faed682a91429f075,2021-12-14_15h35.54.760,PRaM,2021.2.3,Win32,59.61962678,61b8f3437b89212fae0dfadf
6,1.6094,space,0.2706,0,320,320,333,1,,,61115c54d46f4606854c8843,61b9000faed682a91429f075,2021-12-14_15h35.54.760,PRaM,2021.2.3,Win32,59.61962678,61b8f3437b89212fae0dfadf
4,1.5042,space,0.3378,0,321,321,75,1,,,61115c54d46f4606854c8843,61b9000faed682a91429f075,2021-12-14_15h35.54.760,PRaM,2021.2.3,Win32,59.61962678,61b8f3437b89212fae0dfadf
6,1.624,space,0.4207,0,322,322,104,1,,,61115c54d46f4606854c8843,61b9000faed682a91429f075,2021-12-14_15h35.54.760,PRaM,2021.2.3,Win32,59.61962678,61b8f3437b89212fae0dfadf
5,2.2736,space,0.6828,0,323,323,125,1,,,61115c54d46f4606854c8843,61b9000faed682a91429f075,2021-12-14_15h35.54.760,PRaM,2021.2.3,Win32,59.61962678,61b8f3437b89212fae0dfadf
6,1.7874,space,0.0883,0,324,324,150,1,,,61115c54d46f4606854c8843,61b9000faed682a91429f075,2021-12-14_15h35.54.760,PRaM,2021.2.3,Win32,59.61962678,61b8f3437b89212fae0dfadf
3,1.004,space,0.4891,0,325,325,169,1,,,61115c54d46f4606854c8843,61b9000faed682a91429f075,2021-12-14_15h35.54.760,PRaM,2021.2.3,Win32,59.61962678,61b8f3437b89212fae0dfadf
6,0.498,space,0.504,0,326,326,195,1,,,61115c54d46f4606854c8843,61b9000faed682a91429f075,2021-12-14_15h35.54.760,PRaM,2021.2.3,Win32,59.61962678,61b8f3437b89212fae0dfadf
5,1.3055,space,0.0097,0,327,327,156,1,,,61115c54d46f4606854c8843,61b9000faed682a91429f075,2021-12-14_15h35.54.760,PRaM,2021.2.3,Win32,59.61962678,61b8f3437b89212fae0dfadf
4,0.9294,space,0.002,0,328,328,355,1,,,61115c54d46f4606854c8843,61b9000faed682a91429f075,2021-12-14_15h35.54.760,PRaM,2021.2.3,Win32,59.61962678,61b8f3437b89212fae0dfadf
3,0.8376,space,0.8033,0,329,329,109,1,,,61115c54d46f4606854c8843,61b9000faed682a91429f075,2021-12-14_15h35.54.760,PRaM,2021.2.3,Win32,59.61962678,61b8f3437b89212fae0dfadf
5,1.2876,space,0.3844,0,330,330,88,1,,,61115c54d46f4606854c8843,61b9000faed682a91429f075,2021-12-14_15h35.54.760,PRaM,2021.2.3,Win32,59.61962678,61b8f3437b89212fae0dfadf
3,2.5363,space,1.1232,0,331,331,329,1,,,61115c54d46f4606854c8843,61b9000faed682a91429f075,2021-12-14_15h35.54.760,PRaM,2021.2.3,Win32,59.61962678,61b8f3437b89212fae0dfadf
3,0.9698,space,0.1185,0,332,332,328,1,,,61115c54d46f4606854c8843,61b9000faed682a91429f075,2021-12-14_15h35.54.760,PRaM,2021.2.3,Win32,59.61962678,61b8f3437b89212fae0dfadf
1,3.5709,space,1.9871,0,333,333,248,1,,,61115c54d46f4606854c8843,61b9000faed682a91429f075,2021-12-14_15h35.54.760,PRaM,2021.2.3,Win32,59.61962678,61b8f3437b89212fae0dfadf
9,2.5363,space,0.9184,0,334,334,137,1,,,61115c54d46f4606854c8843,61b9000faed682a91429f075,2021-12-14_15h35.54.760,PRaM,2021.2.3,Win32,59.61962678,61b8f3437b89212fae0dfadf
9,1.8679,space,0.2405,0,335,335,4,1,,,61115c54d46f4606854c8843,61b9000faed682a91429f075,2021-12-14_15h35.54.760,PRaM,2021.2.3,Win32,59.61962678,61b8f3437b89212fae0dfadf
2,2.1808,space,0.7129,0,336,336,206,1,,,61115c54d46f4606854c8843,61b9000faed682a91429f075,2021-12-14_15h35.54.760,PRaM,2021.2.3,Win32,59.61962678,61b8f3437b89212fae0dfadf
5,2.7702,space,1.1354,0,337,337,230,1,,,61115c54d46f4606854c8843,61b9000faed682a91429f075,2021-12-14_15h35.54.760,PRaM,2021.2.3,Win32,59.61962678,61b8f3437b89212fae0dfadf
2,174.8575,space,173.4019,0,338,338,163,1,,,61115c54d46f4606854c8843,61b9000faed682a91429f075,2021-12-14_15h35.54.760,PRaM,2021.2.3,Win32,59.61962678,61b8f3437b89212fae0dfadf
4,1.3013,space,0.5023,0,339,339,76,1,,,61115c54d46f4606854c8843,61b9000faed682a91429f075,2021-12-14_15h35.54.760,PRaM,2021.2.3,Win32,59.61962678,61b8f3437b89212fae0dfadf
4,1.8308,space,0.211,0,340,340,239,1,,,61115c54d46f4606854c8843,61b9000faed682a91429f075,2021-12-14_15h35.54.760,PRaM,2021.2.3,Win32,59.61962678,61b8f3437b89212fae0dfadf
7,1.8893,space,0.3011,0,341,341,279,1,,,61115c54d46f4606854c8843,61b9000faed682a91429f075,2021-12-14_15h35.54.760,PRaM,2021.2.3,Win32,59.61962678,61b8f3437b89212fae0dfadf
7,0.8973,space,0.1862,0,342,342,202,1,,,61115c54d46f4606854c8843,61b9000faed682a91429f075,2021-12-14_15h35.54.760,PRaM,2021.2.3,Win32,59.61962678,61b8f3437b89212fae0dfadf
3,1.4017,space,0.2021,0,343,343,85,1,,,61115c54d46f4606854c8843,61b9000faed682a91429f075,2021-12-14_15h35.54.760,PRaM,2021.2.3,Win32,59.61962678,61b8f3437b89212fae0dfadf
6,0.5857,space,0.3513,0,344,344,370,1,,,61115c54d46f4606854c8843,61b9000faed682a91429f075,2021-12-14_15h35.54.760,PRaM,2021.2.3,Win32,59.61962678,61b8f3437b89212fae0dfadf
4,0.9799,space,2.7185,0,345,345,237,1,,,61115c54d46f4606854c8843,61b9000faed682a91429f075,2021-12-14_15h35.54.760,PRaM,2021.2.3,Win32,59.61962678,61b8f3437b89212fae0dfadf
3,1.2731,space,0.3357,0,346,346,18,1,,,61115c54d46f4606854c8843,61b9000faed682a91429f075,2021-12-14_15h35.54.760,PRaM,2021.2.3,Win32,59.61962678,61b8f3437b89212fae0dfadf
3,1.7203,space,0.2702,0,347,347,219,1,,,61115c54d46f4606854c8843,61b9000faed682a91429f075,2021-12-14_15h35.54.760,PRaM,2021.2.3,Win32,59.61962678,61b8f3437b89212fae0dfadf
6,1.4059,space,1.5055,0,348,348,102,1,,,61115c54d46f4606854c8843,61b9000faed682a91429f075,2021-12-14_15h35.54.760,PRaM,2021.2.3,Win32,59.61962678,61b8f3437b89212fae0dfadf
6,2.0545,space,0.9873,0,349,349,42,1,,,61115c54d46f4606854c8843,61b9000faed682a91429f075,2021-12-14_15h35.54.760,PRaM,2021.2.3,Win32,59.61962678,61b8f3437b89212fae0dfadf
6,1.4715,space,0.0355,0,350,350,168,1,,,61115c54d46f4606854c8843,61b9000faed682a91429f075,2021-12-14_15h35.54.760,PRaM,2021.2.3,Win32,59.61962678,61b8f3437b89212fae0dfadf
2,1.7205,space,0.4188,0,351,351,234,1,,,61115c54d46f4606854c8843,61b9000faed682a91429f075,2021-12-14_15h35.54.760,PRaM,2021.2.3,Win32,59.61962678,61b8f3437b89212fae0dfadf
6,3.1053,space,1.4179,0,352,352,32,1,,,61115c54d46f4606854c8843,61b9000faed682a91429f075,2021-12-14_15h35.54.760,PRaM,2021.2.3,Win32,59.61962678,61b8f3437b89212fae0dfadf
8,1.4296,space,0.1695,0,353,353,323,1,,,61115c54d46f4606854c8843,61b9000faed682a91429f075,2021-12-14_15h35.54.760,PRaM,2021.2.3,Win32,59.61962678,61b8f3437b89212fae0dfadf
3,1.3711,space,0.152,0,354,354,269,1,,,61115c54d46f4606854c8843,61b9000faed682a91429f075,2021-12-14_15h35.54.760,PRaM,2021.2.3,Win32,59.61962678,61b8f3437b89212fae0dfadf
6,0.7378,space,0.3512,0,355,355,119,1,,,61115c54d46f4606854c8843,61b9000faed682a91429f075,2021-12-14_15h35.54.760,PRaM,2021.2.3,Win32,59.61962678,61b8f3437b89212fae0dfadf
4,0.6553,space,0.6936,0,356,356,24,1,,,61115c54d46f4606854c8843,61b9000faed682a91429f075,2021-12-14_15h35.54.760,PRaM,2021.2.3,Win32,59.61962678,61b8f3437b89212fae0dfadf
7,1.0401,space,0.0507,0,357,357,181,1,,,61115c54d46f4606854c8843,61b9000faed682a91429f075,2021-12-14_15h35.54.760,PRaM,2021.2.3,Win32,59.61962678,61b8f3437b89212fae0dfadf
3,3.7577,space,2.249,0,358,358,113,1,,,61115c54d46f4606854c8843,61b9000faed682a91429f075,2021-12-14_15h35.54.760,PRaM,2021.2.3,Win32,59.61962678,61b8f3437b89212fae0dfadf
6,2.4612,space,1.2548,0,359,359,106,1,,,61115c54d46f4606854c8843,61b9000faed682a91429f075,2021-12-14_15h35.54.760,PRaM,2021.2.3,Win32,59.61962678,61b8f3437b89212fae0dfadf
5,1.0032,space,1.0202,0,360,360,204,1,,,61115c54d46f4606854c8843,61b9000faed682a91429f075,2021-12-14_15h35.54.760,PRaM,2021.2.3,Win32,59.61962678,61b8f3437b89212fae0dfadf
7,0.8559,space,0.1222,0,361,361,5,1,,,61115c54d46f4606854c8843,61b9000faed682a91429f075,2021-12-14_15h35.54.760,PRaM,2021.2.3,Win32,59.61962678,61b8f3437b89212fae0dfadf
4,2.1717,space,1.6206,0,362,362,25,1,,,61115c54d46f4606854c8843,61b9000faed682a91429f075,2021-12-14_15h35.54.760,PRaM,2021.2.3,Win32,59.61962678,61b8f3437b89212fae0dfadf
2,2.3871,space,0.8017,0,363,363,129,1,,,61115c54d46f4606854c8843,61b9000faed682a91429f075,2021-12-14_15h35.54.760,PRaM,2021.2.3,Win32,59.61962678,61b8f3437b89212fae0dfadf
6,0.7491,space,0.1188,0,364,364,178,1,,,61115c54d46f4606854c8843,61b9000faed682a91429f075,2021-12-14_15h35.54.760,PRaM,2021.2.3,Win32,59.61962678,61b8f3437b89212fae0dfadf
1,10.3573,space,8.7514,0,365,365,295,1,,,61115c54d46f4606854c8843,61b9000faed682a91429f075,2021-12-14_15h35.54.760,PRaM,2021.2.3,Win32,59.61962678,61b8f3437b89212fae0dfadf
8,1.8304,space,0.1874,0,366,366,196,1,,,61115c54d46f4606854c8843,61b9000faed682a91429f075,2021-12-14_15h35.54.760,PRaM,2021.2.3,Win32,59.61962678,61b8f3437b89212fae0dfadf
4,0.9707,space,0.6273,0,367,367,103,1,,,61115c54d46f4606854c8843,61b9000faed682a91429f075,2021-12-14_15h35.54.760,PRaM,2021.2.3,Win32,59.61962678,61b8f3437b89212fae0dfadf
6,10.4721,space,9.0409,0,368,368,152,1,,,61115c54d46f4606854c8843,61b9000faed682a91429f075,2021-12-14_15h35.54.760,PRaM,2021.2.3,Win32,59.61962678,61b8f3437b89212fae0dfadf
3,2.0225,space,0.3862,0,369,369,224,1,,,61115c54d46f4606854c8843,61b9000faed682a91429f075,2021-12-14_15h35.54.760,PRaM,2021.2.3,Win32,59.61962678,61b8f3437b89212fae0dfadf
4,0.7861,space,0.3333,0,370,370,260,1,,,61115c54d46f4606854c8843,61b9000faed682a91429f075,2021-12-14_15h35.54.760,PRaM,2021.2.3,Win32,59.61962678,61b8f3437b89212fae0dfadf
6,0.6933,space,0.2011,0,371,371,223,1,,,61115c54d46f4606854c8843,61b9000faed682a91429f075,2021-12-14_15h35.54.760,PRaM,2021.2.3,Win32,59.61962678,61b8f3437b89212fae0dfadf
5,0.8531,space,0.0851,0,372,372,143,1,,,61115c54d46f4606854c8843,61b9000faed682a91429f075,2021-12-14_15h35.54.760,PRaM,2021.2.3,Win32,59.61962678,61b8f3437b89212fae0dfadf
2,0.4801,space,0.1516,0,373,373,33,1,,,61115c54d46f4606854c8843,61b9000faed682a91429f075,2021-12-14_15h35.54.760,PRaM,2021.2.3,Win32,59.61962678,61b8f3437b89212fae0dfadf
7,0.5119,space,0.2019,0,374,374,44,1,,,61115c54d46f4606854c8843,61b9000faed682a91429f075,2021-12-14_15h35.54.760,PRaM,2021.2.3,Win32,59.61962678,61b8f3437b89212fae0dfadf
4,0.5979,space,0.101,0,375,375,375,1,,,61115c54d46f4606854c8843,61b9000faed682a91429f075,2021-12-14_15h35.54.760,PRaM,2021.2.3,Win32,59.61962678,61b8f3437b89212fae0dfadf
6,0.5811,space,0.0899,0,376,376,155,1,,,61115c54d46f4606854c8843,61b9000faed682a91429f075,2021-12-14_15h35.54.760,PRaM,2021.2.3,Win32,59.61962678,61b8f3437b89212fae0dfadf
7,0.541,space,0.1533,0,377,377,192,1,,,61115c54d46f4606854c8843,61b9000faed682a91429f075,2021-12-14_15h35.54.760,PRaM,2021.2.3,Win32,59.61962678,61b8f3437b89212fae0dfadf
