Rating.response,Rating.rt,EndTrial.keys,EndTrial.rt,trials.thisRepN,trials.thisTrialN,trials.thisN,trials.thisIndex,trials.ran,Pos1,Pos2,participant,session,date,expName,psychopyVersion,OS,frameRate,study_id
3,12.539,space,11.994,0,0,0,30,1,,,613a43648c97902f85b31182,643773021e59ac618c7f5166,04-12-2023_23h19.03.519,PRaM,2021.2.3,MacIntel,59.95203837,61b8f3437b89212fae0dfadf
1,8.812,space,7.732,0,1,1,101,1,,,613a43648c97902f85b31182,643773021e59ac618c7f5166,04-12-2023_23h19.03.519,PRaM,2021.2.3,MacIntel,59.95203837,61b8f3437b89212fae0dfadf
1,4.16,space,2.769,0,2,2,9,1,,,613a43648c97902f85b31182,643773021e59ac618c7f5166,04-12-2023_23h19.03.519,PRaM,2021.2.3,MacIntel,59.95203837,61b8f3437b89212fae0dfadf
6,2.844,space,2.203,0,3,3,26,1,,,613a43648c97902f85b31182,643773021e59ac618c7f5166,04-12-2023_23h19.03.519,PRaM,2021.2.3,MacIntel,59.95203837,61b8f3437b89212fae0dfadf
1,13.975,space,12.844,0,4,4,5,1,,,613a43648c97902f85b31182,643773021e59ac618c7f5166,04-12-2023_23h19.03.519,PRaM,2021.2.3,MacIntel,59.95203837,61b8f3437b89212fae0dfadf
7,2.592,space,2.014,0,5,5,259,1,,,613a43648c97902f85b31182,643773021e59ac618c7f5166,04-12-2023_23h19.03.519,PRaM,2021.2.3,MacIntel,59.95203837,61b8f3437b89212fae0dfadf
1,2.684,space,1.613,0,6,6,82,1,,,613a43648c97902f85b31182,643773021e59ac618c7f5166,04-12-2023_23h19.03.519,PRaM,2021.2.3,MacIntel,59.95203837,61b8f3437b89212fae0dfadf
1,2.898,space,1.915,0,7,7,321,1,,,613a43648c97902f85b31182,643773021e59ac618c7f5166,04-12-2023_23h19.03.519,PRaM,2021.2.3,MacIntel,59.95203837,61b8f3437b89212fae0dfadf
4,3.079,space,2.093,0,8,8,368,1,,,613a43648c97902f85b31182,643773021e59ac618c7f5166,04-12-2023_23h19.03.519,PRaM,2021.2.3,MacIntel,59.95203837,61b8f3437b89212fae0dfadf
8,2.902,space,4.32,0,9,9,334,1,,,613a43648c97902f85b31182,643773021e59ac618c7f5166,04-12-2023_23h19.03.519,PRaM,2021.2.3,MacIntel,59.95203837,61b8f3437b89212fae0dfadf
7,2.774,space,1.538,0,10,10,332,1,,,613a43648c97902f85b31182,643773021e59ac618c7f5166,04-12-2023_23h19.03.519,PRaM,2021.2.3,MacIntel,59.95203837,61b8f3437b89212fae0dfadf
3,3.107,space,1.966,0,11,11,176,1,,,613a43648c97902f85b31182,643773021e59ac618c7f5166,04-12-2023_23h19.03.519,PRaM,2021.2.3,MacIntel,59.95203837,61b8f3437b89212fae0dfadf
2,4.803,space,3.791,0,12,12,79,1,,,613a43648c97902f85b31182,643773021e59ac618c7f5166,04-12-2023_23h19.03.519,PRaM,2021.2.3,MacIntel,59.95203837,61b8f3437b89212fae0dfadf
5,2.475,space,1.321,0,13,13,258,1,,,613a43648c97902f85b31182,643773021e59ac618c7f5166,04-12-2023_23h19.03.519,PRaM,2021.2.3,MacIntel,59.95203837,61b8f3437b89212fae0dfadf
7,3.494,space,2.485,0,14,14,331,1,,,613a43648c97902f85b31182,643773021e59ac618c7f5166,04-12-2023_23h19.03.519,PRaM,2021.2.3,MacIntel,59.95203837,61b8f3437b89212fae0dfadf
7,2.189,space,0.843,0,15,15,100,1,,,613a43648c97902f85b31182,643773021e59ac618c7f5166,04-12-2023_23h19.03.519,PRaM,2021.2.3,MacIntel,59.95203837,61b8f3437b89212fae0dfadf
5,3.048,space,1.992,0,16,16,244,1,,,613a43648c97902f85b31182,643773021e59ac618c7f5166,04-12-2023_23h19.03.519,PRaM,2021.2.3,MacIntel,59.95203837,61b8f3437b89212fae0dfadf
3,2.917,space,1.944,0,17,17,268,1,,,613a43648c97902f85b31182,643773021e59ac618c7f5166,04-12-2023_23h19.03.519,PRaM,2021.2.3,MacIntel,59.95203837,61b8f3437b89212fae0dfadf
3,3.328,space,2.94,0,18,18,342,1,,,613a43648c97902f85b31182,643773021e59ac618c7f5166,04-12-2023_23h19.03.519,PRaM,2021.2.3,MacIntel,59.95203837,61b8f3437b89212fae0dfadf
5,2.195,space,1.382,0,19,19,305,1,,,613a43648c97902f85b31182,643773021e59ac618c7f5166,04-12-2023_23h19.03.519,PRaM,2021.2.3,MacIntel,59.95203837,61b8f3437b89212fae0dfadf
8,4.305,space,9.853,0,20,20,14,1,,,613a43648c97902f85b31182,643773021e59ac618c7f5166,04-12-2023_23h19.03.519,PRaM,2021.2.3,MacIntel,59.95203837,61b8f3437b89212fae0dfadf
7,5.011,space,4.439,0,21,21,88,1,,,613a43648c97902f85b31182,643773021e59ac618c7f5166,04-12-2023_23h19.03.519,PRaM,2021.2.3,MacIntel,59.95203837,61b8f3437b89212fae0dfadf
2,12.794,space,15.943,0,22,22,313,1,,,613a43648c97902f85b31182,643773021e59ac618c7f5166,04-12-2023_23h19.03.519,PRaM,2021.2.3,MacIntel,59.95203837,61b8f3437b89212fae0dfadf
2,5.358,space,4.776,0,23,23,109,1,,,613a43648c97902f85b31182,643773021e59ac618c7f5166,04-12-2023_23h19.03.519,PRaM,2021.2.3,MacIntel,59.95203837,61b8f3437b89212fae0dfadf
8,2.889,space,1.664,0,24,24,239,1,,,613a43648c97902f85b31182,643773021e59ac618c7f5166,04-12-2023_23h19.03.519,PRaM,2021.2.3,MacIntel,59.95203837,61b8f3437b89212fae0dfadf
4,2.672,space,1.438,0,25,25,373,1,,,613a43648c97902f85b31182,643773021e59ac618c7f5166,04-12-2023_23h19.03.519,PRaM,2021.2.3,MacIntel,59.95203837,61b8f3437b89212fae0dfadf
2,6.211,space,7.589,0,26,26,360,1,,,613a43648c97902f85b31182,643773021e59ac618c7f5166,04-12-2023_23h19.03.519,PRaM,2021.2.3,MacIntel,59.95203837,61b8f3437b89212fae0dfadf
7,3.499,space,2.1,0,27,27,194,1,,,613a43648c97902f85b31182,643773021e59ac618c7f5166,04-12-2023_23h19.03.519,PRaM,2021.2.3,MacIntel,59.95203837,61b8f3437b89212fae0dfadf
9,2.782,space,2.537,0,28,28,301,1,,,613a43648c97902f85b31182,643773021e59ac618c7f5166,04-12-2023_23h19.03.519,PRaM,2021.2.3,MacIntel,59.95203837,61b8f3437b89212fae0dfadf
3,7.083,space,12.582,0,29,29,283,1,,,613a43648c97902f85b31182,643773021e59ac618c7f5166,04-12-2023_23h19.03.519,PRaM,2021.2.3,MacIntel,59.95203837,61b8f3437b89212fae0dfadf
2,2.206,space,1.19,0,30,30,265,1,,,613a43648c97902f85b31182,643773021e59ac618c7f5166,04-12-2023_23h19.03.519,PRaM,2021.2.3,MacIntel,59.95203837,61b8f3437b89212fae0dfadf
3,3.789,space,3.011,0,31,31,311,1,,,613a43648c97902f85b31182,643773021e59ac618c7f5166,04-12-2023_23h19.03.519,PRaM,2021.2.3,MacIntel,59.95203837,61b8f3437b89212fae0dfadf
8,2.542,space,1.767,0,32,32,119,1,,,613a43648c97902f85b31182,643773021e59ac618c7f5166,04-12-2023_23h19.03.519,PRaM,2021.2.3,MacIntel,59.95203837,61b8f3437b89212fae0dfadf
9,2.763,space,1.75,0,33,33,372,1,,,613a43648c97902f85b31182,643773021e59ac618c7f5166,04-12-2023_23h19.03.519,PRaM,2021.2.3,MacIntel,59.95203837,61b8f3437b89212fae0dfadf
3,3.209,space,3.027,0,34,34,345,1,,,613a43648c97902f85b31182,643773021e59ac618c7f5166,04-12-2023_23h19.03.519,PRaM,2021.2.3,MacIntel,59.95203837,61b8f3437b89212fae0dfadf
2,2.695,space,1.422,0,35,35,377,1,,,613a43648c97902f85b31182,643773021e59ac618c7f5166,04-12-2023_23h19.03.519,PRaM,2021.2.3,MacIntel,59.95203837,61b8f3437b89212fae0dfadf
2,2.572,space,1.297,0,36,36,71,1,,,613a43648c97902f85b31182,643773021e59ac618c7f5166,04-12-2023_23h19.03.519,PRaM,2021.2.3,MacIntel,59.95203837,61b8f3437b89212fae0dfadf
2,2.699,space,1.388,0,37,37,275,1,,,613a43648c97902f85b31182,643773021e59ac618c7f5166,04-12-2023_23h19.03.519,PRaM,2021.2.3,MacIntel,59.95203837,61b8f3437b89212fae0dfadf
2,2.312,space,0.984,0,38,38,231,1,,,613a43648c97902f85b31182,643773021e59ac618c7f5166,04-12-2023_23h19.03.519,PRaM,2021.2.3,MacIntel,59.95203837,61b8f3437b89212fae0dfadf
4,3.074,space,2.069,0,39,39,294,1,,,613a43648c97902f85b31182,643773021e59ac618c7f5166,04-12-2023_23h19.03.519,PRaM,2021.2.3,MacIntel,59.95203837,61b8f3437b89212fae0dfadf
7,4.998,space,3.968,0,40,40,118,1,,,613a43648c97902f85b31182,643773021e59ac618c7f5166,04-12-2023_23h19.03.519,PRaM,2021.2.3,MacIntel,59.95203837,61b8f3437b89212fae0dfadf
4,4.825,space,3.777,0,41,41,28,1,,,613a43648c97902f85b31182,643773021e59ac618c7f5166,04-12-2023_23h19.03.519,PRaM,2021.2.3,MacIntel,59.95203837,61b8f3437b89212fae0dfadf
3,5.811,space,4.79,0,42,42,322,1,,,613a43648c97902f85b31182,643773021e59ac618c7f5166,04-12-2023_23h19.03.519,PRaM,2021.2.3,MacIntel,59.95203837,61b8f3437b89212fae0dfadf
5,3.088,space,2.073,0,43,43,257,1,,,613a43648c97902f85b31182,643773021e59ac618c7f5166,04-12-2023_23h19.03.519,PRaM,2021.2.3,MacIntel,59.95203837,61b8f3437b89212fae0dfadf
1,4.591,space,3.466,0,44,44,48,1,,,613a43648c97902f85b31182,643773021e59ac618c7f5166,04-12-2023_23h19.03.519,PRaM,2021.2.3,MacIntel,59.95203837,61b8f3437b89212fae0dfadf
7,3.553,space,3.246,0,45,45,297,1,,,613a43648c97902f85b31182,643773021e59ac618c7f5166,04-12-2023_23h19.03.519,PRaM,2021.2.3,MacIntel,59.95203837,61b8f3437b89212fae0dfadf
1,3.083,space,2.004,0,46,46,49,1,,,613a43648c97902f85b31182,643773021e59ac618c7f5166,04-12-2023_23h19.03.519,PRaM,2021.2.3,MacIntel,59.95203837,61b8f3437b89212fae0dfadf
7,7.299,space,6.718,0,47,47,288,1,,,613a43648c97902f85b31182,643773021e59ac618c7f5166,04-12-2023_23h19.03.519,PRaM,2021.2.3,MacIntel,59.95203837,61b8f3437b89212fae0dfadf
2,4.043,space,3.636,0,48,48,87,1,,,613a43648c97902f85b31182,643773021e59ac618c7f5166,04-12-2023_23h19.03.519,PRaM,2021.2.3,MacIntel,59.95203837,61b8f3437b89212fae0dfadf
2,2.576,space,1.159,0,49,49,13,1,,,613a43648c97902f85b31182,643773021e59ac618c7f5166,04-12-2023_23h19.03.519,PRaM,2021.2.3,MacIntel,59.95203837,61b8f3437b89212fae0dfadf
2,2.259,space,1.048,0,50,50,133,1,,,613a43648c97902f85b31182,643773021e59ac618c7f5166,04-12-2023_23h19.03.519,PRaM,2021.2.3,MacIntel,59.95203837,61b8f3437b89212fae0dfadf
7,2.12,space,0.889,0,51,51,43,1,,,613a43648c97902f85b31182,643773021e59ac618c7f5166,04-12-2023_23h19.03.519,PRaM,2021.2.3,MacIntel,59.95203837,61b8f3437b89212fae0dfadf
9,2.164,space,0.966,0,52,52,137,1,,,613a43648c97902f85b31182,643773021e59ac618c7f5166,04-12-2023_23h19.03.519,PRaM,2021.2.3,MacIntel,59.95203837,61b8f3437b89212fae0dfadf
2,4.303,space,3.349,0,53,53,77,1,,,613a43648c97902f85b31182,643773021e59ac618c7f5166,04-12-2023_23h19.03.519,PRaM,2021.2.3,MacIntel,59.95203837,61b8f3437b89212fae0dfadf
2,2.285,space,0.897,0,54,54,135,1,,,613a43648c97902f85b31182,643773021e59ac618c7f5166,04-12-2023_23h19.03.519,PRaM,2021.2.3,MacIntel,59.95203837,61b8f3437b89212fae0dfadf
7,2.03,space,0.912,0,55,55,141,1,,,613a43648c97902f85b31182,643773021e59ac618c7f5166,04-12-2023_23h19.03.519,PRaM,2021.2.3,MacIntel,59.95203837,61b8f3437b89212fae0dfadf
8,2.8,space,1.702,0,56,56,164,1,,,613a43648c97902f85b31182,643773021e59ac618c7f5166,04-12-2023_23h19.03.519,PRaM,2021.2.3,MacIntel,59.95203837,61b8f3437b89212fae0dfadf
2,4.348,space,3.179,0,57,57,293,1,,,613a43648c97902f85b31182,643773021e59ac618c7f5166,04-12-2023_23h19.03.519,PRaM,2021.2.3,MacIntel,59.95203837,61b8f3437b89212fae0dfadf
9,2.819,space,1.703,0,58,58,279,1,,,613a43648c97902f85b31182,643773021e59ac618c7f5166,04-12-2023_23h19.03.519,PRaM,2021.2.3,MacIntel,59.95203837,61b8f3437b89212fae0dfadf
8,2.355,space,1.539,0,59,59,347,1,,,613a43648c97902f85b31182,643773021e59ac618c7f5166,04-12-2023_23h19.03.519,PRaM,2021.2.3,MacIntel,59.95203837,61b8f3437b89212fae0dfadf
8,2.198,space,0.988,0,60,60,33,1,,,613a43648c97902f85b31182,643773021e59ac618c7f5166,04-12-2023_23h19.03.519,PRaM,2021.2.3,MacIntel,59.95203837,61b8f3437b89212fae0dfadf
9,1.798,space,0.178,0,61,61,134,1,,,613a43648c97902f85b31182,643773021e59ac618c7f5166,04-12-2023_23h19.03.519,PRaM,2021.2.3,MacIntel,59.95203837,61b8f3437b89212fae0dfadf
7,2.322,space,0.617,0,62,62,51,1,,,613a43648c97902f85b31182,643773021e59ac618c7f5166,04-12-2023_23h19.03.519,PRaM,2021.2.3,MacIntel,59.95203837,61b8f3437b89212fae0dfadf
9,6.288,space,4.726,0,63,63,228,1,,,613a43648c97902f85b31182,643773021e59ac618c7f5166,04-12-2023_23h19.03.519,PRaM,2021.2.3,MacIntel,59.95203837,61b8f3437b89212fae0dfadf
8,3.503,space,2.262,0,64,64,56,1,,,613a43648c97902f85b31182,643773021e59ac618c7f5166,04-12-2023_23h19.03.519,PRaM,2021.2.3,MacIntel,59.95203837,61b8f3437b89212fae0dfadf
9,2.382,space,1.135,0,65,65,16,1,,,613a43648c97902f85b31182,643773021e59ac618c7f5166,04-12-2023_23h19.03.519,PRaM,2021.2.3,MacIntel,59.95203837,61b8f3437b89212fae0dfadf
2,3.136,space,1.552,0,66,66,284,1,,,613a43648c97902f85b31182,643773021e59ac618c7f5166,04-12-2023_23h19.03.519,PRaM,2021.2.3,MacIntel,59.95203837,61b8f3437b89212fae0dfadf
2,22.948,space,23.015,0,67,67,50,1,,,613a43648c97902f85b31182,643773021e59ac618c7f5166,04-12-2023_23h19.03.519,PRaM,2021.2.3,MacIntel,59.95203837,61b8f3437b89212fae0dfadf
4,5.222,space,3.902,0,68,68,177,1,,,613a43648c97902f85b31182,643773021e59ac618c7f5166,04-12-2023_23h19.03.519,PRaM,2021.2.3,MacIntel,59.95203837,61b8f3437b89212fae0dfadf
7,2.717,space,1.283,0,69,69,340,1,,,613a43648c97902f85b31182,643773021e59ac618c7f5166,04-12-2023_23h19.03.519,PRaM,2021.2.3,MacIntel,59.95203837,61b8f3437b89212fae0dfadf
7,2.652,space,1.049,0,70,70,357,1,,,613a43648c97902f85b31182,643773021e59ac618c7f5166,04-12-2023_23h19.03.519,PRaM,2021.2.3,MacIntel,59.95203837,61b8f3437b89212fae0dfadf
7,1.798,space,0.204,0,71,71,335,1,,,613a43648c97902f85b31182,643773021e59ac618c7f5166,04-12-2023_23h19.03.519,PRaM,2021.2.3,MacIntel,59.95203837,61b8f3437b89212fae0dfadf
8,2.49,space,1.403,0,72,72,165,1,,,613a43648c97902f85b31182,643773021e59ac618c7f5166,04-12-2023_23h19.03.519,PRaM,2021.2.3,MacIntel,59.95203837,61b8f3437b89212fae0dfadf
9,1.866,space,0.598,0,73,73,20,1,,,613a43648c97902f85b31182,643773021e59ac618c7f5166,04-12-2023_23h19.03.519,PRaM,2021.2.3,MacIntel,59.95203837,61b8f3437b89212fae0dfadf
7,3.42,space,1.867,0,74,74,80,1,,,613a43648c97902f85b31182,643773021e59ac618c7f5166,04-12-2023_23h19.03.519,PRaM,2021.2.3,MacIntel,59.95203837,61b8f3437b89212fae0dfadf
3,8.19,space,6.631,0,75,75,218,1,,,613a43648c97902f85b31182,643773021e59ac618c7f5166,04-12-2023_23h19.03.519,PRaM,2021.2.3,MacIntel,59.95203837,61b8f3437b89212fae0dfadf
8,3.073,space,1.648,0,76,76,84,1,,,613a43648c97902f85b31182,643773021e59ac618c7f5166,04-12-2023_23h19.03.519,PRaM,2021.2.3,MacIntel,59.95203837,61b8f3437b89212fae0dfadf
8,4.133,space,2.45,0,77,77,327,1,,,613a43648c97902f85b31182,643773021e59ac618c7f5166,04-12-2023_23h19.03.519,PRaM,2021.2.3,MacIntel,59.95203837,61b8f3437b89212fae0dfadf
2,2.513,space,4.177,0,78,78,89,1,,,613a43648c97902f85b31182,643773021e59ac618c7f5166,04-12-2023_23h19.03.519,PRaM,2021.2.3,MacIntel,59.95203837,61b8f3437b89212fae0dfadf
1,2.708,space,1.118,0,79,79,191,1,,,613a43648c97902f85b31182,643773021e59ac618c7f5166,04-12-2023_23h19.03.519,PRaM,2021.2.3,MacIntel,59.95203837,61b8f3437b89212fae0dfadf
7,3.863,space,2.618,0,80,80,127,1,,,613a43648c97902f85b31182,643773021e59ac618c7f5166,04-12-2023_23h19.03.519,PRaM,2021.2.3,MacIntel,59.95203837,61b8f3437b89212fae0dfadf
8,2.79,space,1.743,0,81,81,102,1,,,613a43648c97902f85b31182,643773021e59ac618c7f5166,04-12-2023_23h19.03.519,PRaM,2021.2.3,MacIntel,59.95203837,61b8f3437b89212fae0dfadf
2,5.139,space,4.087,0,82,82,235,1,,,613a43648c97902f85b31182,643773021e59ac618c7f5166,04-12-2023_23h19.03.519,PRaM,2021.2.3,MacIntel,59.95203837,61b8f3437b89212fae0dfadf
4,4.347,space,3.16,0,83,83,76,1,,,613a43648c97902f85b31182,643773021e59ac618c7f5166,04-12-2023_23h19.03.519,PRaM,2021.2.3,MacIntel,59.95203837,61b8f3437b89212fae0dfadf
3,3.372,space,2.578,0,84,84,145,1,,,613a43648c97902f85b31182,643773021e59ac618c7f5166,04-12-2023_23h19.03.519,PRaM,2021.2.3,MacIntel,59.95203837,61b8f3437b89212fae0dfadf
1,2.413,space,0.762,0,85,85,15,1,,,613a43648c97902f85b31182,643773021e59ac618c7f5166,04-12-2023_23h19.03.519,PRaM,2021.2.3,MacIntel,59.95203837,61b8f3437b89212fae0dfadf
7,4.162,space,2.832,0,86,86,147,1,,,613a43648c97902f85b31182,643773021e59ac618c7f5166,04-12-2023_23h19.03.519,PRaM,2021.2.3,MacIntel,59.95203837,61b8f3437b89212fae0dfadf
2,4.033,space,2.416,0,87,87,68,1,,,613a43648c97902f85b31182,643773021e59ac618c7f5166,04-12-2023_23h19.03.519,PRaM,2021.2.3,MacIntel,59.95203837,61b8f3437b89212fae0dfadf
1,3.574,space,1.792,0,88,88,78,1,,,613a43648c97902f85b31182,643773021e59ac618c7f5166,04-12-2023_23h19.03.519,PRaM,2021.2.3,MacIntel,59.95203837,61b8f3437b89212fae0dfadf
1,4.767,space,3.087,0,89,89,300,1,,,613a43648c97902f85b31182,643773021e59ac618c7f5166,04-12-2023_23h19.03.519,PRaM,2021.2.3,MacIntel,59.95203837,61b8f3437b89212fae0dfadf
3,2.475,space,0.964,0,90,90,286,1,,,613a43648c97902f85b31182,643773021e59ac618c7f5166,04-12-2023_23h19.03.519,PRaM,2021.2.3,MacIntel,59.95203837,61b8f3437b89212fae0dfadf
2,5.33,space,3.705,0,91,91,69,1,,,613a43648c97902f85b31182,643773021e59ac618c7f5166,04-12-2023_23h19.03.519,PRaM,2021.2.3,MacIntel,59.95203837,61b8f3437b89212fae0dfadf
7,3.641,space,1.982,0,92,92,149,1,,,613a43648c97902f85b31182,643773021e59ac618c7f5166,04-12-2023_23h19.03.519,PRaM,2021.2.3,MacIntel,59.95203837,61b8f3437b89212fae0dfadf
2,2.632,space,0.849,0,93,93,108,1,,,613a43648c97902f85b31182,643773021e59ac618c7f5166,04-12-2023_23h19.03.519,PRaM,2021.2.3,MacIntel,59.95203837,61b8f3437b89212fae0dfadf
9,2.706,space,1.05,0,94,94,326,1,,,613a43648c97902f85b31182,643773021e59ac618c7f5166,04-12-2023_23h19.03.519,PRaM,2021.2.3,MacIntel,59.95203837,61b8f3437b89212fae0dfadf
7,43.617,space,43.372,0,95,95,306,1,,,613a43648c97902f85b31182,643773021e59ac618c7f5166,04-12-2023_23h19.03.519,PRaM,2021.2.3,MacIntel,59.95203837,61b8f3437b89212fae0dfadf
,,space,23.043,0,96,96,205,1,,,613a43648c97902f85b31182,643773021e59ac618c7f5166,04-12-2023_23h19.03.519,PRaM,2021.2.3,MacIntel,59.95203837,61b8f3437b89212fae0dfadf
3,2.088,space,2.273,0,97,97,316,1,,,613a43648c97902f85b31182,643773021e59ac618c7f5166,04-12-2023_23h19.03.519,PRaM,2021.2.3,MacIntel,59.95203837,61b8f3437b89212fae0dfadf
6,2.241,space,1.126,0,98,98,25,1,,,613a43648c97902f85b31182,643773021e59ac618c7f5166,04-12-2023_23h19.03.519,PRaM,2021.2.3,MacIntel,59.95203837,61b8f3437b89212fae0dfadf
5,4.011,space,2.99,0,99,99,355,1,,,613a43648c97902f85b31182,643773021e59ac618c7f5166,04-12-2023_23h19.03.519,PRaM,2021.2.3,MacIntel,59.95203837,61b8f3437b89212fae0dfadf
2,3.848,space,2.444,0,100,100,289,1,,,613a43648c97902f85b31182,643773021e59ac618c7f5166,04-12-2023_23h19.03.519,PRaM,2021.2.3,MacIntel,59.95203837,61b8f3437b89212fae0dfadf
8,3.028,space,1.591,0,101,101,238,1,,,613a43648c97902f85b31182,643773021e59ac618c7f5166,04-12-2023_23h19.03.519,PRaM,2021.2.3,MacIntel,59.95203837,61b8f3437b89212fae0dfadf
8,2.793,space,1.599,0,102,102,363,1,,,613a43648c97902f85b31182,643773021e59ac618c7f5166,04-12-2023_23h19.03.519,PRaM,2021.2.3,MacIntel,59.95203837,61b8f3437b89212fae0dfadf
9,2.527,space,1.358,0,103,103,280,1,,,613a43648c97902f85b31182,643773021e59ac618c7f5166,04-12-2023_23h19.03.519,PRaM,2021.2.3,MacIntel,59.95203837,61b8f3437b89212fae0dfadf
2,2.863,space,2.071,0,104,104,253,1,,,613a43648c97902f85b31182,643773021e59ac618c7f5166,04-12-2023_23h19.03.519,PRaM,2021.2.3,MacIntel,59.95203837,61b8f3437b89212fae0dfadf
9,2.478,space,0.993,0,105,105,304,1,,,613a43648c97902f85b31182,643773021e59ac618c7f5166,04-12-2023_23h19.03.519,PRaM,2021.2.3,MacIntel,59.95203837,61b8f3437b89212fae0dfadf
8,4.591,space,3.173,0,106,106,285,1,,,613a43648c97902f85b31182,643773021e59ac618c7f5166,04-12-2023_23h19.03.519,PRaM,2021.2.3,MacIntel,59.95203837,61b8f3437b89212fae0dfadf
3,2.983,space,1.391,0,107,107,103,1,,,613a43648c97902f85b31182,643773021e59ac618c7f5166,04-12-2023_23h19.03.519,PRaM,2021.2.3,MacIntel,59.95203837,61b8f3437b89212fae0dfadf
9,3.233,space,7.255,0,108,108,320,1,,,613a43648c97902f85b31182,643773021e59ac618c7f5166,04-12-2023_23h19.03.519,PRaM,2021.2.3,MacIntel,59.95203837,61b8f3437b89212fae0dfadf
8,3.547,space,2.174,0,109,109,196,1,,,613a43648c97902f85b31182,643773021e59ac618c7f5166,04-12-2023_23h19.03.519,PRaM,2021.2.3,MacIntel,59.95203837,61b8f3437b89212fae0dfadf
2,6.826,space,5.444,0,110,110,295,1,,,613a43648c97902f85b31182,643773021e59ac618c7f5166,04-12-2023_23h19.03.519,PRaM,2021.2.3,MacIntel,59.95203837,61b8f3437b89212fae0dfadf
2,9.433,space,8.201,0,111,111,92,1,,,613a43648c97902f85b31182,643773021e59ac618c7f5166,04-12-2023_23h19.03.519,PRaM,2021.2.3,MacIntel,59.95203837,61b8f3437b89212fae0dfadf
2,2.269,space,0.717,0,112,112,131,1,,,613a43648c97902f85b31182,643773021e59ac618c7f5166,04-12-2023_23h19.03.519,PRaM,2021.2.3,MacIntel,59.95203837,61b8f3437b89212fae0dfadf
6,2.312,space,0.91,0,113,113,192,1,,,613a43648c97902f85b31182,643773021e59ac618c7f5166,04-12-2023_23h19.03.519,PRaM,2021.2.3,MacIntel,59.95203837,61b8f3437b89212fae0dfadf
8,3.327,space,2.222,0,114,114,152,1,,,613a43648c97902f85b31182,643773021e59ac618c7f5166,04-12-2023_23h19.03.519,PRaM,2021.2.3,MacIntel,59.95203837,61b8f3437b89212fae0dfadf
9,3.467,space,2.215,0,115,115,140,1,,,613a43648c97902f85b31182,643773021e59ac618c7f5166,04-12-2023_23h19.03.519,PRaM,2021.2.3,MacIntel,59.95203837,61b8f3437b89212fae0dfadf
2,4.601,space,3.39,0,116,116,106,1,,,613a43648c97902f85b31182,643773021e59ac618c7f5166,04-12-2023_23h19.03.519,PRaM,2021.2.3,MacIntel,59.95203837,61b8f3437b89212fae0dfadf
8,3.545,space,1.989,0,117,117,365,1,,,613a43648c97902f85b31182,643773021e59ac618c7f5166,04-12-2023_23h19.03.519,PRaM,2021.2.3,MacIntel,59.95203837,61b8f3437b89212fae0dfadf
9,2.223,space,0.655,0,118,118,136,1,,,613a43648c97902f85b31182,643773021e59ac618c7f5166,04-12-2023_23h19.03.519,PRaM,2021.2.3,MacIntel,59.95203837,61b8f3437b89212fae0dfadf
9,8.109,space,6.521,0,119,119,220,1,,,613a43648c97902f85b31182,643773021e59ac618c7f5166,04-12-2023_23h19.03.519,PRaM,2021.2.3,MacIntel,59.95203837,61b8f3437b89212fae0dfadf
2,3.191,space,1.608,0,120,120,308,1,,,613a43648c97902f85b31182,643773021e59ac618c7f5166,04-12-2023_23h19.03.519,PRaM,2021.2.3,MacIntel,59.95203837,61b8f3437b89212fae0dfadf
2,2.243,space,2.537,0,121,121,148,1,,,613a43648c97902f85b31182,643773021e59ac618c7f5166,04-12-2023_23h19.03.519,PRaM,2021.2.3,MacIntel,59.95203837,61b8f3437b89212fae0dfadf
2,3.649,space,5.555,0,122,122,161,1,,,613a43648c97902f85b31182,643773021e59ac618c7f5166,04-12-2023_23h19.03.519,PRaM,2021.2.3,MacIntel,59.95203837,61b8f3437b89212fae0dfadf
1,3.439,space,1.74,0,123,123,202,1,,,613a43648c97902f85b31182,643773021e59ac618c7f5166,04-12-2023_23h19.03.519,PRaM,2021.2.3,MacIntel,59.95203837,61b8f3437b89212fae0dfadf
1,2.17,space,0.575,0,124,124,312,1,,,613a43648c97902f85b31182,643773021e59ac618c7f5166,04-12-2023_23h19.03.519,PRaM,2021.2.3,MacIntel,59.95203837,61b8f3437b89212fae0dfadf
3,5.875,space,5.442,0,125,125,198,1,,,613a43648c97902f85b31182,643773021e59ac618c7f5166,04-12-2023_23h19.03.519,PRaM,2021.2.3,MacIntel,59.95203837,61b8f3437b89212fae0dfadf
2,2.729,space,0.912,0,126,126,94,1,,,613a43648c97902f85b31182,643773021e59ac618c7f5166,04-12-2023_23h19.03.519,PRaM,2021.2.3,MacIntel,59.95203837,61b8f3437b89212fae0dfadf
1,3.006,space,1.043,0,127,127,91,1,,,613a43648c97902f85b31182,643773021e59ac618c7f5166,04-12-2023_23h19.03.519,PRaM,2021.2.3,MacIntel,59.95203837,61b8f3437b89212fae0dfadf
5,2.704,space,1.077,0,128,128,206,1,,,613a43648c97902f85b31182,643773021e59ac618c7f5166,04-12-2023_23h19.03.519,PRaM,2021.2.3,MacIntel,59.95203837,61b8f3437b89212fae0dfadf
7,2.136,space,0.539,0,129,129,123,1,,,613a43648c97902f85b31182,643773021e59ac618c7f5166,04-12-2023_23h19.03.519,PRaM,2021.2.3,MacIntel,59.95203837,61b8f3437b89212fae0dfadf
8,1.827,space,0.253,0,130,130,98,1,,,613a43648c97902f85b31182,643773021e59ac618c7f5166,04-12-2023_23h19.03.519,PRaM,2021.2.3,MacIntel,59.95203837,61b8f3437b89212fae0dfadf
2,5.772,space,4.498,0,131,131,117,1,,,613a43648c97902f85b31182,643773021e59ac618c7f5166,04-12-2023_23h19.03.519,PRaM,2021.2.3,MacIntel,59.95203837,61b8f3437b89212fae0dfadf
3,3.707,space,2.112,0,132,132,358,1,,,613a43648c97902f85b31182,643773021e59ac618c7f5166,04-12-2023_23h19.03.519,PRaM,2021.2.3,MacIntel,59.95203837,61b8f3437b89212fae0dfadf
9,2.798,space,1.317,0,133,133,276,1,,,613a43648c97902f85b31182,643773021e59ac618c7f5166,04-12-2023_23h19.03.519,PRaM,2021.2.3,MacIntel,59.95203837,61b8f3437b89212fae0dfadf
2,6.302,space,4.945,0,134,134,130,1,,,613a43648c97902f85b31182,643773021e59ac618c7f5166,04-12-2023_23h19.03.519,PRaM,2021.2.3,MacIntel,59.95203837,61b8f3437b89212fae0dfadf
1,6.112,space,4.447,0,135,135,121,1,,,613a43648c97902f85b31182,643773021e59ac618c7f5166,04-12-2023_23h19.03.519,PRaM,2021.2.3,MacIntel,59.95203837,61b8f3437b89212fae0dfadf
9,2.192,space,0.519,0,136,136,225,1,,,613a43648c97902f85b31182,643773021e59ac618c7f5166,04-12-2023_23h19.03.519,PRaM,2021.2.3,MacIntel,59.95203837,61b8f3437b89212fae0dfadf
9,1.46,space,1.507,0,137,137,222,1,,,613a43648c97902f85b31182,643773021e59ac618c7f5166,04-12-2023_23h19.03.519,PRaM,2021.2.3,MacIntel,59.95203837,61b8f3437b89212fae0dfadf
8,2.309,space,0.692,0,138,138,182,1,,,613a43648c97902f85b31182,643773021e59ac618c7f5166,04-12-2023_23h19.03.519,PRaM,2021.2.3,MacIntel,59.95203837,61b8f3437b89212fae0dfadf
4,2.397,space,0.778,0,139,139,224,1,,,613a43648c97902f85b31182,643773021e59ac618c7f5166,04-12-2023_23h19.03.519,PRaM,2021.2.3,MacIntel,59.95203837,61b8f3437b89212fae0dfadf
4,1.801,space,0.149,0,140,140,187,1,,,613a43648c97902f85b31182,643773021e59ac618c7f5166,04-12-2023_23h19.03.519,PRaM,2021.2.3,MacIntel,59.95203837,61b8f3437b89212fae0dfadf
5,2.341,space,0.723,0,141,141,333,1,,,613a43648c97902f85b31182,643773021e59ac618c7f5166,04-12-2023_23h19.03.519,PRaM,2021.2.3,MacIntel,59.95203837,61b8f3437b89212fae0dfadf
2,122.009,space,123.291,0,142,142,96,1,,,613a43648c97902f85b31182,643773021e59ac618c7f5166,04-12-2023_23h19.03.519,PRaM,2021.2.3,MacIntel,59.95203837,61b8f3437b89212fae0dfadf
2,2.904,space,1.144,0,143,143,116,1,,,613a43648c97902f85b31182,643773021e59ac618c7f5166,04-12-2023_23h19.03.519,PRaM,2021.2.3,MacIntel,59.95203837,61b8f3437b89212fae0dfadf
2,3.843,space,2.416,0,144,144,246,1,,,613a43648c97902f85b31182,643773021e59ac618c7f5166,04-12-2023_23h19.03.519,PRaM,2021.2.3,MacIntel,59.95203837,61b8f3437b89212fae0dfadf
1,4.556,space,3.229,0,145,145,1,1,,,613a43648c97902f85b31182,643773021e59ac618c7f5166,04-12-2023_23h19.03.519,PRaM,2021.2.3,MacIntel,59.95203837,61b8f3437b89212fae0dfadf
,,space,49.189,0,146,146,233,1,,,613a43648c97902f85b31182,643773021e59ac618c7f5166,04-12-2023_23h19.03.519,PRaM,2021.2.3,MacIntel,59.95203837,61b8f3437b89212fae0dfadf
3,2.467,space,1.103,0,147,147,314,1,,,613a43648c97902f85b31182,643773021e59ac618c7f5166,04-12-2023_23h19.03.519,PRaM,2021.2.3,MacIntel,59.95203837,61b8f3437b89212fae0dfadf
1,3.032,space,1.356,0,148,148,10,1,,,613a43648c97902f85b31182,643773021e59ac618c7f5166,04-12-2023_23h19.03.519,PRaM,2021.2.3,MacIntel,59.95203837,61b8f3437b89212fae0dfadf
8,2.576,space,0.982,0,149,149,60,1,,,613a43648c97902f85b31182,643773021e59ac618c7f5166,04-12-2023_23h19.03.519,PRaM,2021.2.3,MacIntel,59.95203837,61b8f3437b89212fae0dfadf
2,3.714,space,2.059,0,150,150,153,1,,,613a43648c97902f85b31182,643773021e59ac618c7f5166,04-12-2023_23h19.03.519,PRaM,2021.2.3,MacIntel,59.95203837,61b8f3437b89212fae0dfadf
9,2.551,space,0.852,0,151,151,254,1,,,613a43648c97902f85b31182,643773021e59ac618c7f5166,04-12-2023_23h19.03.519,PRaM,2021.2.3,MacIntel,59.95203837,61b8f3437b89212fae0dfadf
1,3.885,space,2.582,0,152,152,200,1,,,613a43648c97902f85b31182,643773021e59ac618c7f5166,04-12-2023_23h19.03.519,PRaM,2021.2.3,MacIntel,59.95203837,61b8f3437b89212fae0dfadf
4,6.695,space,5.102,0,153,153,252,1,,,613a43648c97902f85b31182,643773021e59ac618c7f5166,04-12-2023_23h19.03.519,PRaM,2021.2.3,MacIntel,59.95203837,61b8f3437b89212fae0dfadf
8,5.225,space,3.914,0,154,154,230,1,,,613a43648c97902f85b31182,643773021e59ac618c7f5166,04-12-2023_23h19.03.519,PRaM,2021.2.3,MacIntel,59.95203837,61b8f3437b89212fae0dfadf
8,2.156,space,0.493,0,155,155,156,1,,,613a43648c97902f85b31182,643773021e59ac618c7f5166,04-12-2023_23h19.03.519,PRaM,2021.2.3,MacIntel,59.95203837,61b8f3437b89212fae0dfadf
6,2.06,space,0.39,0,156,156,376,1,,,613a43648c97902f85b31182,643773021e59ac618c7f5166,04-12-2023_23h19.03.519,PRaM,2021.2.3,MacIntel,59.95203837,61b8f3437b89212fae0dfadf
1,4.494,space,2.89,0,157,157,248,1,,,613a43648c97902f85b31182,643773021e59ac618c7f5166,04-12-2023_23h19.03.519,PRaM,2021.2.3,MacIntel,59.95203837,61b8f3437b89212fae0dfadf
4,2.355,space,0.769,0,158,158,356,1,,,613a43648c97902f85b31182,643773021e59ac618c7f5166,04-12-2023_23h19.03.519,PRaM,2021.2.3,MacIntel,59.95203837,61b8f3437b89212fae0dfadf
2,5.851,space,4.21,0,159,159,188,1,,,613a43648c97902f85b31182,643773021e59ac618c7f5166,04-12-2023_23h19.03.519,PRaM,2021.2.3,MacIntel,59.95203837,61b8f3437b89212fae0dfadf
2,3.255,space,1.658,0,160,160,329,1,,,613a43648c97902f85b31182,643773021e59ac618c7f5166,04-12-2023_23h19.03.519,PRaM,2021.2.3,MacIntel,59.95203837,61b8f3437b89212fae0dfadf
7,3.216,space,1.56,0,161,161,114,1,,,613a43648c97902f85b31182,643773021e59ac618c7f5166,04-12-2023_23h19.03.519,PRaM,2021.2.3,MacIntel,59.95203837,61b8f3437b89212fae0dfadf
6,1.925,space,0.318,0,162,162,341,1,,,613a43648c97902f85b31182,643773021e59ac618c7f5166,04-12-2023_23h19.03.519,PRaM,2021.2.3,MacIntel,59.95203837,61b8f3437b89212fae0dfadf
2,2.959,space,1.316,0,163,163,193,1,,,613a43648c97902f85b31182,643773021e59ac618c7f5166,04-12-2023_23h19.03.519,PRaM,2021.2.3,MacIntel,59.95203837,61b8f3437b89212fae0dfadf
8,3.751,space,2.123,0,164,164,264,1,,,613a43648c97902f85b31182,643773021e59ac618c7f5166,04-12-2023_23h19.03.519,PRaM,2021.2.3,MacIntel,59.95203837,61b8f3437b89212fae0dfadf
2,2.113,space,0.962,0,165,165,263,1,,,613a43648c97902f85b31182,643773021e59ac618c7f5166,04-12-2023_23h19.03.519,PRaM,2021.2.3,MacIntel,59.95203837,61b8f3437b89212fae0dfadf
2,3.32,space,1.697,0,166,166,214,1,,,613a43648c97902f85b31182,643773021e59ac618c7f5166,04-12-2023_23h19.03.519,PRaM,2021.2.3,MacIntel,59.95203837,61b8f3437b89212fae0dfadf
5,2.482,space,0.835,0,167,167,374,1,,,613a43648c97902f85b31182,643773021e59ac618c7f5166,04-12-2023_23h19.03.519,PRaM,2021.2.3,MacIntel,59.95203837,61b8f3437b89212fae0dfadf
9,2.467,space,0.83,0,168,168,242,1,,,613a43648c97902f85b31182,643773021e59ac618c7f5166,04-12-2023_23h19.03.519,PRaM,2021.2.3,MacIntel,59.95203837,61b8f3437b89212fae0dfadf
1,3.088,space,1.466,0,169,169,35,1,,,613a43648c97902f85b31182,643773021e59ac618c7f5166,04-12-2023_23h19.03.519,PRaM,2021.2.3,MacIntel,59.95203837,61b8f3437b89212fae0dfadf
2,4.298,space,2.738,0,170,170,34,1,,,613a43648c97902f85b31182,643773021e59ac618c7f5166,04-12-2023_23h19.03.519,PRaM,2021.2.3,MacIntel,59.95203837,61b8f3437b89212fae0dfadf
1,2.533,space,0.995,0,171,171,353,1,,,613a43648c97902f85b31182,643773021e59ac618c7f5166,04-12-2023_23h19.03.519,PRaM,2021.2.3,MacIntel,59.95203837,61b8f3437b89212fae0dfadf
,,space,0.548,0,172,172,151,1,,,613a43648c97902f85b31182,643773021e59ac618c7f5166,04-12-2023_23h19.03.519,PRaM,2021.2.3,MacIntel,59.95203837,61b8f3437b89212fae0dfadf
9,1.149,space,2.1,0,173,173,32,1,,,613a43648c97902f85b31182,643773021e59ac618c7f5166,04-12-2023_23h19.03.519,PRaM,2021.2.3,MacIntel,59.95203837,61b8f3437b89212fae0dfadf
1,2.285,space,0.687,0,174,174,247,1,,,613a43648c97902f85b31182,643773021e59ac618c7f5166,04-12-2023_23h19.03.519,PRaM,2021.2.3,MacIntel,59.95203837,61b8f3437b89212fae0dfadf
9,3.681,space,2.004,0,175,175,278,1,,,613a43648c97902f85b31182,643773021e59ac618c7f5166,04-12-2023_23h19.03.519,PRaM,2021.2.3,MacIntel,59.95203837,61b8f3437b89212fae0dfadf
8,2.407,space,0.786,0,176,176,302,1,,,613a43648c97902f85b31182,643773021e59ac618c7f5166,04-12-2023_23h19.03.519,PRaM,2021.2.3,MacIntel,59.95203837,61b8f3437b89212fae0dfadf
8,2.265,space,0.628,0,177,177,261,1,,,613a43648c97902f85b31182,643773021e59ac618c7f5166,04-12-2023_23h19.03.519,PRaM,2021.2.3,MacIntel,59.95203837,61b8f3437b89212fae0dfadf
7,4.045,space,2.53,0,178,178,256,1,,,613a43648c97902f85b31182,643773021e59ac618c7f5166,04-12-2023_23h19.03.519,PRaM,2021.2.3,MacIntel,59.95203837,61b8f3437b89212fae0dfadf
1,3.494,space,1.873,0,179,179,23,1,,,613a43648c97902f85b31182,643773021e59ac618c7f5166,04-12-2023_23h19.03.519,PRaM,2021.2.3,MacIntel,59.95203837,61b8f3437b89212fae0dfadf
9,2.261,space,0.629,0,180,180,197,1,,,613a43648c97902f85b31182,643773021e59ac618c7f5166,04-12-2023_23h19.03.519,PRaM,2021.2.3,MacIntel,59.95203837,61b8f3437b89212fae0dfadf
9,2.972,space,1.687,0,181,181,17,1,,,613a43648c97902f85b31182,643773021e59ac618c7f5166,04-12-2023_23h19.03.519,PRaM,2021.2.3,MacIntel,59.95203837,61b8f3437b89212fae0dfadf
9,1.484,space,1.377,0,182,182,221,1,,,613a43648c97902f85b31182,643773021e59ac618c7f5166,04-12-2023_23h19.03.519,PRaM,2021.2.3,MacIntel,59.95203837,61b8f3437b89212fae0dfadf
2,2.599,space,0.915,0,183,183,338,1,,,613a43648c97902f85b31182,643773021e59ac618c7f5166,04-12-2023_23h19.03.519,PRaM,2021.2.3,MacIntel,59.95203837,61b8f3437b89212fae0dfadf
1,2.01,space,0.368,0,184,184,107,1,,,613a43648c97902f85b31182,643773021e59ac618c7f5166,04-12-2023_23h19.03.519,PRaM,2021.2.3,MacIntel,59.95203837,61b8f3437b89212fae0dfadf
3,3.496,space,1.841,0,185,185,90,1,,,613a43648c97902f85b31182,643773021e59ac618c7f5166,04-12-2023_23h19.03.519,PRaM,2021.2.3,MacIntel,59.95203837,61b8f3437b89212fae0dfadf
8,2.871,space,1.319,0,186,186,6,1,,,613a43648c97902f85b31182,643773021e59ac618c7f5166,04-12-2023_23h19.03.519,PRaM,2021.2.3,MacIntel,59.95203837,61b8f3437b89212fae0dfadf
2,4.071,space,2.431,0,187,187,361,1,,,613a43648c97902f85b31182,643773021e59ac618c7f5166,04-12-2023_23h19.03.519,PRaM,2021.2.3,MacIntel,59.95203837,61b8f3437b89212fae0dfadf
3,1.897,space,0.256,0,188,188,362,1,,,613a43648c97902f85b31182,643773021e59ac618c7f5166,04-12-2023_23h19.03.519,PRaM,2021.2.3,MacIntel,59.95203837,61b8f3437b89212fae0dfadf
2,2.155,space,0.517,0,189,189,155,1,,,613a43648c97902f85b31182,643773021e59ac618c7f5166,04-12-2023_23h19.03.519,PRaM,2021.2.3,MacIntel,59.95203837,61b8f3437b89212fae0dfadf
2,1.479,space,2.174,0,190,190,122,1,,,613a43648c97902f85b31182,643773021e59ac618c7f5166,04-12-2023_23h19.03.519,PRaM,2021.2.3,MacIntel,59.95203837,61b8f3437b89212fae0dfadf
7,2.18,space,0.621,0,191,191,180,1,,,613a43648c97902f85b31182,643773021e59ac618c7f5166,04-12-2023_23h19.03.519,PRaM,2021.2.3,MacIntel,59.95203837,61b8f3437b89212fae0dfadf
2,2.464,space,0.857,0,192,192,287,1,,,613a43648c97902f85b31182,643773021e59ac618c7f5166,04-12-2023_23h19.03.519,PRaM,2021.2.3,MacIntel,59.95203837,61b8f3437b89212fae0dfadf
7,3.042,space,1.429,0,193,193,366,1,,,613a43648c97902f85b31182,643773021e59ac618c7f5166,04-12-2023_23h19.03.519,PRaM,2021.2.3,MacIntel,59.95203837,61b8f3437b89212fae0dfadf
1,5.012,space,3.234,0,194,194,328,1,,,613a43648c97902f85b31182,643773021e59ac618c7f5166,04-12-2023_23h19.03.519,PRaM,2021.2.3,MacIntel,59.95203837,61b8f3437b89212fae0dfadf
1,2.804,space,1.985,0,195,195,219,1,,,613a43648c97902f85b31182,643773021e59ac618c7f5166,04-12-2023_23h19.03.519,PRaM,2021.2.3,MacIntel,59.95203837,61b8f3437b89212fae0dfadf
2,4.247,space,2.919,0,196,196,64,1,,,613a43648c97902f85b31182,643773021e59ac618c7f5166,04-12-2023_23h19.03.519,PRaM,2021.2.3,MacIntel,59.95203837,61b8f3437b89212fae0dfadf
1,2.079,space,0.518,0,197,197,70,1,,,613a43648c97902f85b31182,643773021e59ac618c7f5166,04-12-2023_23h19.03.519,PRaM,2021.2.3,MacIntel,59.95203837,61b8f3437b89212fae0dfadf
2,5.38,space,5.361,0,198,198,67,1,,,613a43648c97902f85b31182,643773021e59ac618c7f5166,04-12-2023_23h19.03.519,PRaM,2021.2.3,MacIntel,59.95203837,61b8f3437b89212fae0dfadf
2,2.123,space,0.535,0,199,199,184,1,,,613a43648c97902f85b31182,643773021e59ac618c7f5166,04-12-2023_23h19.03.519,PRaM,2021.2.3,MacIntel,59.95203837,61b8f3437b89212fae0dfadf
2,4.577,space,8.472,0,200,200,315,1,,,613a43648c97902f85b31182,643773021e59ac618c7f5166,04-12-2023_23h19.03.519,PRaM,2021.2.3,MacIntel,59.95203837,61b8f3437b89212fae0dfadf
8,2.762,space,1.182,0,201,201,40,1,,,613a43648c97902f85b31182,643773021e59ac618c7f5166,04-12-2023_23h19.03.519,PRaM,2021.2.3,MacIntel,59.95203837,61b8f3437b89212fae0dfadf
2,3.105,space,1.675,0,202,202,163,1,,,613a43648c97902f85b31182,643773021e59ac618c7f5166,04-12-2023_23h19.03.519,PRaM,2021.2.3,MacIntel,59.95203837,61b8f3437b89212fae0dfadf
2,1.894,space,0.54,0,203,203,370,1,,,613a43648c97902f85b31182,643773021e59ac618c7f5166,04-12-2023_23h19.03.519,PRaM,2021.2.3,MacIntel,59.95203837,61b8f3437b89212fae0dfadf
2,1.895,space,0.531,0,204,204,343,1,,,613a43648c97902f85b31182,643773021e59ac618c7f5166,04-12-2023_23h19.03.519,PRaM,2021.2.3,MacIntel,59.95203837,61b8f3437b89212fae0dfadf
1,6.128,space,4.644,0,205,205,201,1,,,613a43648c97902f85b31182,643773021e59ac618c7f5166,04-12-2023_23h19.03.519,PRaM,2021.2.3,MacIntel,59.95203837,61b8f3437b89212fae0dfadf
8,2.591,space,0.985,0,206,206,86,1,,,613a43648c97902f85b31182,643773021e59ac618c7f5166,04-12-2023_23h19.03.519,PRaM,2021.2.3,MacIntel,59.95203837,61b8f3437b89212fae0dfadf
9,3.783,space,2.15,0,207,207,85,1,,,613a43648c97902f85b31182,643773021e59ac618c7f5166,04-12-2023_23h19.03.519,PRaM,2021.2.3,MacIntel,59.95203837,61b8f3437b89212fae0dfadf
7,2.459,space,0.833,0,208,208,274,1,,,613a43648c97902f85b31182,643773021e59ac618c7f5166,04-12-2023_23h19.03.519,PRaM,2021.2.3,MacIntel,59.95203837,61b8f3437b89212fae0dfadf
3,5.928,space,4.68,0,209,209,364,1,,,613a43648c97902f85b31182,643773021e59ac618c7f5166,04-12-2023_23h19.03.519,PRaM,2021.2.3,MacIntel,59.95203837,61b8f3437b89212fae0dfadf
7,2.383,space,0.788,0,210,210,125,1,,,613a43648c97902f85b31182,643773021e59ac618c7f5166,04-12-2023_23h19.03.519,PRaM,2021.2.3,MacIntel,59.95203837,61b8f3437b89212fae0dfadf
2,2.745,space,1.091,0,211,211,27,1,,,613a43648c97902f85b31182,643773021e59ac618c7f5166,04-12-2023_23h19.03.519,PRaM,2021.2.3,MacIntel,59.95203837,61b8f3437b89212fae0dfadf
1,2.363,space,0.757,0,212,212,260,1,,,613a43648c97902f85b31182,643773021e59ac618c7f5166,04-12-2023_23h19.03.519,PRaM,2021.2.3,MacIntel,59.95203837,61b8f3437b89212fae0dfadf
1,3.831,space,2.907,0,213,213,337,1,,,613a43648c97902f85b31182,643773021e59ac618c7f5166,04-12-2023_23h19.03.519,PRaM,2021.2.3,MacIntel,59.95203837,61b8f3437b89212fae0dfadf
2,2.318,space,0.574,0,214,214,249,1,,,613a43648c97902f85b31182,643773021e59ac618c7f5166,04-12-2023_23h19.03.519,PRaM,2021.2.3,MacIntel,59.95203837,61b8f3437b89212fae0dfadf
8,14.98,space,13.704,0,215,215,132,1,,,613a43648c97902f85b31182,643773021e59ac618c7f5166,04-12-2023_23h19.03.519,PRaM,2021.2.3,MacIntel,59.95203837,61b8f3437b89212fae0dfadf
7,3.664,space,2.323,0,216,216,66,1,,,613a43648c97902f85b31182,643773021e59ac618c7f5166,04-12-2023_23h19.03.519,PRaM,2021.2.3,MacIntel,59.95203837,61b8f3437b89212fae0dfadf
2,4.523,space,3.009,0,217,217,266,1,,,613a43648c97902f85b31182,643773021e59ac618c7f5166,04-12-2023_23h19.03.519,PRaM,2021.2.3,MacIntel,59.95203837,61b8f3437b89212fae0dfadf
2,2.477,space,0.866,0,218,218,105,1,,,613a43648c97902f85b31182,643773021e59ac618c7f5166,04-12-2023_23h19.03.519,PRaM,2021.2.3,MacIntel,59.95203837,61b8f3437b89212fae0dfadf
2,4.355,space,3.341,0,219,219,348,1,,,613a43648c97902f85b31182,643773021e59ac618c7f5166,04-12-2023_23h19.03.519,PRaM,2021.2.3,MacIntel,59.95203837,61b8f3437b89212fae0dfadf
1,2.626,space,0.994,0,220,220,352,1,,,613a43648c97902f85b31182,643773021e59ac618c7f5166,04-12-2023_23h19.03.519,PRaM,2021.2.3,MacIntel,59.95203837,61b8f3437b89212fae0dfadf
7,2.193,space,0.586,0,221,221,336,1,,,613a43648c97902f85b31182,643773021e59ac618c7f5166,04-12-2023_23h19.03.519,PRaM,2021.2.3,MacIntel,59.95203837,61b8f3437b89212fae0dfadf
2,2.177,space,0.566,0,222,222,41,1,,,613a43648c97902f85b31182,643773021e59ac618c7f5166,04-12-2023_23h19.03.519,PRaM,2021.2.3,MacIntel,59.95203837,61b8f3437b89212fae0dfadf
7,2.1,space,0.483,0,223,223,282,1,,,613a43648c97902f85b31182,643773021e59ac618c7f5166,04-12-2023_23h19.03.519,PRaM,2021.2.3,MacIntel,59.95203837,61b8f3437b89212fae0dfadf
2,3.152,space,1.526,0,224,224,65,1,,,613a43648c97902f85b31182,643773021e59ac618c7f5166,04-12-2023_23h19.03.519,PRaM,2021.2.3,MacIntel,59.95203837,61b8f3437b89212fae0dfadf
2,1.47,space,0.611,0,225,225,229,1,,,613a43648c97902f85b31182,643773021e59ac618c7f5166,04-12-2023_23h19.03.519,PRaM,2021.2.3,MacIntel,59.95203837,61b8f3437b89212fae0dfadf
9,1.995,space,0.354,0,226,226,53,1,,,613a43648c97902f85b31182,643773021e59ac618c7f5166,04-12-2023_23h19.03.519,PRaM,2021.2.3,MacIntel,59.95203837,61b8f3437b89212fae0dfadf
3,3.521,space,1.884,0,227,227,144,1,,,613a43648c97902f85b31182,643773021e59ac618c7f5166,04-12-2023_23h19.03.519,PRaM,2021.2.3,MacIntel,59.95203837,61b8f3437b89212fae0dfadf
8,2.194,space,0.528,0,228,228,291,1,,,613a43648c97902f85b31182,643773021e59ac618c7f5166,04-12-2023_23h19.03.519,PRaM,2021.2.3,MacIntel,59.95203837,61b8f3437b89212fae0dfadf
8,1.896,space,0.245,0,229,229,74,1,,,613a43648c97902f85b31182,643773021e59ac618c7f5166,04-12-2023_23h19.03.519,PRaM,2021.2.3,MacIntel,59.95203837,61b8f3437b89212fae0dfadf
8,6.665,space,5.046,0,230,230,319,1,,,613a43648c97902f85b31182,643773021e59ac618c7f5166,04-12-2023_23h19.03.519,PRaM,2021.2.3,MacIntel,59.95203837,61b8f3437b89212fae0dfadf
3,3.29,space,1.71,0,231,231,126,1,,,613a43648c97902f85b31182,643773021e59ac618c7f5166,04-12-2023_23h19.03.519,PRaM,2021.2.3,MacIntel,59.95203837,61b8f3437b89212fae0dfadf
1,2.55,space,1.009,0,232,232,232,1,,,613a43648c97902f85b31182,643773021e59ac618c7f5166,04-12-2023_23h19.03.519,PRaM,2021.2.3,MacIntel,59.95203837,61b8f3437b89212fae0dfadf
3,4.699,space,3.516,0,233,233,58,1,,,613a43648c97902f85b31182,643773021e59ac618c7f5166,04-12-2023_23h19.03.519,PRaM,2021.2.3,MacIntel,59.95203837,61b8f3437b89212fae0dfadf
4,7.2,space,5.612,0,234,234,307,1,,,613a43648c97902f85b31182,643773021e59ac618c7f5166,04-12-2023_23h19.03.519,PRaM,2021.2.3,MacIntel,59.95203837,61b8f3437b89212fae0dfadf
8,2.531,space,0.907,0,235,235,298,1,,,613a43648c97902f85b31182,643773021e59ac618c7f5166,04-12-2023_23h19.03.519,PRaM,2021.2.3,MacIntel,59.95203837,61b8f3437b89212fae0dfadf
8,1.542,space,0.958,0,236,236,351,1,,,613a43648c97902f85b31182,643773021e59ac618c7f5166,04-12-2023_23h19.03.519,PRaM,2021.2.3,MacIntel,59.95203837,61b8f3437b89212fae0dfadf
8,1.507,space,0.859,0,237,237,350,1,,,613a43648c97902f85b31182,643773021e59ac618c7f5166,04-12-2023_23h19.03.519,PRaM,2021.2.3,MacIntel,59.95203837,61b8f3437b89212fae0dfadf
7,2.227,space,0.641,0,238,238,240,1,,,613a43648c97902f85b31182,643773021e59ac618c7f5166,04-12-2023_23h19.03.519,PRaM,2021.2.3,MacIntel,59.95203837,61b8f3437b89212fae0dfadf
2,2.693,space,0.985,0,239,239,22,1,,,613a43648c97902f85b31182,643773021e59ac618c7f5166,04-12-2023_23h19.03.519,PRaM,2021.2.3,MacIntel,59.95203837,61b8f3437b89212fae0dfadf
3,3.547,space,1.89,0,240,240,45,1,,,613a43648c97902f85b31182,643773021e59ac618c7f5166,04-12-2023_23h19.03.519,PRaM,2021.2.3,MacIntel,59.95203837,61b8f3437b89212fae0dfadf
1,3.325,space,1.549,0,241,241,303,1,,,613a43648c97902f85b31182,643773021e59ac618c7f5166,04-12-2023_23h19.03.519,PRaM,2021.2.3,MacIntel,59.95203837,61b8f3437b89212fae0dfadf
8,2.611,space,1.06,0,242,242,83,1,,,613a43648c97902f85b31182,643773021e59ac618c7f5166,04-12-2023_23h19.03.519,PRaM,2021.2.3,MacIntel,59.95203837,61b8f3437b89212fae0dfadf
1,7.442,space,75.281,0,243,243,195,1,,,613a43648c97902f85b31182,643773021e59ac618c7f5166,04-12-2023_23h19.03.519,PRaM,2021.2.3,MacIntel,59.95203837,61b8f3437b89212fae0dfadf
8,2.299,space,0.645,0,244,244,159,1,,,613a43648c97902f85b31182,643773021e59ac618c7f5166,04-12-2023_23h19.03.519,PRaM,2021.2.3,MacIntel,59.95203837,61b8f3437b89212fae0dfadf
7,1.937,space,0.308,0,245,245,210,1,,,613a43648c97902f85b31182,643773021e59ac618c7f5166,04-12-2023_23h19.03.519,PRaM,2021.2.3,MacIntel,59.95203837,61b8f3437b89212fae0dfadf
8,2.127,space,1.004,0,246,246,168,1,,,613a43648c97902f85b31182,643773021e59ac618c7f5166,04-12-2023_23h19.03.519,PRaM,2021.2.3,MacIntel,59.95203837,61b8f3437b89212fae0dfadf
3,3.114,space,1.517,0,247,247,36,1,,,613a43648c97902f85b31182,643773021e59ac618c7f5166,04-12-2023_23h19.03.519,PRaM,2021.2.3,MacIntel,59.95203837,61b8f3437b89212fae0dfadf
8,2.596,space,0.928,0,248,248,269,1,,,613a43648c97902f85b31182,643773021e59ac618c7f5166,04-12-2023_23h19.03.519,PRaM,2021.2.3,MacIntel,59.95203837,61b8f3437b89212fae0dfadf
2,3.384,space,1.534,0,249,249,262,1,,,613a43648c97902f85b31182,643773021e59ac618c7f5166,04-12-2023_23h19.03.519,PRaM,2021.2.3,MacIntel,59.95203837,61b8f3437b89212fae0dfadf
1,2.019,space,0.402,0,250,250,190,1,,,613a43648c97902f85b31182,643773021e59ac618c7f5166,04-12-2023_23h19.03.519,PRaM,2021.2.3,MacIntel,59.95203837,61b8f3437b89212fae0dfadf
1,2.652,space,1.004,0,251,251,243,1,,,613a43648c97902f85b31182,643773021e59ac618c7f5166,04-12-2023_23h19.03.519,PRaM,2021.2.3,MacIntel,59.95203837,61b8f3437b89212fae0dfadf
5,2.655,space,1.003,0,252,252,236,1,,,613a43648c97902f85b31182,643773021e59ac618c7f5166,04-12-2023_23h19.03.519,PRaM,2021.2.3,MacIntel,59.95203837,61b8f3437b89212fae0dfadf
7,5.07,space,3.492,0,253,253,166,1,,,613a43648c97902f85b31182,643773021e59ac618c7f5166,04-12-2023_23h19.03.519,PRaM,2021.2.3,MacIntel,59.95203837,61b8f3437b89212fae0dfadf
2,2.632,space,1.189,0,254,254,212,1,,,613a43648c97902f85b31182,643773021e59ac618c7f5166,04-12-2023_23h19.03.519,PRaM,2021.2.3,MacIntel,59.95203837,61b8f3437b89212fae0dfadf
2,4.004,space,2.408,0,255,255,158,1,,,613a43648c97902f85b31182,643773021e59ac618c7f5166,04-12-2023_23h19.03.519,PRaM,2021.2.3,MacIntel,59.95203837,61b8f3437b89212fae0dfadf
1,3.094,space,2.444,0,256,256,189,1,,,613a43648c97902f85b31182,643773021e59ac618c7f5166,04-12-2023_23h19.03.519,PRaM,2021.2.3,MacIntel,59.95203837,61b8f3437b89212fae0dfadf
1,1.744,space,0.154,0,257,257,339,1,,,613a43648c97902f85b31182,643773021e59ac618c7f5166,04-12-2023_23h19.03.519,PRaM,2021.2.3,MacIntel,59.95203837,61b8f3437b89212fae0dfadf
8,3.717,space,2.109,0,258,258,209,1,,,613a43648c97902f85b31182,643773021e59ac618c7f5166,04-12-2023_23h19.03.519,PRaM,2021.2.3,MacIntel,59.95203837,61b8f3437b89212fae0dfadf
8,1.773,space,0.121,0,259,259,270,1,,,613a43648c97902f85b31182,643773021e59ac618c7f5166,04-12-2023_23h19.03.519,PRaM,2021.2.3,MacIntel,59.95203837,61b8f3437b89212fae0dfadf
7,3.981,space,2.352,0,260,260,223,1,,,613a43648c97902f85b31182,643773021e59ac618c7f5166,04-12-2023_23h19.03.519,PRaM,2021.2.3,MacIntel,59.95203837,61b8f3437b89212fae0dfadf
3,4.355,space,2.738,0,261,261,120,1,,,613a43648c97902f85b31182,643773021e59ac618c7f5166,04-12-2023_23h19.03.519,PRaM,2021.2.3,MacIntel,59.95203837,61b8f3437b89212fae0dfadf
1,3.617,space,2.015,0,262,262,183,1,,,613a43648c97902f85b31182,643773021e59ac618c7f5166,04-12-2023_23h19.03.519,PRaM,2021.2.3,MacIntel,59.95203837,61b8f3437b89212fae0dfadf
2,2.226,space,0.628,0,263,263,39,1,,,613a43648c97902f85b31182,643773021e59ac618c7f5166,04-12-2023_23h19.03.519,PRaM,2021.2.3,MacIntel,59.95203837,61b8f3437b89212fae0dfadf
2,4.757,space,3.724,0,264,264,0,1,,,613a43648c97902f85b31182,643773021e59ac618c7f5166,04-12-2023_23h19.03.519,PRaM,2021.2.3,MacIntel,59.95203837,61b8f3437b89212fae0dfadf
3,4.972,space,3.357,0,265,265,31,1,,,613a43648c97902f85b31182,643773021e59ac618c7f5166,04-12-2023_23h19.03.519,PRaM,2021.2.3,MacIntel,59.95203837,61b8f3437b89212fae0dfadf
8,2.735,space,1.091,0,266,266,139,1,,,613a43648c97902f85b31182,643773021e59ac618c7f5166,04-12-2023_23h19.03.519,PRaM,2021.2.3,MacIntel,59.95203837,61b8f3437b89212fae0dfadf
,,space,1.699,0,267,267,73,1,,,613a43648c97902f85b31182,643773021e59ac618c7f5166,04-12-2023_23h19.03.519,PRaM,2021.2.3,MacIntel,59.95203837,61b8f3437b89212fae0dfadf
5,3.645,space,2.008,0,268,268,267,1,,,613a43648c97902f85b31182,643773021e59ac618c7f5166,04-12-2023_23h19.03.519,PRaM,2021.2.3,MacIntel,59.95203837,61b8f3437b89212fae0dfadf
2,2.604,space,0.914,0,269,269,128,1,,,613a43648c97902f85b31182,643773021e59ac618c7f5166,04-12-2023_23h19.03.519,PRaM,2021.2.3,MacIntel,59.95203837,61b8f3437b89212fae0dfadf
7,4.336,space,2.723,0,270,270,81,1,,,613a43648c97902f85b31182,643773021e59ac618c7f5166,04-12-2023_23h19.03.519,PRaM,2021.2.3,MacIntel,59.95203837,61b8f3437b89212fae0dfadf
9,2.069,space,0.406,0,271,271,277,1,,,613a43648c97902f85b31182,643773021e59ac618c7f5166,04-12-2023_23h19.03.519,PRaM,2021.2.3,MacIntel,59.95203837,61b8f3437b89212fae0dfadf
9,1.707,space,0.04,0,272,272,375,1,,,613a43648c97902f85b31182,643773021e59ac618c7f5166,04-12-2023_23h19.03.519,PRaM,2021.2.3,MacIntel,59.95203837,61b8f3437b89212fae0dfadf
1,4.295,space,2.697,0,273,273,54,1,,,613a43648c97902f85b31182,643773021e59ac618c7f5166,04-12-2023_23h19.03.519,PRaM,2021.2.3,MacIntel,59.95203837,61b8f3437b89212fae0dfadf
8,5.061,space,3.403,0,274,274,112,1,,,613a43648c97902f85b31182,643773021e59ac618c7f5166,04-12-2023_23h19.03.519,PRaM,2021.2.3,MacIntel,59.95203837,61b8f3437b89212fae0dfadf
9,2.642,space,1.035,0,275,275,323,1,,,613a43648c97902f85b31182,643773021e59ac618c7f5166,04-12-2023_23h19.03.519,PRaM,2021.2.3,MacIntel,59.95203837,61b8f3437b89212fae0dfadf
8,2.273,space,0.548,0,276,276,99,1,,,613a43648c97902f85b31182,643773021e59ac618c7f5166,04-12-2023_23h19.03.519,PRaM,2021.2.3,MacIntel,59.95203837,61b8f3437b89212fae0dfadf
9,1.939,space,0.286,0,277,277,213,1,,,613a43648c97902f85b31182,643773021e59ac618c7f5166,04-12-2023_23h19.03.519,PRaM,2021.2.3,MacIntel,59.95203837,61b8f3437b89212fae0dfadf
8,4.381,space,2.742,0,278,278,4,1,,,613a43648c97902f85b31182,643773021e59ac618c7f5166,04-12-2023_23h19.03.519,PRaM,2021.2.3,MacIntel,59.95203837,61b8f3437b89212fae0dfadf
3,2.541,space,0.947,0,279,279,317,1,,,613a43648c97902f85b31182,643773021e59ac618c7f5166,04-12-2023_23h19.03.519,PRaM,2021.2.3,MacIntel,59.95203837,61b8f3437b89212fae0dfadf
2,3.242,space,1.575,0,280,280,44,1,,,613a43648c97902f85b31182,643773021e59ac618c7f5166,04-12-2023_23h19.03.519,PRaM,2021.2.3,MacIntel,59.95203837,61b8f3437b89212fae0dfadf
8,2.217,space,0.526,0,281,281,42,1,,,613a43648c97902f85b31182,643773021e59ac618c7f5166,04-12-2023_23h19.03.519,PRaM,2021.2.3,MacIntel,59.95203837,61b8f3437b89212fae0dfadf
1,2.461,space,0.859,0,282,282,24,1,,,613a43648c97902f85b31182,643773021e59ac618c7f5166,04-12-2023_23h19.03.519,PRaM,2021.2.3,MacIntel,59.95203837,61b8f3437b89212fae0dfadf
4,2.499,space,0.768,0,283,283,181,1,,,613a43648c97902f85b31182,643773021e59ac618c7f5166,04-12-2023_23h19.03.519,PRaM,2021.2.3,MacIntel,59.95203837,61b8f3437b89212fae0dfadf
1,4.466,space,2.876,0,284,284,11,1,,,613a43648c97902f85b31182,643773021e59ac618c7f5166,04-12-2023_23h19.03.519,PRaM,2021.2.3,MacIntel,59.95203837,61b8f3437b89212fae0dfadf
2,4.787,space,3.16,0,285,285,273,1,,,613a43648c97902f85b31182,643773021e59ac618c7f5166,04-12-2023_23h19.03.519,PRaM,2021.2.3,MacIntel,59.95203837,61b8f3437b89212fae0dfadf
8,3.268,space,1.618,0,286,286,29,1,,,613a43648c97902f85b31182,643773021e59ac618c7f5166,04-12-2023_23h19.03.519,PRaM,2021.2.3,MacIntel,59.95203837,61b8f3437b89212fae0dfadf
5,2.286,space,0.648,0,287,287,146,1,,,613a43648c97902f85b31182,643773021e59ac618c7f5166,04-12-2023_23h19.03.519,PRaM,2021.2.3,MacIntel,59.95203837,61b8f3437b89212fae0dfadf
3,3.065,space,1.444,0,288,288,113,1,,,613a43648c97902f85b31182,643773021e59ac618c7f5166,04-12-2023_23h19.03.519,PRaM,2021.2.3,MacIntel,59.95203837,61b8f3437b89212fae0dfadf
3,1.675,space,0.52,0,289,289,271,1,,,613a43648c97902f85b31182,643773021e59ac618c7f5166,04-12-2023_23h19.03.519,PRaM,2021.2.3,MacIntel,59.95203837,61b8f3437b89212fae0dfadf
1,4.763,space,3.19,0,290,290,97,1,,,613a43648c97902f85b31182,643773021e59ac618c7f5166,04-12-2023_23h19.03.519,PRaM,2021.2.3,MacIntel,59.95203837,61b8f3437b89212fae0dfadf
5,3.463,space,1.793,0,291,291,371,1,,,613a43648c97902f85b31182,643773021e59ac618c7f5166,04-12-2023_23h19.03.519,PRaM,2021.2.3,MacIntel,59.95203837,61b8f3437b89212fae0dfadf
1,3.195,space,2.372,0,292,292,138,1,,,613a43648c97902f85b31182,643773021e59ac618c7f5166,04-12-2023_23h19.03.519,PRaM,2021.2.3,MacIntel,59.95203837,61b8f3437b89212fae0dfadf
2,3.548,space,1.872,0,293,293,47,1,,,613a43648c97902f85b31182,643773021e59ac618c7f5166,04-12-2023_23h19.03.519,PRaM,2021.2.3,MacIntel,59.95203837,61b8f3437b89212fae0dfadf
1,1.748,space,0.137,0,294,294,143,1,,,613a43648c97902f85b31182,643773021e59ac618c7f5166,04-12-2023_23h19.03.519,PRaM,2021.2.3,MacIntel,59.95203837,61b8f3437b89212fae0dfadf
2,4.003,space,2.438,0,295,295,174,1,,,613a43648c97902f85b31182,643773021e59ac618c7f5166,04-12-2023_23h19.03.519,PRaM,2021.2.3,MacIntel,59.95203837,61b8f3437b89212fae0dfadf
2,1.512,space,0.297,0,296,296,55,1,,,613a43648c97902f85b31182,643773021e59ac618c7f5166,04-12-2023_23h19.03.519,PRaM,2021.2.3,MacIntel,59.95203837,61b8f3437b89212fae0dfadf
2,1.746,space,0.048,0,297,297,179,1,,,613a43648c97902f85b31182,643773021e59ac618c7f5166,04-12-2023_23h19.03.519,PRaM,2021.2.3,MacIntel,59.95203837,61b8f3437b89212fae0dfadf
2,1.92,space,0.488,0,298,298,72,1,,,613a43648c97902f85b31182,643773021e59ac618c7f5166,04-12-2023_23h19.03.519,PRaM,2021.2.3,MacIntel,59.95203837,61b8f3437b89212fae0dfadf
2,2.838,space,1.182,0,299,299,178,1,,,613a43648c97902f85b31182,643773021e59ac618c7f5166,04-12-2023_23h19.03.519,PRaM,2021.2.3,MacIntel,59.95203837,61b8f3437b89212fae0dfadf
2,1.101,space,0.306,0,300,300,57,1,,,613a43648c97902f85b31182,643773021e59ac618c7f5166,04-12-2023_23h19.03.519,PRaM,2021.2.3,MacIntel,59.95203837,61b8f3437b89212fae0dfadf
2,1.85,space,0.063,0,301,301,185,1,,,613a43648c97902f85b31182,643773021e59ac618c7f5166,04-12-2023_23h19.03.519,PRaM,2021.2.3,MacIntel,59.95203837,61b8f3437b89212fae0dfadf
5,2.416,space,0.765,0,302,302,272,1,,,613a43648c97902f85b31182,643773021e59ac618c7f5166,04-12-2023_23h19.03.519,PRaM,2021.2.3,MacIntel,59.95203837,61b8f3437b89212fae0dfadf
5,1.613,space,1.016,0,303,303,104,1,,,613a43648c97902f85b31182,643773021e59ac618c7f5166,04-12-2023_23h19.03.519,PRaM,2021.2.3,MacIntel,59.95203837,61b8f3437b89212fae0dfadf
1,3.544,space,2.069,0,304,304,290,1,,,613a43648c97902f85b31182,643773021e59ac618c7f5166,04-12-2023_23h19.03.519,PRaM,2021.2.3,MacIntel,59.95203837,61b8f3437b89212fae0dfadf
7,2.069,space,0.396,0,305,305,186,1,,,613a43648c97902f85b31182,643773021e59ac618c7f5166,04-12-2023_23h19.03.519,PRaM,2021.2.3,MacIntel,59.95203837,61b8f3437b89212fae0dfadf
7,1.288,space,0.608,0,306,306,207,1,,,613a43648c97902f85b31182,643773021e59ac618c7f5166,04-12-2023_23h19.03.519,PRaM,2021.2.3,MacIntel,59.95203837,61b8f3437b89212fae0dfadf
7,1.626,space,0.077,0,307,307,369,1,,,613a43648c97902f85b31182,643773021e59ac618c7f5166,04-12-2023_23h19.03.519,PRaM,2021.2.3,MacIntel,59.95203837,61b8f3437b89212fae0dfadf
2,2.308,space,0.603,0,308,308,169,1,,,613a43648c97902f85b31182,643773021e59ac618c7f5166,04-12-2023_23h19.03.519,PRaM,2021.2.3,MacIntel,59.95203837,61b8f3437b89212fae0dfadf
2,1.73,space,0.747,0,309,309,63,1,,,613a43648c97902f85b31182,643773021e59ac618c7f5166,04-12-2023_23h19.03.519,PRaM,2021.2.3,MacIntel,59.95203837,61b8f3437b89212fae0dfadf
2,1.475,space,0.75,0,310,310,250,1,,,613a43648c97902f85b31182,643773021e59ac618c7f5166,04-12-2023_23h19.03.519,PRaM,2021.2.3,MacIntel,59.95203837,61b8f3437b89212fae0dfadf
2,2.511,space,0.947,0,311,311,349,1,,,613a43648c97902f85b31182,643773021e59ac618c7f5166,04-12-2023_23h19.03.519,PRaM,2021.2.3,MacIntel,59.95203837,61b8f3437b89212fae0dfadf
8,2.791,space,1.526,0,312,312,19,1,,,613a43648c97902f85b31182,643773021e59ac618c7f5166,04-12-2023_23h19.03.519,PRaM,2021.2.3,MacIntel,59.95203837,61b8f3437b89212fae0dfadf
8,6.179,space,4.552,0,313,313,52,1,,,613a43648c97902f85b31182,643773021e59ac618c7f5166,04-12-2023_23h19.03.519,PRaM,2021.2.3,MacIntel,59.95203837,61b8f3437b89212fae0dfadf
8,2.833,space,0.944,0,314,314,346,1,,,613a43648c97902f85b31182,643773021e59ac618c7f5166,04-12-2023_23h19.03.519,PRaM,2021.2.3,MacIntel,59.95203837,61b8f3437b89212fae0dfadf
3,5.706,space,4.47,0,315,315,162,1,,,613a43648c97902f85b31182,643773021e59ac618c7f5166,04-12-2023_23h19.03.519,PRaM,2021.2.3,MacIntel,59.95203837,61b8f3437b89212fae0dfadf
8,2.344,space,0.73,0,316,316,38,1,,,613a43648c97902f85b31182,643773021e59ac618c7f5166,04-12-2023_23h19.03.519,PRaM,2021.2.3,MacIntel,59.95203837,61b8f3437b89212fae0dfadf
8,3.429,space,2.008,0,317,317,157,1,,,613a43648c97902f85b31182,643773021e59ac618c7f5166,04-12-2023_23h19.03.519,PRaM,2021.2.3,MacIntel,59.95203837,61b8f3437b89212fae0dfadf
8,2.348,space,0.681,0,318,318,354,1,,,613a43648c97902f85b31182,643773021e59ac618c7f5166,04-12-2023_23h19.03.519,PRaM,2021.2.3,MacIntel,59.95203837,61b8f3437b89212fae0dfadf
2,2.107,space,0.736,0,319,319,215,1,,,613a43648c97902f85b31182,643773021e59ac618c7f5166,04-12-2023_23h19.03.519,PRaM,2021.2.3,MacIntel,59.95203837,61b8f3437b89212fae0dfadf
8,4.253,space,2.87,0,320,320,281,1,,,613a43648c97902f85b31182,643773021e59ac618c7f5166,04-12-2023_23h19.03.519,PRaM,2021.2.3,MacIntel,59.95203837,61b8f3437b89212fae0dfadf
1,8.328,space,6.708,0,321,321,217,1,,,613a43648c97902f85b31182,643773021e59ac618c7f5166,04-12-2023_23h19.03.519,PRaM,2021.2.3,MacIntel,59.95203837,61b8f3437b89212fae0dfadf
,,space,17.856,0,322,322,111,1,,,613a43648c97902f85b31182,643773021e59ac618c7f5166,04-12-2023_23h19.03.519,PRaM,2021.2.3,MacIntel,59.95203837,61b8f3437b89212fae0dfadf
3,4.03,space,2.638,0,323,323,2,1,,,613a43648c97902f85b31182,643773021e59ac618c7f5166,04-12-2023_23h19.03.519,PRaM,2021.2.3,MacIntel,59.95203837,61b8f3437b89212fae0dfadf
1,2.447,space,0.684,0,324,324,234,1,,,613a43648c97902f85b31182,643773021e59ac618c7f5166,04-12-2023_23h19.03.519,PRaM,2021.2.3,MacIntel,59.95203837,61b8f3437b89212fae0dfadf
8,2.886,space,1.28,0,325,325,12,1,,,613a43648c97902f85b31182,643773021e59ac618c7f5166,04-12-2023_23h19.03.519,PRaM,2021.2.3,MacIntel,59.95203837,61b8f3437b89212fae0dfadf
1,5.774,space,4.336,0,326,326,251,1,,,613a43648c97902f85b31182,643773021e59ac618c7f5166,04-12-2023_23h19.03.519,PRaM,2021.2.3,MacIntel,59.95203837,61b8f3437b89212fae0dfadf
1,2.906,space,1.441,0,327,327,359,1,,,613a43648c97902f85b31182,643773021e59ac618c7f5166,04-12-2023_23h19.03.519,PRaM,2021.2.3,MacIntel,59.95203837,61b8f3437b89212fae0dfadf
6,7.722,space,7.584,0,328,328,237,1,,,613a43648c97902f85b31182,643773021e59ac618c7f5166,04-12-2023_23h19.03.519,PRaM,2021.2.3,MacIntel,59.95203837,61b8f3437b89212fae0dfadf
9,2.909,space,1.279,0,329,329,3,1,,,613a43648c97902f85b31182,643773021e59ac618c7f5166,04-12-2023_23h19.03.519,PRaM,2021.2.3,MacIntel,59.95203837,61b8f3437b89212fae0dfadf
1,6.314,space,4.77,0,330,330,142,1,,,613a43648c97902f85b31182,643773021e59ac618c7f5166,04-12-2023_23h19.03.519,PRaM,2021.2.3,MacIntel,59.95203837,61b8f3437b89212fae0dfadf
1,4.582,space,3.067,0,331,331,299,1,,,613a43648c97902f85b31182,643773021e59ac618c7f5166,04-12-2023_23h19.03.519,PRaM,2021.2.3,MacIntel,59.95203837,61b8f3437b89212fae0dfadf
3,6.053,space,4.475,0,332,332,318,1,,,613a43648c97902f85b31182,643773021e59ac618c7f5166,04-12-2023_23h19.03.519,PRaM,2021.2.3,MacIntel,59.95203837,61b8f3437b89212fae0dfadf
9,2.215,space,0.594,0,333,333,211,1,,,613a43648c97902f85b31182,643773021e59ac618c7f5166,04-12-2023_23h19.03.519,PRaM,2021.2.3,MacIntel,59.95203837,61b8f3437b89212fae0dfadf
1,5.776,space,4.635,0,334,334,160,1,,,613a43648c97902f85b31182,643773021e59ac618c7f5166,04-12-2023_23h19.03.519,PRaM,2021.2.3,MacIntel,59.95203837,61b8f3437b89212fae0dfadf
4,4.845,space,3.977,0,335,335,124,1,,,613a43648c97902f85b31182,643773021e59ac618c7f5166,04-12-2023_23h19.03.519,PRaM,2021.2.3,MacIntel,59.95203837,61b8f3437b89212fae0dfadf
4,1.704,space,0.116,0,336,336,241,1,,,613a43648c97902f85b31182,643773021e59ac618c7f5166,04-12-2023_23h19.03.519,PRaM,2021.2.3,MacIntel,59.95203837,61b8f3437b89212fae0dfadf
8,4.047,space,2.606,0,337,337,226,1,,,613a43648c97902f85b31182,643773021e59ac618c7f5166,04-12-2023_23h19.03.519,PRaM,2021.2.3,MacIntel,59.95203837,61b8f3437b89212fae0dfadf
2,2.772,space,1.128,0,338,338,18,1,,,613a43648c97902f85b31182,643773021e59ac618c7f5166,04-12-2023_23h19.03.519,PRaM,2021.2.3,MacIntel,59.95203837,61b8f3437b89212fae0dfadf
2,2.526,space,0.859,0,339,339,367,1,,,613a43648c97902f85b31182,643773021e59ac618c7f5166,04-12-2023_23h19.03.519,PRaM,2021.2.3,MacIntel,59.95203837,61b8f3437b89212fae0dfadf
2,2.3,space,1.091,0,340,340,75,1,,,613a43648c97902f85b31182,643773021e59ac618c7f5166,04-12-2023_23h19.03.519,PRaM,2021.2.3,MacIntel,59.95203837,61b8f3437b89212fae0dfadf
8,3.962,space,2.337,0,341,341,59,1,,,613a43648c97902f85b31182,643773021e59ac618c7f5166,04-12-2023_23h19.03.519,PRaM,2021.2.3,MacIntel,59.95203837,61b8f3437b89212fae0dfadf
8,2.162,space,0.739,0,342,342,93,1,,,613a43648c97902f85b31182,643773021e59ac618c7f5166,04-12-2023_23h19.03.519,PRaM,2021.2.3,MacIntel,59.95203837,61b8f3437b89212fae0dfadf
8,1.462,space,1.124,0,343,343,325,1,,,613a43648c97902f85b31182,643773021e59ac618c7f5166,04-12-2023_23h19.03.519,PRaM,2021.2.3,MacIntel,59.95203837,61b8f3437b89212fae0dfadf
1,2.647,space,0.955,0,344,344,129,1,,,613a43648c97902f85b31182,643773021e59ac618c7f5166,04-12-2023_23h19.03.519,PRaM,2021.2.3,MacIntel,59.95203837,61b8f3437b89212fae0dfadf
1,2.28,space,0.603,0,345,345,330,1,,,613a43648c97902f85b31182,643773021e59ac618c7f5166,04-12-2023_23h19.03.519,PRaM,2021.2.3,MacIntel,59.95203837,61b8f3437b89212fae0dfadf
7,6.36,space,4.766,0,346,346,37,1,,,613a43648c97902f85b31182,643773021e59ac618c7f5166,04-12-2023_23h19.03.519,PRaM,2021.2.3,MacIntel,59.95203837,61b8f3437b89212fae0dfadf
9,3.013,space,1.296,0,347,347,150,1,,,613a43648c97902f85b31182,643773021e59ac618c7f5166,04-12-2023_23h19.03.519,PRaM,2021.2.3,MacIntel,59.95203837,61b8f3437b89212fae0dfadf
9,1.658,space,0.341,0,348,348,115,1,,,613a43648c97902f85b31182,643773021e59ac618c7f5166,04-12-2023_23h19.03.519,PRaM,2021.2.3,MacIntel,59.95203837,61b8f3437b89212fae0dfadf
7,2.125,space,0.51,0,349,349,167,1,,,613a43648c97902f85b31182,643773021e59ac618c7f5166,04-12-2023_23h19.03.519,PRaM,2021.2.3,MacIntel,59.95203837,61b8f3437b89212fae0dfadf
1,2.558,space,0.919,0,350,350,245,1,,,613a43648c97902f85b31182,643773021e59ac618c7f5166,04-12-2023_23h19.03.519,PRaM,2021.2.3,MacIntel,59.95203837,61b8f3437b89212fae0dfadf
9,4.268,space,3.057,0,351,351,21,1,,,613a43648c97902f85b31182,643773021e59ac618c7f5166,04-12-2023_23h19.03.519,PRaM,2021.2.3,MacIntel,59.95203837,61b8f3437b89212fae0dfadf
6,2.732,space,1.068,0,352,352,61,1,,,613a43648c97902f85b31182,643773021e59ac618c7f5166,04-12-2023_23h19.03.519,PRaM,2021.2.3,MacIntel,59.95203837,61b8f3437b89212fae0dfadf
8,3.589,space,1.773,0,353,353,110,1,,,613a43648c97902f85b31182,643773021e59ac618c7f5166,04-12-2023_23h19.03.519,PRaM,2021.2.3,MacIntel,59.95203837,61b8f3437b89212fae0dfadf
1,2.589,space,1.116,0,354,354,292,1,,,613a43648c97902f85b31182,643773021e59ac618c7f5166,04-12-2023_23h19.03.519,PRaM,2021.2.3,MacIntel,59.95203837,61b8f3437b89212fae0dfadf
6,7.725,space,6.539,0,355,355,310,1,,,613a43648c97902f85b31182,643773021e59ac618c7f5166,04-12-2023_23h19.03.519,PRaM,2021.2.3,MacIntel,59.95203837,61b8f3437b89212fae0dfadf
9,7.617,space,6.06,0,356,356,175,1,,,613a43648c97902f85b31182,643773021e59ac618c7f5166,04-12-2023_23h19.03.519,PRaM,2021.2.3,MacIntel,59.95203837,61b8f3437b89212fae0dfadf
1,6.962,space,5.382,0,357,357,204,1,,,613a43648c97902f85b31182,643773021e59ac618c7f5166,04-12-2023_23h19.03.519,PRaM,2021.2.3,MacIntel,59.95203837,61b8f3437b89212fae0dfadf
6,30.991,space,29.521,0,358,358,344,1,,,613a43648c97902f85b31182,643773021e59ac618c7f5166,04-12-2023_23h19.03.519,PRaM,2021.2.3,MacIntel,59.95203837,61b8f3437b89212fae0dfadf
8,2.243,space,0.659,0,359,359,62,1,,,613a43648c97902f85b31182,643773021e59ac618c7f5166,04-12-2023_23h19.03.519,PRaM,2021.2.3,MacIntel,59.95203837,61b8f3437b89212fae0dfadf
9,3.622,space,2.575,0,360,360,208,1,,,613a43648c97902f85b31182,643773021e59ac618c7f5166,04-12-2023_23h19.03.519,PRaM,2021.2.3,MacIntel,59.95203837,61b8f3437b89212fae0dfadf
8,2.437,space,0.895,0,361,361,171,1,,,613a43648c97902f85b31182,643773021e59ac618c7f5166,04-12-2023_23h19.03.519,PRaM,2021.2.3,MacIntel,59.95203837,61b8f3437b89212fae0dfadf
1,2.804,space,1.268,0,362,362,203,1,,,613a43648c97902f85b31182,643773021e59ac618c7f5166,04-12-2023_23h19.03.519,PRaM,2021.2.3,MacIntel,59.95203837,61b8f3437b89212fae0dfadf
1,2.385,space,0.738,0,363,363,8,1,,,613a43648c97902f85b31182,643773021e59ac618c7f5166,04-12-2023_23h19.03.519,PRaM,2021.2.3,MacIntel,59.95203837,61b8f3437b89212fae0dfadf
7,2.977,space,2.06,0,364,364,199,1,,,613a43648c97902f85b31182,643773021e59ac618c7f5166,04-12-2023_23h19.03.519,PRaM,2021.2.3,MacIntel,59.95203837,61b8f3437b89212fae0dfadf
6,2.997,space,1.305,0,365,365,216,1,,,613a43648c97902f85b31182,643773021e59ac618c7f5166,04-12-2023_23h19.03.519,PRaM,2021.2.3,MacIntel,59.95203837,61b8f3437b89212fae0dfadf
1,3.076,space,1.445,0,366,366,7,1,,,613a43648c97902f85b31182,643773021e59ac618c7f5166,04-12-2023_23h19.03.519,PRaM,2021.2.3,MacIntel,59.95203837,61b8f3437b89212fae0dfadf
3,5.12,space,3.362,0,367,367,227,1,,,613a43648c97902f85b31182,643773021e59ac618c7f5166,04-12-2023_23h19.03.519,PRaM,2021.2.3,MacIntel,59.95203837,61b8f3437b89212fae0dfadf
8,2.147,space,0.492,0,368,368,296,1,,,613a43648c97902f85b31182,643773021e59ac618c7f5166,04-12-2023_23h19.03.519,PRaM,2021.2.3,MacIntel,59.95203837,61b8f3437b89212fae0dfadf
2,3.792,space,2.201,0,369,369,309,1,,,613a43648c97902f85b31182,643773021e59ac618c7f5166,04-12-2023_23h19.03.519,PRaM,2021.2.3,MacIntel,59.95203837,61b8f3437b89212fae0dfadf
8,2.956,space,1.641,0,370,370,255,1,,,613a43648c97902f85b31182,643773021e59ac618c7f5166,04-12-2023_23h19.03.519,PRaM,2021.2.3,MacIntel,59.95203837,61b8f3437b89212fae0dfadf
8,3.819,space,5.669,0,371,371,173,1,,,613a43648c97902f85b31182,643773021e59ac618c7f5166,04-12-2023_23h19.03.519,PRaM,2021.2.3,MacIntel,59.95203837,61b8f3437b89212fae0dfadf
3,5.483,space,3.931,0,372,372,46,1,,,613a43648c97902f85b31182,643773021e59ac618c7f5166,04-12-2023_23h19.03.519,PRaM,2021.2.3,MacIntel,59.95203837,61b8f3437b89212fae0dfadf
2,3.094,space,3.862,0,373,373,95,1,,,613a43648c97902f85b31182,643773021e59ac618c7f5166,04-12-2023_23h19.03.519,PRaM,2021.2.3,MacIntel,59.95203837,61b8f3437b89212fae0dfadf
5,2.978,space,1.443,0,374,374,324,1,,,613a43648c97902f85b31182,643773021e59ac618c7f5166,04-12-2023_23h19.03.519,PRaM,2021.2.3,MacIntel,59.95203837,61b8f3437b89212fae0dfadf
8,2.704,space,1.059,0,375,375,154,1,,,613a43648c97902f85b31182,643773021e59ac618c7f5166,04-12-2023_23h19.03.519,PRaM,2021.2.3,MacIntel,59.95203837,61b8f3437b89212fae0dfadf
2,2.93,space,1.308,0,376,376,172,1,,,613a43648c97902f85b31182,643773021e59ac618c7f5166,04-12-2023_23h19.03.519,PRaM,2021.2.3,MacIntel,59.95203837,61b8f3437b89212fae0dfadf
2,5,space,3.342,0,377,377,170,1,,,613a43648c97902f85b31182,643773021e59ac618c7f5166,04-12-2023_23h19.03.519,PRaM,2021.2.3,MacIntel,59.95203837,61b8f3437b89212fae0dfadf
