Rating.response,Rating.rt,EndTrial.keys,EndTrial.rt,trials.thisRepN,trials.thisTrialN,trials.thisN,trials.thisIndex,trials.ran,Pos1,Pos2,participant,session,date,expName,psychopyVersion,OS,frameRate,study_id
1,10.8747,space,10.7442,0,0,0,113,1,,,6145135f01ab17bf41e67820,643772c612d6487bae548b12,2023-04-13_04h21.09.025,PRaM,2021.2.3,Win32,59.98440405,61b8f3437b89212fae0dfade
3,3.5546,space,2.385,0,1,1,200,1,,,6145135f01ab17bf41e67820,643772c612d6487bae548b12,2023-04-13_04h21.09.025,PRaM,2021.2.3,Win32,59.98440405,61b8f3437b89212fae0dfade
2,3.5054,space,2.1506,0,2,2,230,1,,,6145135f01ab17bf41e67820,643772c612d6487bae548b12,2023-04-13_04h21.09.025,PRaM,2021.2.3,Win32,59.98440405,61b8f3437b89212fae0dfade
3,3.3767,space,1.8528,0,3,3,84,1,,,6145135f01ab17bf41e67820,643772c612d6487bae548b12,2023-04-13_04h21.09.025,PRaM,2021.2.3,Win32,59.98440405,61b8f3437b89212fae0dfade
3,1.9606,space,0.4113,0,4,4,141,1,,,6145135f01ab17bf41e67820,643772c612d6487bae548b12,2023-04-13_04h21.09.025,PRaM,2021.2.3,Win32,59.98440405,61b8f3437b89212fae0dfade
2,2.4552,space,0.984,0,5,5,271,1,,,6145135f01ab17bf41e67820,643772c612d6487bae548b12,2023-04-13_04h21.09.025,PRaM,2021.2.3,Win32,59.98440405,61b8f3437b89212fae0dfade
1,3.2782,space,1.633,0,6,6,185,1,,,6145135f01ab17bf41e67820,643772c612d6487bae548b12,2023-04-13_04h21.09.025,PRaM,2021.2.3,Win32,59.98440405,61b8f3437b89212fae0dfade
2,2.3389,space,0.6925,0,7,7,149,1,,,6145135f01ab17bf41e67820,643772c612d6487bae548b12,2023-04-13_04h21.09.025,PRaM,2021.2.3,Win32,59.98440405,61b8f3437b89212fae0dfade
1,4.2813,space,3.6025,0,8,8,129,1,,,6145135f01ab17bf41e67820,643772c612d6487bae548b12,2023-04-13_04h21.09.025,PRaM,2021.2.3,Win32,59.98440405,61b8f3437b89212fae0dfade
1,1.4399,space,2.7582,0,9,9,157,1,,,6145135f01ab17bf41e67820,643772c612d6487bae548b12,2023-04-13_04h21.09.025,PRaM,2021.2.3,Win32,59.98440405,61b8f3437b89212fae0dfade
2,4.0097,space,2.7078,0,10,10,100,1,,,6145135f01ab17bf41e67820,643772c612d6487bae548b12,2023-04-13_04h21.09.025,PRaM,2021.2.3,Win32,59.98440405,61b8f3437b89212fae0dfade
2,2.5077,space,1.0882,0,11,11,140,1,,,6145135f01ab17bf41e67820,643772c612d6487bae548b12,2023-04-13_04h21.09.025,PRaM,2021.2.3,Win32,59.98440405,61b8f3437b89212fae0dfade
2,2.7458,space,2.1347,0,12,12,174,1,,,6145135f01ab17bf41e67820,643772c612d6487bae548b12,2023-04-13_04h21.09.025,PRaM,2021.2.3,Win32,59.98440405,61b8f3437b89212fae0dfade
3,2.4215,space,0.8157,0,13,13,254,1,,,6145135f01ab17bf41e67820,643772c612d6487bae548b12,2023-04-13_04h21.09.025,PRaM,2021.2.3,Win32,59.98440405,61b8f3437b89212fae0dfade
2,2.022,space,0.3675,0,14,14,57,1,,,6145135f01ab17bf41e67820,643772c612d6487bae548b12,2023-04-13_04h21.09.025,PRaM,2021.2.3,Win32,59.98440405,61b8f3437b89212fae0dfade
2,4.0734,space,2.4755,0,15,15,375,1,,,6145135f01ab17bf41e67820,643772c612d6487bae548b12,2023-04-13_04h21.09.025,PRaM,2021.2.3,Win32,59.98440405,61b8f3437b89212fae0dfade
1,1.7559,space,0.1344,0,16,16,316,1,,,6145135f01ab17bf41e67820,643772c612d6487bae548b12,2023-04-13_04h21.09.025,PRaM,2021.2.3,Win32,59.98440405,61b8f3437b89212fae0dfade
1,1.7966,space,0.2509,0,17,17,163,1,,,6145135f01ab17bf41e67820,643772c612d6487bae548b12,2023-04-13_04h21.09.025,PRaM,2021.2.3,Win32,59.98440405,61b8f3437b89212fae0dfade
1,2.137,space,0.4844,0,18,18,169,1,,,6145135f01ab17bf41e67820,643772c612d6487bae548b12,2023-04-13_04h21.09.025,PRaM,2021.2.3,Win32,59.98440405,61b8f3437b89212fae0dfade
1,1.3746,space,0.9973,0,19,19,265,1,,,6145135f01ab17bf41e67820,643772c612d6487bae548b12,2023-04-13_04h21.09.025,PRaM,2021.2.3,Win32,59.98440405,61b8f3437b89212fae0dfade
1,1.2163,space,0.111,0,20,20,191,1,,,6145135f01ab17bf41e67820,643772c612d6487bae548b12,2023-04-13_04h21.09.025,PRaM,2021.2.3,Win32,59.98440405,61b8f3437b89212fae0dfade
1,2.729,space,1.704,0,21,21,361,1,,,6145135f01ab17bf41e67820,643772c612d6487bae548b12,2023-04-13_04h21.09.025,PRaM,2021.2.3,Win32,59.98440405,61b8f3437b89212fae0dfade
2,2.8497,space,1.4178,0,22,22,186,1,,,6145135f01ab17bf41e67820,643772c612d6487bae548b12,2023-04-13_04h21.09.025,PRaM,2021.2.3,Win32,59.98440405,61b8f3437b89212fae0dfade
1,4.7295,space,3.3758,0,23,23,47,1,,,6145135f01ab17bf41e67820,643772c612d6487bae548b12,2023-04-13_04h21.09.025,PRaM,2021.2.3,Win32,59.98440405,61b8f3437b89212fae0dfade
1,3.2462,space,2.0006,0,24,24,55,1,,,6145135f01ab17bf41e67820,643772c612d6487bae548b12,2023-04-13_04h21.09.025,PRaM,2021.2.3,Win32,59.98440405,61b8f3437b89212fae0dfade
1,4.675,space,3.1346,0,25,25,237,1,,,6145135f01ab17bf41e67820,643772c612d6487bae548b12,2023-04-13_04h21.09.025,PRaM,2021.2.3,Win32,59.98440405,61b8f3437b89212fae0dfade
1,2.089,space,0.5244,0,26,26,248,1,,,6145135f01ab17bf41e67820,643772c612d6487bae548b12,2023-04-13_04h21.09.025,PRaM,2021.2.3,Win32,59.98440405,61b8f3437b89212fae0dfade
1,1.5496,space,1.6849,0,27,27,29,1,,,6145135f01ab17bf41e67820,643772c612d6487bae548b12,2023-04-13_04h21.09.025,PRaM,2021.2.3,Win32,59.98440405,61b8f3437b89212fae0dfade
1,1.7557,space,0.3193,0,28,28,26,1,,,6145135f01ab17bf41e67820,643772c612d6487bae548b12,2023-04-13_04h21.09.025,PRaM,2021.2.3,Win32,59.98440405,61b8f3437b89212fae0dfade
1,1.2218,space,1.2791,0,29,29,161,1,,,6145135f01ab17bf41e67820,643772c612d6487bae548b12,2023-04-13_04h21.09.025,PRaM,2021.2.3,Win32,59.98440405,61b8f3437b89212fae0dfade
1,1.8637,space,0.6693,0,30,30,95,1,,,6145135f01ab17bf41e67820,643772c612d6487bae548b12,2023-04-13_04h21.09.025,PRaM,2021.2.3,Win32,59.98440405,61b8f3437b89212fae0dfade
1,2.3215,space,0.9847,0,31,31,119,1,,,6145135f01ab17bf41e67820,643772c612d6487bae548b12,2023-04-13_04h21.09.025,PRaM,2021.2.3,Win32,59.98440405,61b8f3437b89212fae0dfade
1,2.3304,space,1.0076,0,32,32,46,1,,,6145135f01ab17bf41e67820,643772c612d6487bae548b12,2023-04-13_04h21.09.025,PRaM,2021.2.3,Win32,59.98440405,61b8f3437b89212fae0dfade
3,3.7479,space,2.3265,0,33,33,282,1,,,6145135f01ab17bf41e67820,643772c612d6487bae548b12,2023-04-13_04h21.09.025,PRaM,2021.2.3,Win32,59.98440405,61b8f3437b89212fae0dfade
2,1.6978,space,0.1432,0,34,34,332,1,,,6145135f01ab17bf41e67820,643772c612d6487bae548b12,2023-04-13_04h21.09.025,PRaM,2021.2.3,Win32,59.98440405,61b8f3437b89212fae0dfade
2,1.2391,space,0.2677,0,35,35,275,1,,,6145135f01ab17bf41e67820,643772c612d6487bae548b12,2023-04-13_04h21.09.025,PRaM,2021.2.3,Win32,59.98440405,61b8f3437b89212fae0dfade
2,1.3128,space,0.4693,0,36,36,227,1,,,6145135f01ab17bf41e67820,643772c612d6487bae548b12,2023-04-13_04h21.09.025,PRaM,2021.2.3,Win32,59.98440405,61b8f3437b89212fae0dfade
1,2.8583,space,1.5341,0,37,37,228,1,,,6145135f01ab17bf41e67820,643772c612d6487bae548b12,2023-04-13_04h21.09.025,PRaM,2021.2.3,Win32,59.98440405,61b8f3437b89212fae0dfade
6,5.3727,space,4.1535,0,38,38,53,1,,,6145135f01ab17bf41e67820,643772c612d6487bae548b12,2023-04-13_04h21.09.025,PRaM,2021.2.3,Win32,59.98440405,61b8f3437b89212fae0dfade
1,3.7385,space,2.2428,0,39,39,263,1,,,6145135f01ab17bf41e67820,643772c612d6487bae548b12,2023-04-13_04h21.09.025,PRaM,2021.2.3,Win32,59.98440405,61b8f3437b89212fae0dfade
4,3.0957,space,1.5936,0,40,40,134,1,,,6145135f01ab17bf41e67820,643772c612d6487bae548b12,2023-04-13_04h21.09.025,PRaM,2021.2.3,Win32,59.98440405,61b8f3437b89212fae0dfade
7,2.1889,space,1.3181,0,41,41,279,1,,,6145135f01ab17bf41e67820,643772c612d6487bae548b12,2023-04-13_04h21.09.025,PRaM,2021.2.3,Win32,59.98440405,61b8f3437b89212fae0dfade
2,2.4983,space,0.9158,0,42,42,151,1,,,6145135f01ab17bf41e67820,643772c612d6487bae548b12,2023-04-13_04h21.09.025,PRaM,2021.2.3,Win32,59.98440405,61b8f3437b89212fae0dfade
1,2.0223,space,0.5673,0,43,43,106,1,,,6145135f01ab17bf41e67820,643772c612d6487bae548b12,2023-04-13_04h21.09.025,PRaM,2021.2.3,Win32,59.98440405,61b8f3437b89212fae0dfade
2,2.9591,space,1.3502,0,44,44,255,1,,,6145135f01ab17bf41e67820,643772c612d6487bae548b12,2023-04-13_04h21.09.025,PRaM,2021.2.3,Win32,59.98440405,61b8f3437b89212fae0dfade
2,2.9383,space,1.3668,0,45,45,317,1,,,6145135f01ab17bf41e67820,643772c612d6487bae548b12,2023-04-13_04h21.09.025,PRaM,2021.2.3,Win32,59.98440405,61b8f3437b89212fae0dfade
2,1.8242,space,0.4427,0,46,46,126,1,,,6145135f01ab17bf41e67820,643772c612d6487bae548b12,2023-04-13_04h21.09.025,PRaM,2021.2.3,Win32,59.98440405,61b8f3437b89212fae0dfade
7,2.1269,space,1.0097,0,47,47,323,1,,,6145135f01ab17bf41e67820,643772c612d6487bae548b12,2023-04-13_04h21.09.025,PRaM,2021.2.3,Win32,59.98440405,61b8f3437b89212fae0dfade
6,3.5309,space,2.0874,0,48,48,20,1,,,6145135f01ab17bf41e67820,643772c612d6487bae548b12,2023-04-13_04h21.09.025,PRaM,2021.2.3,Win32,59.98440405,61b8f3437b89212fae0dfade
2,2.2397,space,0.6829,0,49,49,11,1,,,6145135f01ab17bf41e67820,643772c612d6487bae548b12,2023-04-13_04h21.09.025,PRaM,2021.2.3,Win32,59.98440405,61b8f3437b89212fae0dfade
1,3.6307,space,1.9879,0,50,50,272,1,,,6145135f01ab17bf41e67820,643772c612d6487bae548b12,2023-04-13_04h21.09.025,PRaM,2021.2.3,Win32,59.98440405,61b8f3437b89212fae0dfade
1,1.5085,space,0.0183,0,51,51,89,1,,,6145135f01ab17bf41e67820,643772c612d6487bae548b12,2023-04-13_04h21.09.025,PRaM,2021.2.3,Win32,59.98440405,61b8f3437b89212fae0dfade
1,1.3131,space,1.0844,0,52,52,212,1,,,6145135f01ab17bf41e67820,643772c612d6487bae548b12,2023-04-13_04h21.09.025,PRaM,2021.2.3,Win32,59.98440405,61b8f3437b89212fae0dfade
3,2.4589,space,1.007,0,53,53,154,1,,,6145135f01ab17bf41e67820,643772c612d6487bae548b12,2023-04-13_04h21.09.025,PRaM,2021.2.3,Win32,59.98440405,61b8f3437b89212fae0dfade
1,1.8385,space,0.3236,0,54,54,286,1,,,6145135f01ab17bf41e67820,643772c612d6487bae548b12,2023-04-13_04h21.09.025,PRaM,2021.2.3,Win32,59.98440405,61b8f3437b89212fae0dfade
3,2.3662,space,0.8337,0,55,55,64,1,,,6145135f01ab17bf41e67820,643772c612d6487bae548b12,2023-04-13_04h21.09.025,PRaM,2021.2.3,Win32,59.98440405,61b8f3437b89212fae0dfade
2,2.4304,space,0.85,0,56,56,156,1,,,6145135f01ab17bf41e67820,643772c612d6487bae548b12,2023-04-13_04h21.09.025,PRaM,2021.2.3,Win32,59.98440405,61b8f3437b89212fae0dfade
2,4.9299,space,3.5026,0,57,57,351,1,,,6145135f01ab17bf41e67820,643772c612d6487bae548b12,2023-04-13_04h21.09.025,PRaM,2021.2.3,Win32,59.98440405,61b8f3437b89212fae0dfade
4,1.8431,space,0.3023,0,58,58,16,1,,,6145135f01ab17bf41e67820,643772c612d6487bae548b12,2023-04-13_04h21.09.025,PRaM,2021.2.3,Win32,59.98440405,61b8f3437b89212fae0dfade
2,3.9812,space,3.8101,0,59,59,307,1,,,6145135f01ab17bf41e67820,643772c612d6487bae548b12,2023-04-13_04h21.09.025,PRaM,2021.2.3,Win32,59.98440405,61b8f3437b89212fae0dfade
2,2.0397,space,0.4592,0,60,60,336,1,,,6145135f01ab17bf41e67820,643772c612d6487bae548b12,2023-04-13_04h21.09.025,PRaM,2021.2.3,Win32,59.98440405,61b8f3437b89212fae0dfade
2,1.6079,space,0.2238,0,61,61,244,1,,,6145135f01ab17bf41e67820,643772c612d6487bae548b12,2023-04-13_04h21.09.025,PRaM,2021.2.3,Win32,59.98440405,61b8f3437b89212fae0dfade
1,2.789,space,1.3611,0,62,62,344,1,,,6145135f01ab17bf41e67820,643772c612d6487bae548b12,2023-04-13_04h21.09.025,PRaM,2021.2.3,Win32,59.98440405,61b8f3437b89212fae0dfade
1,1.8785,space,0.7596,0,63,63,147,1,,,6145135f01ab17bf41e67820,643772c612d6487bae548b12,2023-04-13_04h21.09.025,PRaM,2021.2.3,Win32,59.98440405,61b8f3437b89212fae0dfade
1,1.4068,space,0.1031,0,64,64,67,1,,,6145135f01ab17bf41e67820,643772c612d6487bae548b12,2023-04-13_04h21.09.025,PRaM,2021.2.3,Win32,59.98440405,61b8f3437b89212fae0dfade
1,1.6086,space,0.2891,0,65,65,25,1,,,6145135f01ab17bf41e67820,643772c612d6487bae548b12,2023-04-13_04h21.09.025,PRaM,2021.2.3,Win32,59.98440405,61b8f3437b89212fae0dfade
1,7.6913,space,7.1038,0,66,66,35,1,,,6145135f01ab17bf41e67820,643772c612d6487bae548b12,2023-04-13_04h21.09.025,PRaM,2021.2.3,Win32,59.98440405,61b8f3437b89212fae0dfade
1,1.4567,space,2.5748,0,67,67,241,1,,,6145135f01ab17bf41e67820,643772c612d6487bae548b12,2023-04-13_04h21.09.025,PRaM,2021.2.3,Win32,59.98440405,61b8f3437b89212fae0dfade
1,1.8976,space,0.487,0,68,68,330,1,,,6145135f01ab17bf41e67820,643772c612d6487bae548b12,2023-04-13_04h21.09.025,PRaM,2021.2.3,Win32,59.98440405,61b8f3437b89212fae0dfade
1,2.7834,space,1.2269,0,69,69,51,1,,,6145135f01ab17bf41e67820,643772c612d6487bae548b12,2023-04-13_04h21.09.025,PRaM,2021.2.3,Win32,59.98440405,61b8f3437b89212fae0dfade
1,1.4744,space,1.2122,0,70,70,15,1,,,6145135f01ab17bf41e67820,643772c612d6487bae548b12,2023-04-13_04h21.09.025,PRaM,2021.2.3,Win32,59.98440405,61b8f3437b89212fae0dfade
1,1.3381,space,0.6416,0,71,71,27,1,,,6145135f01ab17bf41e67820,643772c612d6487bae548b12,2023-04-13_04h21.09.025,PRaM,2021.2.3,Win32,59.98440405,61b8f3437b89212fae0dfade
4,2.2636,space,0.928,0,72,72,136,1,,,6145135f01ab17bf41e67820,643772c612d6487bae548b12,2023-04-13_04h21.09.025,PRaM,2021.2.3,Win32,59.98440405,61b8f3437b89212fae0dfade
3,2.0888,space,1.1832,0,73,73,59,1,,,6145135f01ab17bf41e67820,643772c612d6487bae548b12,2023-04-13_04h21.09.025,PRaM,2021.2.3,Win32,59.98440405,61b8f3437b89212fae0dfade
1,3.1095,space,1.5367,0,74,74,205,1,,,6145135f01ab17bf41e67820,643772c612d6487bae548b12,2023-04-13_04h21.09.025,PRaM,2021.2.3,Win32,59.98440405,61b8f3437b89212fae0dfade
3,3.6447,space,2.309,0,75,75,335,1,,,6145135f01ab17bf41e67820,643772c612d6487bae548b12,2023-04-13_04h21.09.025,PRaM,2021.2.3,Win32,59.98440405,61b8f3437b89212fae0dfade
2,2.5238,space,1.0221,0,76,76,13,1,,,6145135f01ab17bf41e67820,643772c612d6487bae548b12,2023-04-13_04h21.09.025,PRaM,2021.2.3,Win32,59.98440405,61b8f3437b89212fae0dfade
5,3.0223,space,1.7336,0,77,77,38,1,,,6145135f01ab17bf41e67820,643772c612d6487bae548b12,2023-04-13_04h21.09.025,PRaM,2021.2.3,Win32,59.98440405,61b8f3437b89212fae0dfade
2,4.6572,space,3.2733,0,78,78,181,1,,,6145135f01ab17bf41e67820,643772c612d6487bae548b12,2023-04-13_04h21.09.025,PRaM,2021.2.3,Win32,59.98440405,61b8f3437b89212fae0dfade
1,2.4209,space,0.777,0,79,79,260,1,,,6145135f01ab17bf41e67820,643772c612d6487bae548b12,2023-04-13_04h21.09.025,PRaM,2021.2.3,Win32,59.98440405,61b8f3437b89212fae0dfade
1,1.7042,space,0.201,0,80,80,121,1,,,6145135f01ab17bf41e67820,643772c612d6487bae548b12,2023-04-13_04h21.09.025,PRaM,2021.2.3,Win32,59.98440405,61b8f3437b89212fae0dfade
1,1.5047,space,0.8523,0,81,81,144,1,,,6145135f01ab17bf41e67820,643772c612d6487bae548b12,2023-04-13_04h21.09.025,PRaM,2021.2.3,Win32,59.98440405,61b8f3437b89212fae0dfade
1,1.9417,space,1.1002,0,82,82,249,1,,,6145135f01ab17bf41e67820,643772c612d6487bae548b12,2023-04-13_04h21.09.025,PRaM,2021.2.3,Win32,59.98440405,61b8f3437b89212fae0dfade
1,5.2913,space,3.8218,0,83,83,269,1,,,6145135f01ab17bf41e67820,643772c612d6487bae548b12,2023-04-13_04h21.09.025,PRaM,2021.2.3,Win32,59.98440405,61b8f3437b89212fae0dfade
2,3.842,space,2.4345,0,84,84,105,1,,,6145135f01ab17bf41e67820,643772c612d6487bae548b12,2023-04-13_04h21.09.025,PRaM,2021.2.3,Win32,59.98440405,61b8f3437b89212fae0dfade
2,3.3131,space,1.7754,0,85,85,273,1,,,6145135f01ab17bf41e67820,643772c612d6487bae548b12,2023-04-13_04h21.09.025,PRaM,2021.2.3,Win32,59.98440405,61b8f3437b89212fae0dfade
1,2.9573,space,1.6843,0,86,86,107,1,,,6145135f01ab17bf41e67820,643772c612d6487bae548b12,2023-04-13_04h21.09.025,PRaM,2021.2.3,Win32,59.98440405,61b8f3437b89212fae0dfade
3,2.6704,space,1.1838,0,87,87,363,1,,,6145135f01ab17bf41e67820,643772c612d6487bae548b12,2023-04-13_04h21.09.025,PRaM,2021.2.3,Win32,59.98440405,61b8f3437b89212fae0dfade
1,2.6435,space,1.1435,0,88,88,223,1,,,6145135f01ab17bf41e67820,643772c612d6487bae548b12,2023-04-13_04h21.09.025,PRaM,2021.2.3,Win32,59.98440405,61b8f3437b89212fae0dfade
1,1.7647,space,0.2183,0,89,89,71,1,,,6145135f01ab17bf41e67820,643772c612d6487bae548b12,2023-04-13_04h21.09.025,PRaM,2021.2.3,Win32,59.98440405,61b8f3437b89212fae0dfade
1,2.0088,space,0.5375,0,90,90,87,1,,,6145135f01ab17bf41e67820,643772c612d6487bae548b12,2023-04-13_04h21.09.025,PRaM,2021.2.3,Win32,59.98440405,61b8f3437b89212fae0dfade
1,1.5436,space,0.0797,0,91,91,305,1,,,6145135f01ab17bf41e67820,643772c612d6487bae548b12,2023-04-13_04h21.09.025,PRaM,2021.2.3,Win32,59.98440405,61b8f3437b89212fae0dfade
1,2.2954,space,0.6858,0,92,92,281,1,,,6145135f01ab17bf41e67820,643772c612d6487bae548b12,2023-04-13_04h21.09.025,PRaM,2021.2.3,Win32,59.98440405,61b8f3437b89212fae0dfade
1,1.895,space,0.2526,0,93,93,150,1,,,6145135f01ab17bf41e67820,643772c612d6487bae548b12,2023-04-13_04h21.09.025,PRaM,2021.2.3,Win32,59.98440405,61b8f3437b89212fae0dfade
1,1.7392,space,0.1572,0,94,94,70,1,,,6145135f01ab17bf41e67820,643772c612d6487bae548b12,2023-04-13_04h21.09.025,PRaM,2021.2.3,Win32,59.98440405,61b8f3437b89212fae0dfade
4,4.7801,space,3.6679,0,95,95,83,1,,,6145135f01ab17bf41e67820,643772c612d6487bae548b12,2023-04-13_04h21.09.025,PRaM,2021.2.3,Win32,59.98440405,61b8f3437b89212fae0dfade
3,3.1636,space,1.5416,0,96,96,372,1,,,6145135f01ab17bf41e67820,643772c612d6487bae548b12,2023-04-13_04h21.09.025,PRaM,2021.2.3,Win32,59.98440405,61b8f3437b89212fae0dfade
2,3.2689,space,1.766,0,97,97,246,1,,,6145135f01ab17bf41e67820,643772c612d6487bae548b12,2023-04-13_04h21.09.025,PRaM,2021.2.3,Win32,59.98440405,61b8f3437b89212fae0dfade
1,5.8542,space,4.7257,0,98,98,103,1,,,6145135f01ab17bf41e67820,643772c612d6487bae548b12,2023-04-13_04h21.09.025,PRaM,2021.2.3,Win32,59.98440405,61b8f3437b89212fae0dfade
1,3.7464,space,2.4614,0,99,99,138,1,,,6145135f01ab17bf41e67820,643772c612d6487bae548b12,2023-04-13_04h21.09.025,PRaM,2021.2.3,Win32,59.98440405,61b8f3437b89212fae0dfade
3,4.4356,space,2.7693,0,100,100,14,1,,,6145135f01ab17bf41e67820,643772c612d6487bae548b12,2023-04-13_04h21.09.025,PRaM,2021.2.3,Win32,59.98440405,61b8f3437b89212fae0dfade
1,2.6217,space,1.134,0,101,101,310,1,,,6145135f01ab17bf41e67820,643772c612d6487bae548b12,2023-04-13_04h21.09.025,PRaM,2021.2.3,Win32,59.98440405,61b8f3437b89212fae0dfade
4,3.0057,space,1.4058,0,102,102,334,1,,,6145135f01ab17bf41e67820,643772c612d6487bae548b12,2023-04-13_04h21.09.025,PRaM,2021.2.3,Win32,59.98440405,61b8f3437b89212fae0dfade
3,2.3468,space,0.7336,0,103,103,112,1,,,6145135f01ab17bf41e67820,643772c612d6487bae548b12,2023-04-13_04h21.09.025,PRaM,2021.2.3,Win32,59.98440405,61b8f3437b89212fae0dfade
1,1.9261,space,0.3506,0,104,104,124,1,,,6145135f01ab17bf41e67820,643772c612d6487bae548b12,2023-04-13_04h21.09.025,PRaM,2021.2.3,Win32,59.98440405,61b8f3437b89212fae0dfade
1,1.2051,space,0.5281,0,105,105,247,1,,,6145135f01ab17bf41e67820,643772c612d6487bae548b12,2023-04-13_04h21.09.025,PRaM,2021.2.3,Win32,59.98440405,61b8f3437b89212fae0dfade
1,1.7962,space,0.2273,0,106,106,250,1,,,6145135f01ab17bf41e67820,643772c612d6487bae548b12,2023-04-13_04h21.09.025,PRaM,2021.2.3,Win32,59.98440405,61b8f3437b89212fae0dfade
2,2.7638,space,1.2332,0,107,107,74,1,,,6145135f01ab17bf41e67820,643772c612d6487bae548b12,2023-04-13_04h21.09.025,PRaM,2021.2.3,Win32,59.98440405,61b8f3437b89212fae0dfade
1,3.0498,space,1.5489,0,108,108,210,1,,,6145135f01ab17bf41e67820,643772c612d6487bae548b12,2023-04-13_04h21.09.025,PRaM,2021.2.3,Win32,59.98440405,61b8f3437b89212fae0dfade
1,4.6229,space,13.6192,0,109,109,120,1,,,6145135f01ab17bf41e67820,643772c612d6487bae548b12,2023-04-13_04h21.09.025,PRaM,2021.2.3,Win32,59.98440405,61b8f3437b89212fae0dfade
2,1.8795,space,0.2345,0,110,110,99,1,,,6145135f01ab17bf41e67820,643772c612d6487bae548b12,2023-04-13_04h21.09.025,PRaM,2021.2.3,Win32,59.98440405,61b8f3437b89212fae0dfade
8,3.3719,space,2.0361,0,111,111,320,1,,,6145135f01ab17bf41e67820,643772c612d6487bae548b12,2023-04-13_04h21.09.025,PRaM,2021.2.3,Win32,59.98440405,61b8f3437b89212fae0dfade
1,1.9565,space,0.3345,0,112,112,324,1,,,6145135f01ab17bf41e67820,643772c612d6487bae548b12,2023-04-13_04h21.09.025,PRaM,2021.2.3,Win32,59.98440405,61b8f3437b89212fae0dfade
1,2.7051,space,1.2024,0,113,113,132,1,,,6145135f01ab17bf41e67820,643772c612d6487bae548b12,2023-04-13_04h21.09.025,PRaM,2021.2.3,Win32,59.98440405,61b8f3437b89212fae0dfade
1,1.3889,space,1.5877,0,114,114,292,1,,,6145135f01ab17bf41e67820,643772c612d6487bae548b12,2023-04-13_04h21.09.025,PRaM,2021.2.3,Win32,59.98440405,61b8f3437b89212fae0dfade
1,2.2224,space,2.2013,0,115,115,116,1,,,6145135f01ab17bf41e67820,643772c612d6487bae548b12,2023-04-13_04h21.09.025,PRaM,2021.2.3,Win32,59.98440405,61b8f3437b89212fae0dfade
3,3.6589,space,2.1724,0,116,116,313,1,,,6145135f01ab17bf41e67820,643772c612d6487bae548b12,2023-04-13_04h21.09.025,PRaM,2021.2.3,Win32,59.98440405,61b8f3437b89212fae0dfade
2,3.0464,space,1.4899,0,117,117,321,1,,,6145135f01ab17bf41e67820,643772c612d6487bae548b12,2023-04-13_04h21.09.025,PRaM,2021.2.3,Win32,59.98440405,61b8f3437b89212fae0dfade
2,1.6253,space,0.6494,0,118,118,297,1,,,6145135f01ab17bf41e67820,643772c612d6487bae548b12,2023-04-13_04h21.09.025,PRaM,2021.2.3,Win32,59.98440405,61b8f3437b89212fae0dfade
2,1.9881,space,0.4933,0,119,119,93,1,,,6145135f01ab17bf41e67820,643772c612d6487bae548b12,2023-04-13_04h21.09.025,PRaM,2021.2.3,Win32,59.98440405,61b8f3437b89212fae0dfade
1,2.8335,space,1.3009,0,120,120,72,1,,,6145135f01ab17bf41e67820,643772c612d6487bae548b12,2023-04-13_04h21.09.025,PRaM,2021.2.3,Win32,59.98440405,61b8f3437b89212fae0dfade
1,2.105,space,0.6333,0,121,121,32,1,,,6145135f01ab17bf41e67820,643772c612d6487bae548b12,2023-04-13_04h21.09.025,PRaM,2021.2.3,Win32,59.98440405,61b8f3437b89212fae0dfade
1,1.6713,space,0.1028,0,122,122,311,1,,,6145135f01ab17bf41e67820,643772c612d6487bae548b12,2023-04-13_04h21.09.025,PRaM,2021.2.3,Win32,59.98440405,61b8f3437b89212fae0dfade
1,1.5557,space,0.093,0,123,123,232,1,,,6145135f01ab17bf41e67820,643772c612d6487bae548b12,2023-04-13_04h21.09.025,PRaM,2021.2.3,Win32,59.98440405,61b8f3437b89212fae0dfade
2,3.0757,space,1.4179,0,124,124,117,1,,,6145135f01ab17bf41e67820,643772c612d6487bae548b12,2023-04-13_04h21.09.025,PRaM,2021.2.3,Win32,59.98440405,61b8f3437b89212fae0dfade
1,2.2391,space,0.5558,0,125,125,76,1,,,6145135f01ab17bf41e67820,643772c612d6487bae548b12,2023-04-13_04h21.09.025,PRaM,2021.2.3,Win32,59.98440405,61b8f3437b89212fae0dfade
3,2.2548,space,0.7162,0,126,126,302,1,,,6145135f01ab17bf41e67820,643772c612d6487bae548b12,2023-04-13_04h21.09.025,PRaM,2021.2.3,Win32,59.98440405,61b8f3437b89212fae0dfade
1,3.4355,space,1.7393,0,127,127,242,1,,,6145135f01ab17bf41e67820,643772c612d6487bae548b12,2023-04-13_04h21.09.025,PRaM,2021.2.3,Win32,59.98440405,61b8f3437b89212fae0dfade
1,1.6234,space,0.5333,0,128,128,204,1,,,6145135f01ab17bf41e67820,643772c612d6487bae548b12,2023-04-13_04h21.09.025,PRaM,2021.2.3,Win32,59.98440405,61b8f3437b89212fae0dfade
2,5.1642,space,3.5676,0,129,129,60,1,,,6145135f01ab17bf41e67820,643772c612d6487bae548b12,2023-04-13_04h21.09.025,PRaM,2021.2.3,Win32,59.98440405,61b8f3437b89212fae0dfade
1,2.4646,space,0.8379,0,130,130,303,1,,,6145135f01ab17bf41e67820,643772c612d6487bae548b12,2023-04-13_04h21.09.025,PRaM,2021.2.3,Win32,59.98440405,61b8f3437b89212fae0dfade
1,1.4224,space,1.4224,0,131,131,77,1,,,6145135f01ab17bf41e67820,643772c612d6487bae548b12,2023-04-13_04h21.09.025,PRaM,2021.2.3,Win32,59.98440405,61b8f3437b89212fae0dfade
1,1.5056,space,0.1357,0,132,132,343,1,,,6145135f01ab17bf41e67820,643772c612d6487bae548b12,2023-04-13_04h21.09.025,PRaM,2021.2.3,Win32,59.98440405,61b8f3437b89212fae0dfade
1,2.2551,space,0.7061,0,133,133,253,1,,,6145135f01ab17bf41e67820,643772c612d6487bae548b12,2023-04-13_04h21.09.025,PRaM,2021.2.3,Win32,59.98440405,61b8f3437b89212fae0dfade
1,1.5936,space,0.1842,0,134,134,8,1,,,6145135f01ab17bf41e67820,643772c612d6487bae548b12,2023-04-13_04h21.09.025,PRaM,2021.2.3,Win32,59.98440405,61b8f3437b89212fae0dfade
1,2.3162,space,0.778,0,135,135,229,1,,,6145135f01ab17bf41e67820,643772c612d6487bae548b12,2023-04-13_04h21.09.025,PRaM,2021.2.3,Win32,59.98440405,61b8f3437b89212fae0dfade
1,1.3386,space,1.3528,0,136,136,91,1,,,6145135f01ab17bf41e67820,643772c612d6487bae548b12,2023-04-13_04h21.09.025,PRaM,2021.2.3,Win32,59.98440405,61b8f3437b89212fae0dfade
1,2.3084,space,1.9602,0,137,137,96,1,,,6145135f01ab17bf41e67820,643772c612d6487bae548b12,2023-04-13_04h21.09.025,PRaM,2021.2.3,Win32,59.98440405,61b8f3437b89212fae0dfade
2,2.7907,space,1.1348,0,138,138,152,1,,,6145135f01ab17bf41e67820,643772c612d6487bae548b12,2023-04-13_04h21.09.025,PRaM,2021.2.3,Win32,59.98440405,61b8f3437b89212fae0dfade
1,1.9324,space,0.2855,0,139,139,342,1,,,6145135f01ab17bf41e67820,643772c612d6487bae548b12,2023-04-13_04h21.09.025,PRaM,2021.2.3,Win32,59.98440405,61b8f3437b89212fae0dfade
1,1.5155,space,0.0007,0,140,140,94,1,,,6145135f01ab17bf41e67820,643772c612d6487bae548b12,2023-04-13_04h21.09.025,PRaM,2021.2.3,Win32,59.98440405,61b8f3437b89212fae0dfade
5,4.4723,space,3.0576,0,141,141,166,1,,,6145135f01ab17bf41e67820,643772c612d6487bae548b12,2023-04-13_04h21.09.025,PRaM,2021.2.3,Win32,59.98440405,61b8f3437b89212fae0dfade
1,2.6713,space,1.1203,0,142,142,309,1,,,6145135f01ab17bf41e67820,643772c612d6487bae548b12,2023-04-13_04h21.09.025,PRaM,2021.2.3,Win32,59.98440405,61b8f3437b89212fae0dfade
1,1.6761,space,0.1094,0,143,143,1,1,,,6145135f01ab17bf41e67820,643772c612d6487bae548b12,2023-04-13_04h21.09.025,PRaM,2021.2.3,Win32,59.98440405,61b8f3437b89212fae0dfade
6,2.6454,space,1.2239,0,144,144,137,1,,,6145135f01ab17bf41e67820,643772c612d6487bae548b12,2023-04-13_04h21.09.025,PRaM,2021.2.3,Win32,59.98440405,61b8f3437b89212fae0dfade
2,3.0221,space,1.352,0,145,145,359,1,,,6145135f01ab17bf41e67820,643772c612d6487bae548b12,2023-04-13_04h21.09.025,PRaM,2021.2.3,Win32,59.98440405,61b8f3437b89212fae0dfade
2,1.5424,space,1.0229,0,146,146,209,1,,,6145135f01ab17bf41e67820,643772c612d6487bae548b12,2023-04-13_04h21.09.025,PRaM,2021.2.3,Win32,59.98440405,61b8f3437b89212fae0dfade
4,11.2728,space,9.6578,0,147,147,7,1,,,6145135f01ab17bf41e67820,643772c612d6487bae548b12,2023-04-13_04h21.09.025,PRaM,2021.2.3,Win32,59.98440405,61b8f3437b89212fae0dfade
2,2.3894,space,0.7651,0,148,148,66,1,,,6145135f01ab17bf41e67820,643772c612d6487bae548b12,2023-04-13_04h21.09.025,PRaM,2021.2.3,Win32,59.98440405,61b8f3437b89212fae0dfade
2,1.8748,space,0.2693,0,149,149,110,1,,,6145135f01ab17bf41e67820,643772c612d6487bae548b12,2023-04-13_04h21.09.025,PRaM,2021.2.3,Win32,59.98440405,61b8f3437b89212fae0dfade
1,1.9137,space,0.4359,0,150,150,215,1,,,6145135f01ab17bf41e67820,643772c612d6487bae548b12,2023-04-13_04h21.09.025,PRaM,2021.2.3,Win32,59.98440405,61b8f3437b89212fae0dfade
1,1.8394,space,0.2588,0,151,151,364,1,,,6145135f01ab17bf41e67820,643772c612d6487bae548b12,2023-04-13_04h21.09.025,PRaM,2021.2.3,Win32,59.98440405,61b8f3437b89212fae0dfade
1,2.328,space,1.3041,0,152,152,236,1,,,6145135f01ab17bf41e67820,643772c612d6487bae548b12,2023-04-13_04h21.09.025,PRaM,2021.2.3,Win32,59.98440405,61b8f3437b89212fae0dfade
1,1.4108,space,0.1515,0,153,153,164,1,,,6145135f01ab17bf41e67820,643772c612d6487bae548b12,2023-04-13_04h21.09.025,PRaM,2021.2.3,Win32,59.98440405,61b8f3437b89212fae0dfade
1,4.9957,space,4.6857,0,154,154,31,1,,,6145135f01ab17bf41e67820,643772c612d6487bae548b12,2023-04-13_04h21.09.025,PRaM,2021.2.3,Win32,59.98440405,61b8f3437b89212fae0dfade
7,3.9223,space,2.5511,0,155,155,197,1,,,6145135f01ab17bf41e67820,643772c612d6487bae548b12,2023-04-13_04h21.09.025,PRaM,2021.2.3,Win32,59.98440405,61b8f3437b89212fae0dfade
2,2.1437,space,0.5173,0,156,156,259,1,,,6145135f01ab17bf41e67820,643772c612d6487bae548b12,2023-04-13_04h21.09.025,PRaM,2021.2.3,Win32,59.98440405,61b8f3437b89212fae0dfade
1,3.2467,space,1.6764,0,157,157,40,1,,,6145135f01ab17bf41e67820,643772c612d6487bae548b12,2023-04-13_04h21.09.025,PRaM,2021.2.3,Win32,59.98440405,61b8f3437b89212fae0dfade
2,2.0895,space,0.5511,0,158,158,75,1,,,6145135f01ab17bf41e67820,643772c612d6487bae548b12,2023-04-13_04h21.09.025,PRaM,2021.2.3,Win32,59.98440405,61b8f3437b89212fae0dfade
2,1.9648,space,0.4343,0,159,159,135,1,,,6145135f01ab17bf41e67820,643772c612d6487bae548b12,2023-04-13_04h21.09.025,PRaM,2021.2.3,Win32,59.98440405,61b8f3437b89212fae0dfade
2,1.5628,space,1.2719,0,160,160,239,1,,,6145135f01ab17bf41e67820,643772c612d6487bae548b12,2023-04-13_04h21.09.025,PRaM,2021.2.3,Win32,59.98440405,61b8f3437b89212fae0dfade
2,2.1069,space,0.5121,0,161,161,347,1,,,6145135f01ab17bf41e67820,643772c612d6487bae548b12,2023-04-13_04h21.09.025,PRaM,2021.2.3,Win32,59.98440405,61b8f3437b89212fae0dfade
1,1.6981,space,0.086,0,162,162,377,1,,,6145135f01ab17bf41e67820,643772c612d6487bae548b12,2023-04-13_04h21.09.025,PRaM,2021.2.3,Win32,59.98440405,61b8f3437b89212fae0dfade
1,5.3305,space,3.7093,0,163,163,5,1,,,6145135f01ab17bf41e67820,643772c612d6487bae548b12,2023-04-13_04h21.09.025,PRaM,2021.2.3,Win32,59.98440405,61b8f3437b89212fae0dfade
1,1.9718,space,0.3754,0,164,164,355,1,,,6145135f01ab17bf41e67820,643772c612d6487bae548b12,2023-04-13_04h21.09.025,PRaM,2021.2.3,Win32,59.98440405,61b8f3437b89212fae0dfade
1,1.6379,space,0.6892,0,165,165,171,1,,,6145135f01ab17bf41e67820,643772c612d6487bae548b12,2023-04-13_04h21.09.025,PRaM,2021.2.3,Win32,59.98440405,61b8f3437b89212fae0dfade
1,1.6553,space,0.0523,0,166,166,258,1,,,6145135f01ab17bf41e67820,643772c612d6487bae548b12,2023-04-13_04h21.09.025,PRaM,2021.2.3,Win32,59.98440405,61b8f3437b89212fae0dfade
1,14.7744,space,13.1084,0,167,167,234,1,,,6145135f01ab17bf41e67820,643772c612d6487bae548b12,2023-04-13_04h21.09.025,PRaM,2021.2.3,Win32,59.98440405,61b8f3437b89212fae0dfade
1,1.9256,space,0.2676,0,168,168,118,1,,,6145135f01ab17bf41e67820,643772c612d6487bae548b12,2023-04-13_04h21.09.025,PRaM,2021.2.3,Win32,59.98440405,61b8f3437b89212fae0dfade
1,1.2663,space,0.5683,0,169,169,41,1,,,6145135f01ab17bf41e67820,643772c612d6487bae548b12,2023-04-13_04h21.09.025,PRaM,2021.2.3,Win32,59.98440405,61b8f3437b89212fae0dfade
1,1.2612,space,0.9234,0,170,170,33,1,,,6145135f01ab17bf41e67820,643772c612d6487bae548b12,2023-04-13_04h21.09.025,PRaM,2021.2.3,Win32,59.98440405,61b8f3437b89212fae0dfade
3,2.1893,space,0.7777,0,171,171,196,1,,,6145135f01ab17bf41e67820,643772c612d6487bae548b12,2023-04-13_04h21.09.025,PRaM,2021.2.3,Win32,59.98440405,61b8f3437b89212fae0dfade
1,4.5207,space,2.9526,0,172,172,36,1,,,6145135f01ab17bf41e67820,643772c612d6487bae548b12,2023-04-13_04h21.09.025,PRaM,2021.2.3,Win32,59.98440405,61b8f3437b89212fae0dfade
1,1.9274,space,0.4189,0,173,173,287,1,,,6145135f01ab17bf41e67820,643772c612d6487bae548b12,2023-04-13_04h21.09.025,PRaM,2021.2.3,Win32,59.98440405,61b8f3437b89212fae0dfade
1,2.3888,space,0.8048,0,174,174,233,1,,,6145135f01ab17bf41e67820,643772c612d6487bae548b12,2023-04-13_04h21.09.025,PRaM,2021.2.3,Win32,59.98440405,61b8f3437b89212fae0dfade
1,1.4498,space,0.3206,0,175,175,371,1,,,6145135f01ab17bf41e67820,643772c612d6487bae548b12,2023-04-13_04h21.09.025,PRaM,2021.2.3,Win32,59.98440405,61b8f3437b89212fae0dfade
1,1.6663,space,1.212,0,176,176,251,1,,,6145135f01ab17bf41e67820,643772c612d6487bae548b12,2023-04-13_04h21.09.025,PRaM,2021.2.3,Win32,59.98440405,61b8f3437b89212fae0dfade
1,1.9632,space,0.5029,0,177,177,167,1,,,6145135f01ab17bf41e67820,643772c612d6487bae548b12,2023-04-13_04h21.09.025,PRaM,2021.2.3,Win32,59.98440405,61b8f3437b89212fae0dfade
1,1.6884,space,0.12,0,178,178,18,1,,,6145135f01ab17bf41e67820,643772c612d6487bae548b12,2023-04-13_04h21.09.025,PRaM,2021.2.3,Win32,59.98440405,61b8f3437b89212fae0dfade
1,2.8309,space,1.3513,0,179,179,79,1,,,6145135f01ab17bf41e67820,643772c612d6487bae548b12,2023-04-13_04h21.09.025,PRaM,2021.2.3,Win32,59.98440405,61b8f3437b89212fae0dfade
1,15.0302,space,13.7453,0,180,180,155,1,,,6145135f01ab17bf41e67820,643772c612d6487bae548b12,2023-04-13_04h21.09.025,PRaM,2021.2.3,Win32,59.98440405,61b8f3437b89212fae0dfade
3,3.7867,space,2.237,0,181,181,221,1,,,6145135f01ab17bf41e67820,643772c612d6487bae548b12,2023-04-13_04h21.09.025,PRaM,2021.2.3,Win32,59.98440405,61b8f3437b89212fae0dfade
1,2.3168,space,0.7555,0,182,182,131,1,,,6145135f01ab17bf41e67820,643772c612d6487bae548b12,2023-04-13_04h21.09.025,PRaM,2021.2.3,Win32,59.98440405,61b8f3437b89212fae0dfade
1,4.0131,space,2.4926,0,183,183,98,1,,,6145135f01ab17bf41e67820,643772c612d6487bae548b12,2023-04-13_04h21.09.025,PRaM,2021.2.3,Win32,59.98440405,61b8f3437b89212fae0dfade
1,14.9646,space,16.0513,0,184,184,170,1,,,6145135f01ab17bf41e67820,643772c612d6487bae548b12,2023-04-13_04h21.09.025,PRaM,2021.2.3,Win32,59.98440405,61b8f3437b89212fae0dfade
1,1.4904,space,0.0206,0,185,185,299,1,,,6145135f01ab17bf41e67820,643772c612d6487bae548b12,2023-04-13_04h21.09.025,PRaM,2021.2.3,Win32,59.98440405,61b8f3437b89212fae0dfade
1,1.9297,space,0.492,0,186,186,362,1,,,6145135f01ab17bf41e67820,643772c612d6487bae548b12,2023-04-13_04h21.09.025,PRaM,2021.2.3,Win32,59.98440405,61b8f3437b89212fae0dfade
1,2.2885,space,0.6705,0,187,187,62,1,,,6145135f01ab17bf41e67820,643772c612d6487bae548b12,2023-04-13_04h21.09.025,PRaM,2021.2.3,Win32,59.98440405,61b8f3437b89212fae0dfade
1,1.4221,space,0.9886,0,188,188,123,1,,,6145135f01ab17bf41e67820,643772c612d6487bae548b12,2023-04-13_04h21.09.025,PRaM,2021.2.3,Win32,59.98440405,61b8f3437b89212fae0dfade
1,2.5956,space,1.0364,0,189,189,369,1,,,6145135f01ab17bf41e67820,643772c612d6487bae548b12,2023-04-13_04h21.09.025,PRaM,2021.2.3,Win32,59.98440405,61b8f3437b89212fae0dfade
1,1.4545,space,0.0343,0,190,190,30,1,,,6145135f01ab17bf41e67820,643772c612d6487bae548b12,2023-04-13_04h21.09.025,PRaM,2021.2.3,Win32,59.98440405,61b8f3437b89212fae0dfade
3,2.9728,space,1.5255,0,191,191,42,1,,,6145135f01ab17bf41e67820,643772c612d6487bae548b12,2023-04-13_04h21.09.025,PRaM,2021.2.3,Win32,59.98440405,61b8f3437b89212fae0dfade
1,3.2555,space,1.7199,0,192,192,217,1,,,6145135f01ab17bf41e67820,643772c612d6487bae548b12,2023-04-13_04h21.09.025,PRaM,2021.2.3,Win32,59.98440405,61b8f3437b89212fae0dfade
1,1.6879,space,0.3524,0,193,193,337,1,,,6145135f01ab17bf41e67820,643772c612d6487bae548b12,2023-04-13_04h21.09.025,PRaM,2021.2.3,Win32,59.98440405,61b8f3437b89212fae0dfade
1,1.9755,space,0.3901,0,194,194,0,1,,,6145135f01ab17bf41e67820,643772c612d6487bae548b12,2023-04-13_04h21.09.025,PRaM,2021.2.3,Win32,59.98440405,61b8f3437b89212fae0dfade
1,1.2551,space,1.8088,0,195,195,146,1,,,6145135f01ab17bf41e67820,643772c612d6487bae548b12,2023-04-13_04h21.09.025,PRaM,2021.2.3,Win32,59.98440405,61b8f3437b89212fae0dfade
1,2.4865,space,1.0723,0,196,196,190,1,,,6145135f01ab17bf41e67820,643772c612d6487bae548b12,2023-04-13_04h21.09.025,PRaM,2021.2.3,Win32,59.98440405,61b8f3437b89212fae0dfade
4,2.6324,space,1.0592,0,197,197,277,1,,,6145135f01ab17bf41e67820,643772c612d6487bae548b12,2023-04-13_04h21.09.025,PRaM,2021.2.3,Win32,59.98440405,61b8f3437b89212fae0dfade
2,1.7975,space,0.1854,0,198,198,114,1,,,6145135f01ab17bf41e67820,643772c612d6487bae548b12,2023-04-13_04h21.09.025,PRaM,2021.2.3,Win32,59.98440405,61b8f3437b89212fae0dfade
4,2.7426,space,1.0964,0,199,199,276,1,,,6145135f01ab17bf41e67820,643772c612d6487bae548b12,2023-04-13_04h21.09.025,PRaM,2021.2.3,Win32,59.98440405,61b8f3437b89212fae0dfade
1,2.9462,space,1.925,0,200,200,6,1,,,6145135f01ab17bf41e67820,643772c612d6487bae548b12,2023-04-13_04h21.09.025,PRaM,2021.2.3,Win32,59.98440405,61b8f3437b89212fae0dfade
1,1.263,space,0.8027,0,201,201,108,1,,,6145135f01ab17bf41e67820,643772c612d6487bae548b12,2023-04-13_04h21.09.025,PRaM,2021.2.3,Win32,59.98440405,61b8f3437b89212fae0dfade
1,1.4764,space,0.2788,0,202,202,193,1,,,6145135f01ab17bf41e67820,643772c612d6487bae548b12,2023-04-13_04h21.09.025,PRaM,2021.2.3,Win32,59.98440405,61b8f3437b89212fae0dfade
1,1.3915,space,0.735,0,203,203,353,1,,,6145135f01ab17bf41e67820,643772c612d6487bae548b12,2023-04-13_04h21.09.025,PRaM,2021.2.3,Win32,59.98440405,61b8f3437b89212fae0dfade
2,3.1135,space,1.6594,0,204,204,56,1,,,6145135f01ab17bf41e67820,643772c612d6487bae548b12,2023-04-13_04h21.09.025,PRaM,2021.2.3,Win32,59.98440405,61b8f3437b89212fae0dfade
1,1.7075,space,0.2194,0,205,205,73,1,,,6145135f01ab17bf41e67820,643772c612d6487bae548b12,2023-04-13_04h21.09.025,PRaM,2021.2.3,Win32,59.98440405,61b8f3437b89212fae0dfade
6,2.9303,space,1.9748,0,206,206,3,1,,,6145135f01ab17bf41e67820,643772c612d6487bae548b12,2023-04-13_04h21.09.025,PRaM,2021.2.3,Win32,59.98440405,61b8f3437b89212fae0dfade
2,1.9888,space,0.3654,0,207,207,208,1,,,6145135f01ab17bf41e67820,643772c612d6487bae548b12,2023-04-13_04h21.09.025,PRaM,2021.2.3,Win32,59.98440405,61b8f3437b89212fae0dfade
3,2.761,space,1.1242,0,208,208,222,1,,,6145135f01ab17bf41e67820,643772c612d6487bae548b12,2023-04-13_04h21.09.025,PRaM,2021.2.3,Win32,59.98440405,61b8f3437b89212fae0dfade
1,4.8996,space,3.9577,0,209,209,175,1,,,6145135f01ab17bf41e67820,643772c612d6487bae548b12,2023-04-13_04h21.09.025,PRaM,2021.2.3,Win32,59.98440405,61b8f3437b89212fae0dfade
1,1.6046,space,0.0856,0,210,210,243,1,,,6145135f01ab17bf41e67820,643772c612d6487bae548b12,2023-04-13_04h21.09.025,PRaM,2021.2.3,Win32,59.98440405,61b8f3437b89212fae0dfade
1,2.0225,space,0.7912,0,211,211,97,1,,,6145135f01ab17bf41e67820,643772c612d6487bae548b12,2023-04-13_04h21.09.025,PRaM,2021.2.3,Win32,59.98440405,61b8f3437b89212fae0dfade
3,6.2188,space,4.6738,0,212,212,285,1,,,6145135f01ab17bf41e67820,643772c612d6487bae548b12,2023-04-13_04h21.09.025,PRaM,2021.2.3,Win32,59.98440405,61b8f3437b89212fae0dfade
1,2.3217,space,0.8268,0,213,213,312,1,,,6145135f01ab17bf41e67820,643772c612d6487bae548b12,2023-04-13_04h21.09.025,PRaM,2021.2.3,Win32,59.98440405,61b8f3437b89212fae0dfade
3,6.5305,space,5.2736,0,214,214,127,1,,,6145135f01ab17bf41e67820,643772c612d6487bae548b12,2023-04-13_04h21.09.025,PRaM,2021.2.3,Win32,59.98440405,61b8f3437b89212fae0dfade
2,1.806,space,0.143,0,215,215,280,1,,,6145135f01ab17bf41e67820,643772c612d6487bae548b12,2023-04-13_04h21.09.025,PRaM,2021.2.3,Win32,59.98440405,61b8f3437b89212fae0dfade
1,1.6248,space,0.0361,0,216,216,195,1,,,6145135f01ab17bf41e67820,643772c612d6487bae548b12,2023-04-13_04h21.09.025,PRaM,2021.2.3,Win32,59.98440405,61b8f3437b89212fae0dfade
2,1.8561,space,0.2356,0,217,217,43,1,,,6145135f01ab17bf41e67820,643772c612d6487bae548b12,2023-04-13_04h21.09.025,PRaM,2021.2.3,Win32,59.98440405,61b8f3437b89212fae0dfade
1,2.8689,space,1.4526,0,218,218,188,1,,,6145135f01ab17bf41e67820,643772c612d6487bae548b12,2023-04-13_04h21.09.025,PRaM,2021.2.3,Win32,59.98440405,61b8f3437b89212fae0dfade
2,2.2663,space,0.645,0,219,219,12,1,,,6145135f01ab17bf41e67820,643772c612d6487bae548b12,2023-04-13_04h21.09.025,PRaM,2021.2.3,Win32,59.98440405,61b8f3437b89212fae0dfade
1,2.5496,space,1.3485,0,220,220,240,1,,,6145135f01ab17bf41e67820,643772c612d6487bae548b12,2023-04-13_04h21.09.025,PRaM,2021.2.3,Win32,59.98440405,61b8f3437b89212fae0dfade
1,8.3469,space,6.9454,0,221,221,189,1,,,6145135f01ab17bf41e67820,643772c612d6487bae548b12,2023-04-13_04h21.09.025,PRaM,2021.2.3,Win32,59.98440405,61b8f3437b89212fae0dfade
1,1.9258,space,0.8727,0,222,222,238,1,,,6145135f01ab17bf41e67820,643772c612d6487bae548b12,2023-04-13_04h21.09.025,PRaM,2021.2.3,Win32,59.98440405,61b8f3437b89212fae0dfade
1,4.7802,space,3.1198,0,223,223,125,1,,,6145135f01ab17bf41e67820,643772c612d6487bae548b12,2023-04-13_04h21.09.025,PRaM,2021.2.3,Win32,59.98440405,61b8f3437b89212fae0dfade
1,1.2237,space,0.5929,0,224,224,338,1,,,6145135f01ab17bf41e67820,643772c612d6487bae548b12,2023-04-13_04h21.09.025,PRaM,2021.2.3,Win32,59.98440405,61b8f3437b89212fae0dfade
1,1.4064,space,0.9927,0,225,225,322,1,,,6145135f01ab17bf41e67820,643772c612d6487bae548b12,2023-04-13_04h21.09.025,PRaM,2021.2.3,Win32,59.98440405,61b8f3437b89212fae0dfade
1,1.8223,space,1.1164,0,226,226,9,1,,,6145135f01ab17bf41e67820,643772c612d6487bae548b12,2023-04-13_04h21.09.025,PRaM,2021.2.3,Win32,59.98440405,61b8f3437b89212fae0dfade
1,1.922,space,0.7956,0,227,227,290,1,,,6145135f01ab17bf41e67820,643772c612d6487bae548b12,2023-04-13_04h21.09.025,PRaM,2021.2.3,Win32,59.98440405,61b8f3437b89212fae0dfade
1,1.6575,space,0.1688,0,228,228,82,1,,,6145135f01ab17bf41e67820,643772c612d6487bae548b12,2023-04-13_04h21.09.025,PRaM,2021.2.3,Win32,59.98440405,61b8f3437b89212fae0dfade
5,5.5487,space,4.0407,0,229,229,159,1,,,6145135f01ab17bf41e67820,643772c612d6487bae548b12,2023-04-13_04h21.09.025,PRaM,2021.2.3,Win32,59.98440405,61b8f3437b89212fae0dfade
1,2.7137,space,1.1735,0,230,230,289,1,,,6145135f01ab17bf41e67820,643772c612d6487bae548b12,2023-04-13_04h21.09.025,PRaM,2021.2.3,Win32,59.98440405,61b8f3437b89212fae0dfade
1,1.7223,space,0.2945,0,231,231,201,1,,,6145135f01ab17bf41e67820,643772c612d6487bae548b12,2023-04-13_04h21.09.025,PRaM,2021.2.3,Win32,59.98440405,61b8f3437b89212fae0dfade
1,2.1234,space,0.7237,0,232,232,296,1,,,6145135f01ab17bf41e67820,643772c612d6487bae548b12,2023-04-13_04h21.09.025,PRaM,2021.2.3,Win32,59.98440405,61b8f3437b89212fae0dfade
1,2.9057,space,1.4176,0,233,233,274,1,,,6145135f01ab17bf41e67820,643772c612d6487bae548b12,2023-04-13_04h21.09.025,PRaM,2021.2.3,Win32,59.98440405,61b8f3437b89212fae0dfade
1,5.5135,space,3.9195,0,234,234,10,1,,,6145135f01ab17bf41e67820,643772c612d6487bae548b12,2023-04-13_04h21.09.025,PRaM,2021.2.3,Win32,59.98440405,61b8f3437b89212fae0dfade
1,1.2272,space,0.9755,0,235,235,203,1,,,6145135f01ab17bf41e67820,643772c612d6487bae548b12,2023-04-13_04h21.09.025,PRaM,2021.2.3,Win32,59.98440405,61b8f3437b89212fae0dfade
1,3.3316,space,2.2061,0,236,236,122,1,,,6145135f01ab17bf41e67820,643772c612d6487bae548b12,2023-04-13_04h21.09.025,PRaM,2021.2.3,Win32,59.98440405,61b8f3437b89212fae0dfade
1,1.9052,space,1.7786,0,237,237,52,1,,,6145135f01ab17bf41e67820,643772c612d6487bae548b12,2023-04-13_04h21.09.025,PRaM,2021.2.3,Win32,59.98440405,61b8f3437b89212fae0dfade
4,4.9378,space,3.3798,0,238,238,192,1,,,6145135f01ab17bf41e67820,643772c612d6487bae548b12,2023-04-13_04h21.09.025,PRaM,2021.2.3,Win32,59.98440405,61b8f3437b89212fae0dfade
2,2.2369,space,0.6201,0,239,239,86,1,,,6145135f01ab17bf41e67820,643772c612d6487bae548b12,2023-04-13_04h21.09.025,PRaM,2021.2.3,Win32,59.98440405,61b8f3437b89212fae0dfade
1,2.2073,space,0.7372,0,240,240,158,1,,,6145135f01ab17bf41e67820,643772c612d6487bae548b12,2023-04-13_04h21.09.025,PRaM,2021.2.3,Win32,59.98440405,61b8f3437b89212fae0dfade
2,3.3069,space,1.8375,0,241,241,327,1,,,6145135f01ab17bf41e67820,643772c612d6487bae548b12,2023-04-13_04h21.09.025,PRaM,2021.2.3,Win32,59.98440405,61b8f3437b89212fae0dfade
1,2.2889,space,0.8008,0,242,242,177,1,,,6145135f01ab17bf41e67820,643772c612d6487bae548b12,2023-04-13_04h21.09.025,PRaM,2021.2.3,Win32,59.98440405,61b8f3437b89212fae0dfade
1,1.9218,space,0.417,0,243,243,350,1,,,6145135f01ab17bf41e67820,643772c612d6487bae548b12,2023-04-13_04h21.09.025,PRaM,2021.2.3,Win32,59.98440405,61b8f3437b89212fae0dfade
1,2.4061,space,0.8222,0,244,244,48,1,,,6145135f01ab17bf41e67820,643772c612d6487bae548b12,2023-04-13_04h21.09.025,PRaM,2021.2.3,Win32,59.98440405,61b8f3437b89212fae0dfade
1,1.0901,space,1.5241,0,245,245,211,1,,,6145135f01ab17bf41e67820,643772c612d6487bae548b12,2023-04-13_04h21.09.025,PRaM,2021.2.3,Win32,59.98440405,61b8f3437b89212fae0dfade
1,1.4905,space,1.0953,0,246,246,24,1,,,6145135f01ab17bf41e67820,643772c612d6487bae548b12,2023-04-13_04h21.09.025,PRaM,2021.2.3,Win32,59.98440405,61b8f3437b89212fae0dfade
1,4.6474,space,3.1041,0,247,247,235,1,,,6145135f01ab17bf41e67820,643772c612d6487bae548b12,2023-04-13_04h21.09.025,PRaM,2021.2.3,Win32,59.98440405,61b8f3437b89212fae0dfade
1,1.6555,space,0.1598,0,248,248,202,1,,,6145135f01ab17bf41e67820,643772c612d6487bae548b12,2023-04-13_04h21.09.025,PRaM,2021.2.3,Win32,59.98440405,61b8f3437b89212fae0dfade
1,1.6056,space,0.773,0,249,249,23,1,,,6145135f01ab17bf41e67820,643772c612d6487bae548b12,2023-04-13_04h21.09.025,PRaM,2021.2.3,Win32,59.98440405,61b8f3437b89212fae0dfade
1,1.5796,space,0.1925,0,250,250,360,1,,,6145135f01ab17bf41e67820,643772c612d6487bae548b12,2023-04-13_04h21.09.025,PRaM,2021.2.3,Win32,59.98440405,61b8f3437b89212fae0dfade
1,1.8892,space,3.3565,0,251,251,226,1,,,6145135f01ab17bf41e67820,643772c612d6487bae548b12,2023-04-13_04h21.09.025,PRaM,2021.2.3,Win32,59.98440405,61b8f3437b89212fae0dfade
1,1.661,space,0.2179,0,252,252,262,1,,,6145135f01ab17bf41e67820,643772c612d6487bae548b12,2023-04-13_04h21.09.025,PRaM,2021.2.3,Win32,59.98440405,61b8f3437b89212fae0dfade
3,3.1773,space,1.7692,0,253,253,139,1,,,6145135f01ab17bf41e67820,643772c612d6487bae548b12,2023-04-13_04h21.09.025,PRaM,2021.2.3,Win32,59.98440405,61b8f3437b89212fae0dfade
1,2.6382,space,2.6826,0,254,254,370,1,,,6145135f01ab17bf41e67820,643772c612d6487bae548b12,2023-04-13_04h21.09.025,PRaM,2021.2.3,Win32,59.98440405,61b8f3437b89212fae0dfade
1,1.6403,space,0.5079,0,255,255,160,1,,,6145135f01ab17bf41e67820,643772c612d6487bae548b12,2023-04-13_04h21.09.025,PRaM,2021.2.3,Win32,59.98440405,61b8f3437b89212fae0dfade
1,1.4052,space,0.0945,0,256,256,293,1,,,6145135f01ab17bf41e67820,643772c612d6487bae548b12,2023-04-13_04h21.09.025,PRaM,2021.2.3,Win32,59.98440405,61b8f3437b89212fae0dfade
1,1.9581,space,0.4358,0,257,257,88,1,,,6145135f01ab17bf41e67820,643772c612d6487bae548b12,2023-04-13_04h21.09.025,PRaM,2021.2.3,Win32,59.98440405,61b8f3437b89212fae0dfade
1,1.7886,space,0.3039,0,258,258,109,1,,,6145135f01ab17bf41e67820,643772c612d6487bae548b12,2023-04-13_04h21.09.025,PRaM,2021.2.3,Win32,59.98440405,61b8f3437b89212fae0dfade
1,1.0384,space,0.3679,0,259,259,224,1,,,6145135f01ab17bf41e67820,643772c612d6487bae548b12,2023-04-13_04h21.09.025,PRaM,2021.2.3,Win32,59.98440405,61b8f3437b89212fae0dfade
1,1.3719,space,0.7527,0,260,260,358,1,,,6145135f01ab17bf41e67820,643772c612d6487bae548b12,2023-04-13_04h21.09.025,PRaM,2021.2.3,Win32,59.98440405,61b8f3437b89212fae0dfade
1,1.722,space,1.2948,0,261,261,318,1,,,6145135f01ab17bf41e67820,643772c612d6487bae548b12,2023-04-13_04h21.09.025,PRaM,2021.2.3,Win32,59.98440405,61b8f3437b89212fae0dfade
1,1.3216,space,0.6227,0,262,262,283,1,,,6145135f01ab17bf41e67820,643772c612d6487bae548b12,2023-04-13_04h21.09.025,PRaM,2021.2.3,Win32,59.98440405,61b8f3437b89212fae0dfade
1,1.3929,space,1.2128,0,263,263,328,1,,,6145135f01ab17bf41e67820,643772c612d6487bae548b12,2023-04-13_04h21.09.025,PRaM,2021.2.3,Win32,59.98440405,61b8f3437b89212fae0dfade
4,3.4881,space,2.2553,0,264,264,61,1,,,6145135f01ab17bf41e67820,643772c612d6487bae548b12,2023-04-13_04h21.09.025,PRaM,2021.2.3,Win32,59.98440405,61b8f3437b89212fae0dfade
3,4.0974,space,2.8887,0,265,265,319,1,,,6145135f01ab17bf41e67820,643772c612d6487bae548b12,2023-04-13_04h21.09.025,PRaM,2021.2.3,Win32,59.98440405,61b8f3437b89212fae0dfade
1,1.9985,space,0.5898,0,266,266,58,1,,,6145135f01ab17bf41e67820,643772c612d6487bae548b12,2023-04-13_04h21.09.025,PRaM,2021.2.3,Win32,59.98440405,61b8f3437b89212fae0dfade
2,4.1636,space,2.64,0,267,267,153,1,,,6145135f01ab17bf41e67820,643772c612d6487bae548b12,2023-04-13_04h21.09.025,PRaM,2021.2.3,Win32,59.98440405,61b8f3437b89212fae0dfade
2,1.8489,space,0.3741,0,268,268,216,1,,,6145135f01ab17bf41e67820,643772c612d6487bae548b12,2023-04-13_04h21.09.025,PRaM,2021.2.3,Win32,59.98440405,61b8f3437b89212fae0dfade
1,2.5788,space,0.9113,0,269,269,183,1,,,6145135f01ab17bf41e67820,643772c612d6487bae548b12,2023-04-13_04h21.09.025,PRaM,2021.2.3,Win32,59.98440405,61b8f3437b89212fae0dfade
1,1.6714,space,0.1527,0,270,270,142,1,,,6145135f01ab17bf41e67820,643772c612d6487bae548b12,2023-04-13_04h21.09.025,PRaM,2021.2.3,Win32,59.98440405,61b8f3437b89212fae0dfade
4,2.4556,space,0.8875,0,271,271,80,1,,,6145135f01ab17bf41e67820,643772c612d6487bae548b12,2023-04-13_04h21.09.025,PRaM,2021.2.3,Win32,59.98440405,61b8f3437b89212fae0dfade
1,1.5725,space,0.0028,0,272,272,214,1,,,6145135f01ab17bf41e67820,643772c612d6487bae548b12,2023-04-13_04h21.09.025,PRaM,2021.2.3,Win32,59.98440405,61b8f3437b89212fae0dfade
1,2.1124,space,0.7854,0,273,273,306,1,,,6145135f01ab17bf41e67820,643772c612d6487bae548b12,2023-04-13_04h21.09.025,PRaM,2021.2.3,Win32,59.98440405,61b8f3437b89212fae0dfade
1,5.2573,space,3.6611,0,274,274,69,1,,,6145135f01ab17bf41e67820,643772c612d6487bae548b12,2023-04-13_04h21.09.025,PRaM,2021.2.3,Win32,59.98440405,61b8f3437b89212fae0dfade
1,4.9312,space,4.9018,0,275,275,308,1,,,6145135f01ab17bf41e67820,643772c612d6487bae548b12,2023-04-13_04h21.09.025,PRaM,2021.2.3,Win32,59.98440405,61b8f3437b89212fae0dfade
1,1.7888,space,0.3011,0,276,276,267,1,,,6145135f01ab17bf41e67820,643772c612d6487bae548b12,2023-04-13_04h21.09.025,PRaM,2021.2.3,Win32,59.98440405,61b8f3437b89212fae0dfade
1,1.7888,space,0.5292,0,277,277,37,1,,,6145135f01ab17bf41e67820,643772c612d6487bae548b12,2023-04-13_04h21.09.025,PRaM,2021.2.3,Win32,59.98440405,61b8f3437b89212fae0dfade
1,3.7205,space,2.1684,0,278,278,44,1,,,6145135f01ab17bf41e67820,643772c612d6487bae548b12,2023-04-13_04h21.09.025,PRaM,2021.2.3,Win32,59.98440405,61b8f3437b89212fae0dfade
1,18.474,space,17.2892,0,279,279,357,1,,,6145135f01ab17bf41e67820,643772c612d6487bae548b12,2023-04-13_04h21.09.025,PRaM,2021.2.3,Win32,59.98440405,61b8f3437b89212fae0dfade
1,1.927,space,0.3687,0,280,280,314,1,,,6145135f01ab17bf41e67820,643772c612d6487bae548b12,2023-04-13_04h21.09.025,PRaM,2021.2.3,Win32,59.98440405,61b8f3437b89212fae0dfade
1,1.3495,space,0.7098,0,281,281,339,1,,,6145135f01ab17bf41e67820,643772c612d6487bae548b12,2023-04-13_04h21.09.025,PRaM,2021.2.3,Win32,59.98440405,61b8f3437b89212fae0dfade
1,1.4589,space,2.9344,0,282,282,111,1,,,6145135f01ab17bf41e67820,643772c612d6487bae548b12,2023-04-13_04h21.09.025,PRaM,2021.2.3,Win32,59.98440405,61b8f3437b89212fae0dfade
3,2.8081,space,1.2377,0,283,283,115,1,,,6145135f01ab17bf41e67820,643772c612d6487bae548b12,2023-04-13_04h21.09.025,PRaM,2021.2.3,Win32,59.98440405,61b8f3437b89212fae0dfade
3,2.1638,space,0.7028,0,284,284,85,1,,,6145135f01ab17bf41e67820,643772c612d6487bae548b12,2023-04-13_04h21.09.025,PRaM,2021.2.3,Win32,59.98440405,61b8f3437b89212fae0dfade
1,1.672,space,0.1042,0,285,285,130,1,,,6145135f01ab17bf41e67820,643772c612d6487bae548b12,2023-04-13_04h21.09.025,PRaM,2021.2.3,Win32,59.98440405,61b8f3437b89212fae0dfade
1,1.3273,space,0.8874,0,286,286,231,1,,,6145135f01ab17bf41e67820,643772c612d6487bae548b12,2023-04-13_04h21.09.025,PRaM,2021.2.3,Win32,59.98440405,61b8f3437b89212fae0dfade
2,5.1256,space,3.519,0,287,287,45,1,,,6145135f01ab17bf41e67820,643772c612d6487bae548b12,2023-04-13_04h21.09.025,PRaM,2021.2.3,Win32,59.98440405,61b8f3437b89212fae0dfade
1,1.6729,space,0.6042,0,288,288,54,1,,,6145135f01ab17bf41e67820,643772c612d6487bae548b12,2023-04-13_04h21.09.025,PRaM,2021.2.3,Win32,59.98440405,61b8f3437b89212fae0dfade
1,6.3707,space,4.8181,0,289,289,176,1,,,6145135f01ab17bf41e67820,643772c612d6487bae548b12,2023-04-13_04h21.09.025,PRaM,2021.2.3,Win32,59.98440405,61b8f3437b89212fae0dfade
1,20.0203,space,18.7571,0,290,290,367,1,,,6145135f01ab17bf41e67820,643772c612d6487bae548b12,2023-04-13_04h21.09.025,PRaM,2021.2.3,Win32,59.98440405,61b8f3437b89212fae0dfade
1,1.6713,space,0.5238,0,291,291,206,1,,,6145135f01ab17bf41e67820,643772c612d6487bae548b12,2023-04-13_04h21.09.025,PRaM,2021.2.3,Win32,59.98440405,61b8f3437b89212fae0dfade
1,1.8035,space,0.8053,0,292,292,349,1,,,6145135f01ab17bf41e67820,643772c612d6487bae548b12,2023-04-13_04h21.09.025,PRaM,2021.2.3,Win32,59.98440405,61b8f3437b89212fae0dfade
1,1.9552,space,1.2897,0,293,293,81,1,,,6145135f01ab17bf41e67820,643772c612d6487bae548b12,2023-04-13_04h21.09.025,PRaM,2021.2.3,Win32,59.98440405,61b8f3437b89212fae0dfade
1,1.3548,space,0.4011,0,294,294,376,1,,,6145135f01ab17bf41e67820,643772c612d6487bae548b12,2023-04-13_04h21.09.025,PRaM,2021.2.3,Win32,59.98440405,61b8f3437b89212fae0dfade
1,2.1579,space,4.3851,0,295,295,345,1,,,6145135f01ab17bf41e67820,643772c612d6487bae548b12,2023-04-13_04h21.09.025,PRaM,2021.2.3,Win32,59.98440405,61b8f3437b89212fae0dfade
2,2.7238,space,1.2054,0,296,296,173,1,,,6145135f01ab17bf41e67820,643772c612d6487bae548b12,2023-04-13_04h21.09.025,PRaM,2021.2.3,Win32,59.98440405,61b8f3437b89212fae0dfade
1,1.661,space,0.0713,0,297,297,182,1,,,6145135f01ab17bf41e67820,643772c612d6487bae548b12,2023-04-13_04h21.09.025,PRaM,2021.2.3,Win32,59.98440405,61b8f3437b89212fae0dfade
1,0.9466,space,1.4036,0,298,298,365,1,,,6145135f01ab17bf41e67820,643772c612d6487bae548b12,2023-04-13_04h21.09.025,PRaM,2021.2.3,Win32,59.98440405,61b8f3437b89212fae0dfade
1,1.3392,space,0.4524,0,299,299,268,1,,,6145135f01ab17bf41e67820,643772c612d6487bae548b12,2023-04-13_04h21.09.025,PRaM,2021.2.3,Win32,59.98440405,61b8f3437b89212fae0dfade
1,1.4095,space,0.5848,0,300,300,294,1,,,6145135f01ab17bf41e67820,643772c612d6487bae548b12,2023-04-13_04h21.09.025,PRaM,2021.2.3,Win32,59.98440405,61b8f3437b89212fae0dfade
4,3.7629,space,2.818,0,301,301,225,1,,,6145135f01ab17bf41e67820,643772c612d6487bae548b12,2023-04-13_04h21.09.025,PRaM,2021.2.3,Win32,59.98440405,61b8f3437b89212fae0dfade
1,1.6625,space,0.1533,0,302,302,374,1,,,6145135f01ab17bf41e67820,643772c612d6487bae548b12,2023-04-13_04h21.09.025,PRaM,2021.2.3,Win32,59.98440405,61b8f3437b89212fae0dfade
1,10.6139,space,9.1018,0,303,303,298,1,,,6145135f01ab17bf41e67820,643772c612d6487bae548b12,2023-04-13_04h21.09.025,PRaM,2021.2.3,Win32,59.98440405,61b8f3437b89212fae0dfade
1,1.972,space,4.5327,0,304,304,252,1,,,6145135f01ab17bf41e67820,643772c612d6487bae548b12,2023-04-13_04h21.09.025,PRaM,2021.2.3,Win32,59.98440405,61b8f3437b89212fae0dfade
1,1.5132,space,0.5185,0,305,305,218,1,,,6145135f01ab17bf41e67820,643772c612d6487bae548b12,2023-04-13_04h21.09.025,PRaM,2021.2.3,Win32,59.98440405,61b8f3437b89212fae0dfade
1,1.821,space,0.4263,0,306,306,346,1,,,6145135f01ab17bf41e67820,643772c612d6487bae548b12,2023-04-13_04h21.09.025,PRaM,2021.2.3,Win32,59.98440405,61b8f3437b89212fae0dfade
1,1.6222,space,0.6693,0,307,307,261,1,,,6145135f01ab17bf41e67820,643772c612d6487bae548b12,2023-04-13_04h21.09.025,PRaM,2021.2.3,Win32,59.98440405,61b8f3437b89212fae0dfade
1,1.3712,space,9.4195,0,308,308,356,1,,,6145135f01ab17bf41e67820,643772c612d6487bae548b12,2023-04-13_04h21.09.025,PRaM,2021.2.3,Win32,59.98440405,61b8f3437b89212fae0dfade
2,15.3276,space,13.7598,0,309,309,304,1,,,6145135f01ab17bf41e67820,643772c612d6487bae548b12,2023-04-13_04h21.09.025,PRaM,2021.2.3,Win32,59.98440405,61b8f3437b89212fae0dfade
1,2.8588,space,1.3066,0,310,310,90,1,,,6145135f01ab17bf41e67820,643772c612d6487bae548b12,2023-04-13_04h21.09.025,PRaM,2021.2.3,Win32,59.98440405,61b8f3437b89212fae0dfade
1,1.2411,space,0.1194,0,311,311,266,1,,,6145135f01ab17bf41e67820,643772c612d6487bae548b12,2023-04-13_04h21.09.025,PRaM,2021.2.3,Win32,59.98440405,61b8f3437b89212fae0dfade
1,1.6909,space,0.2756,0,312,312,329,1,,,6145135f01ab17bf41e67820,643772c612d6487bae548b12,2023-04-13_04h21.09.025,PRaM,2021.2.3,Win32,59.98440405,61b8f3437b89212fae0dfade
2,4.4554,space,3.1358,0,313,313,288,1,,,6145135f01ab17bf41e67820,643772c612d6487bae548b12,2023-04-13_04h21.09.025,PRaM,2021.2.3,Win32,59.98440405,61b8f3437b89212fae0dfade
3,2.8032,space,1.3341,0,314,314,4,1,,,6145135f01ab17bf41e67820,643772c612d6487bae548b12,2023-04-13_04h21.09.025,PRaM,2021.2.3,Win32,59.98440405,61b8f3437b89212fae0dfade
2,3.9469,space,2.4577,0,315,315,348,1,,,6145135f01ab17bf41e67820,643772c612d6487bae548b12,2023-04-13_04h21.09.025,PRaM,2021.2.3,Win32,59.98440405,61b8f3437b89212fae0dfade
1,2.4888,space,0.8671,0,316,316,199,1,,,6145135f01ab17bf41e67820,643772c612d6487bae548b12,2023-04-13_04h21.09.025,PRaM,2021.2.3,Win32,59.98440405,61b8f3437b89212fae0dfade
1,1.3768,space,2.3052,0,317,317,354,1,,,6145135f01ab17bf41e67820,643772c612d6487bae548b12,2023-04-13_04h21.09.025,PRaM,2021.2.3,Win32,59.98440405,61b8f3437b89212fae0dfade
5,4.0571,space,2.5731,0,318,318,325,1,,,6145135f01ab17bf41e67820,643772c612d6487bae548b12,2023-04-13_04h21.09.025,PRaM,2021.2.3,Win32,59.98440405,61b8f3437b89212fae0dfade
1,2.4586,space,1.103,0,319,319,264,1,,,6145135f01ab17bf41e67820,643772c612d6487bae548b12,2023-04-13_04h21.09.025,PRaM,2021.2.3,Win32,59.98440405,61b8f3437b89212fae0dfade
4,4.2828,space,2.7558,0,320,320,180,1,,,6145135f01ab17bf41e67820,643772c612d6487bae548b12,2023-04-13_04h21.09.025,PRaM,2021.2.3,Win32,59.98440405,61b8f3437b89212fae0dfade
1,3.2913,space,1.7356,0,321,321,256,1,,,6145135f01ab17bf41e67820,643772c612d6487bae548b12,2023-04-13_04h21.09.025,PRaM,2021.2.3,Win32,59.98440405,61b8f3437b89212fae0dfade
1,17.3978,space,15.7695,0,322,322,128,1,,,6145135f01ab17bf41e67820,643772c612d6487bae548b12,2023-04-13_04h21.09.025,PRaM,2021.2.3,Win32,59.98440405,61b8f3437b89212fae0dfade
1,2.0331,space,0.4348,0,323,323,220,1,,,6145135f01ab17bf41e67820,643772c612d6487bae548b12,2023-04-13_04h21.09.025,PRaM,2021.2.3,Win32,59.98440405,61b8f3437b89212fae0dfade
2,4.6559,space,3.1786,0,324,324,326,1,,,6145135f01ab17bf41e67820,643772c612d6487bae548b12,2023-04-13_04h21.09.025,PRaM,2021.2.3,Win32,59.98440405,61b8f3437b89212fae0dfade
1,1.4962,space,0.5857,0,325,325,68,1,,,6145135f01ab17bf41e67820,643772c612d6487bae548b12,2023-04-13_04h21.09.025,PRaM,2021.2.3,Win32,59.98440405,61b8f3437b89212fae0dfade
1,1.3889,space,0.729,0,326,326,198,1,,,6145135f01ab17bf41e67820,643772c612d6487bae548b12,2023-04-13_04h21.09.025,PRaM,2021.2.3,Win32,59.98440405,61b8f3437b89212fae0dfade
1,8.7035,space,7.3191,0,327,327,50,1,,,6145135f01ab17bf41e67820,643772c612d6487bae548b12,2023-04-13_04h21.09.025,PRaM,2021.2.3,Win32,59.98440405,61b8f3437b89212fae0dfade
3,4.281,space,2.8213,0,328,328,352,1,,,6145135f01ab17bf41e67820,643772c612d6487bae548b12,2023-04-13_04h21.09.025,PRaM,2021.2.3,Win32,59.98440405,61b8f3437b89212fae0dfade
1,1.7086,space,0.1437,0,329,329,300,1,,,6145135f01ab17bf41e67820,643772c612d6487bae548b12,2023-04-13_04h21.09.025,PRaM,2021.2.3,Win32,59.98440405,61b8f3437b89212fae0dfade
1,1.6069,space,0.2371,0,330,330,179,1,,,6145135f01ab17bf41e67820,643772c612d6487bae548b12,2023-04-13_04h21.09.025,PRaM,2021.2.3,Win32,59.98440405,61b8f3437b89212fae0dfade
1,2.1718,space,0.7177,0,331,331,78,1,,,6145135f01ab17bf41e67820,643772c612d6487bae548b12,2023-04-13_04h21.09.025,PRaM,2021.2.3,Win32,59.98440405,61b8f3437b89212fae0dfade
1,2.9567,space,1.4521,0,332,332,2,1,,,6145135f01ab17bf41e67820,643772c612d6487bae548b12,2023-04-13_04h21.09.025,PRaM,2021.2.3,Win32,59.98440405,61b8f3437b89212fae0dfade
1,3.0144,space,1.4368,0,333,333,104,1,,,6145135f01ab17bf41e67820,643772c612d6487bae548b12,2023-04-13_04h21.09.025,PRaM,2021.2.3,Win32,59.98440405,61b8f3437b89212fae0dfade
1,1.5494,space,0.5631,0,334,334,368,1,,,6145135f01ab17bf41e67820,643772c612d6487bae548b12,2023-04-13_04h21.09.025,PRaM,2021.2.3,Win32,59.98440405,61b8f3437b89212fae0dfade
1,1.6472,space,0.0861,0,335,335,172,1,,,6145135f01ab17bf41e67820,643772c612d6487bae548b12,2023-04-13_04h21.09.025,PRaM,2021.2.3,Win32,59.98440405,61b8f3437b89212fae0dfade
1,1.5386,space,0.3057,0,336,336,340,1,,,6145135f01ab17bf41e67820,643772c612d6487bae548b12,2023-04-13_04h21.09.025,PRaM,2021.2.3,Win32,59.98440405,61b8f3437b89212fae0dfade
1,1.3381,space,0.4357,0,337,337,145,1,,,6145135f01ab17bf41e67820,643772c612d6487bae548b12,2023-04-13_04h21.09.025,PRaM,2021.2.3,Win32,59.98440405,61b8f3437b89212fae0dfade
2,3.6643,space,2.0686,0,338,338,19,1,,,6145135f01ab17bf41e67820,643772c612d6487bae548b12,2023-04-13_04h21.09.025,PRaM,2021.2.3,Win32,59.98440405,61b8f3437b89212fae0dfade
1,1.6069,space,2.0677,0,339,339,101,1,,,6145135f01ab17bf41e67820,643772c612d6487bae548b12,2023-04-13_04h21.09.025,PRaM,2021.2.3,Win32,59.98440405,61b8f3437b89212fae0dfade
1,1.3434,space,0.3845,0,340,340,184,1,,,6145135f01ab17bf41e67820,643772c612d6487bae548b12,2023-04-13_04h21.09.025,PRaM,2021.2.3,Win32,59.98440405,61b8f3437b89212fae0dfade
2,1.9885,space,0.7684,0,341,341,291,1,,,6145135f01ab17bf41e67820,643772c612d6487bae548b12,2023-04-13_04h21.09.025,PRaM,2021.2.3,Win32,59.98440405,61b8f3437b89212fae0dfade
1,5.2691,space,3.7926,0,342,342,315,1,,,6145135f01ab17bf41e67820,643772c612d6487bae548b12,2023-04-13_04h21.09.025,PRaM,2021.2.3,Win32,59.98440405,61b8f3437b89212fae0dfade
5,2.8721,space,1.2754,0,343,343,17,1,,,6145135f01ab17bf41e67820,643772c612d6487bae548b12,2023-04-13_04h21.09.025,PRaM,2021.2.3,Win32,59.98440405,61b8f3437b89212fae0dfade
1,2.7966,space,1.428,0,344,344,219,1,,,6145135f01ab17bf41e67820,643772c612d6487bae548b12,2023-04-13_04h21.09.025,PRaM,2021.2.3,Win32,59.98440405,61b8f3437b89212fae0dfade
1,3.8883,space,2.5203,0,345,345,295,1,,,6145135f01ab17bf41e67820,643772c612d6487bae548b12,2023-04-13_04h21.09.025,PRaM,2021.2.3,Win32,59.98440405,61b8f3437b89212fae0dfade
1,1.6558,space,0.4025,0,346,346,187,1,,,6145135f01ab17bf41e67820,643772c612d6487bae548b12,2023-04-13_04h21.09.025,PRaM,2021.2.3,Win32,59.98440405,61b8f3437b89212fae0dfade
1,1.5383,space,0.1078,0,347,347,133,1,,,6145135f01ab17bf41e67820,643772c612d6487bae548b12,2023-04-13_04h21.09.025,PRaM,2021.2.3,Win32,59.98440405,61b8f3437b89212fae0dfade
1,1.4457,space,0.4389,0,348,348,257,1,,,6145135f01ab17bf41e67820,643772c612d6487bae548b12,2023-04-13_04h21.09.025,PRaM,2021.2.3,Win32,59.98440405,61b8f3437b89212fae0dfade
1,1.4625,space,0.9016,0,349,349,65,1,,,6145135f01ab17bf41e67820,643772c612d6487bae548b12,2023-04-13_04h21.09.025,PRaM,2021.2.3,Win32,59.98440405,61b8f3437b89212fae0dfade
1,1.4142,space,0.2014,0,350,350,341,1,,,6145135f01ab17bf41e67820,643772c612d6487bae548b12,2023-04-13_04h21.09.025,PRaM,2021.2.3,Win32,59.98440405,61b8f3437b89212fae0dfade
1,1.5412,space,0.0027,0,351,351,284,1,,,6145135f01ab17bf41e67820,643772c612d6487bae548b12,2023-04-13_04h21.09.025,PRaM,2021.2.3,Win32,59.98440405,61b8f3437b89212fae0dfade
1,1.8221,space,0.6179,0,352,352,366,1,,,6145135f01ab17bf41e67820,643772c612d6487bae548b12,2023-04-13_04h21.09.025,PRaM,2021.2.3,Win32,59.98440405,61b8f3437b89212fae0dfade
1,2.0884,space,0.5054,0,353,353,333,1,,,6145135f01ab17bf41e67820,643772c612d6487bae548b12,2023-04-13_04h21.09.025,PRaM,2021.2.3,Win32,59.98440405,61b8f3437b89212fae0dfade
3,3.4474,space,1.8747,0,354,354,102,1,,,6145135f01ab17bf41e67820,643772c612d6487bae548b12,2023-04-13_04h21.09.025,PRaM,2021.2.3,Win32,59.98440405,61b8f3437b89212fae0dfade
2,2.5658,space,0.9539,0,355,355,213,1,,,6145135f01ab17bf41e67820,643772c612d6487bae548b12,2023-04-13_04h21.09.025,PRaM,2021.2.3,Win32,59.98440405,61b8f3437b89212fae0dfade
1,1.6889,space,0.0696,0,356,356,39,1,,,6145135f01ab17bf41e67820,643772c612d6487bae548b12,2023-04-13_04h21.09.025,PRaM,2021.2.3,Win32,59.98440405,61b8f3437b89212fae0dfade
1,1.5557,space,0.6351,0,357,357,92,1,,,6145135f01ab17bf41e67820,643772c612d6487bae548b12,2023-04-13_04h21.09.025,PRaM,2021.2.3,Win32,59.98440405,61b8f3437b89212fae0dfade
3,3.9143,space,2.2778,0,358,358,207,1,,,6145135f01ab17bf41e67820,643772c612d6487bae548b12,2023-04-13_04h21.09.025,PRaM,2021.2.3,Win32,59.98440405,61b8f3437b89212fae0dfade
1,2.2449,space,0.6501,0,359,359,245,1,,,6145135f01ab17bf41e67820,643772c612d6487bae548b12,2023-04-13_04h21.09.025,PRaM,2021.2.3,Win32,59.98440405,61b8f3437b89212fae0dfade
1,3.8049,space,2.1393,0,360,360,63,1,,,6145135f01ab17bf41e67820,643772c612d6487bae548b12,2023-04-13_04h21.09.025,PRaM,2021.2.3,Win32,59.98440405,61b8f3437b89212fae0dfade
1,2.5023,space,0.8281,0,361,361,21,1,,,6145135f01ab17bf41e67820,643772c612d6487bae548b12,2023-04-13_04h21.09.025,PRaM,2021.2.3,Win32,59.98440405,61b8f3437b89212fae0dfade
1,1.457,space,0.6536,0,362,362,143,1,,,6145135f01ab17bf41e67820,643772c612d6487bae548b12,2023-04-13_04h21.09.025,PRaM,2021.2.3,Win32,59.98440405,61b8f3437b89212fae0dfade
1,1.6552,space,0.1684,0,363,363,162,1,,,6145135f01ab17bf41e67820,643772c612d6487bae548b12,2023-04-13_04h21.09.025,PRaM,2021.2.3,Win32,59.98440405,61b8f3437b89212fae0dfade
2,5.1974,space,3.6067,0,364,364,22,1,,,6145135f01ab17bf41e67820,643772c612d6487bae548b12,2023-04-13_04h21.09.025,PRaM,2021.2.3,Win32,59.98440405,61b8f3437b89212fae0dfade
1,2.4818,space,0.8703,0,365,365,34,1,,,6145135f01ab17bf41e67820,643772c612d6487bae548b12,2023-04-13_04h21.09.025,PRaM,2021.2.3,Win32,59.98440405,61b8f3437b89212fae0dfade
1,7.1984,space,5.7528,0,366,366,278,1,,,6145135f01ab17bf41e67820,643772c612d6487bae548b12,2023-04-13_04h21.09.025,PRaM,2021.2.3,Win32,59.98440405,61b8f3437b89212fae0dfade
1,9.515,space,7.8845,0,367,367,373,1,,,6145135f01ab17bf41e67820,643772c612d6487bae548b12,2023-04-13_04h21.09.025,PRaM,2021.2.3,Win32,59.98440405,61b8f3437b89212fae0dfade
1,8.9547,space,7.5696,0,368,368,165,1,,,6145135f01ab17bf41e67820,643772c612d6487bae548b12,2023-04-13_04h21.09.025,PRaM,2021.2.3,Win32,59.98440405,61b8f3437b89212fae0dfade
1,1.5125,space,0.8028,0,369,369,270,1,,,6145135f01ab17bf41e67820,643772c612d6487bae548b12,2023-04-13_04h21.09.025,PRaM,2021.2.3,Win32,59.98440405,61b8f3437b89212fae0dfade
1,1.7982,space,0.321,0,370,370,178,1,,,6145135f01ab17bf41e67820,643772c612d6487bae548b12,2023-04-13_04h21.09.025,PRaM,2021.2.3,Win32,59.98440405,61b8f3437b89212fae0dfade
1,1.7908,space,0.1711,0,371,371,49,1,,,6145135f01ab17bf41e67820,643772c612d6487bae548b12,2023-04-13_04h21.09.025,PRaM,2021.2.3,Win32,59.98440405,61b8f3437b89212fae0dfade
3,3.7303,space,2.1522,0,372,372,168,1,,,6145135f01ab17bf41e67820,643772c612d6487bae548b12,2023-04-13_04h21.09.025,PRaM,2021.2.3,Win32,59.98440405,61b8f3437b89212fae0dfade
1,2.1059,space,0.5399,0,373,373,194,1,,,6145135f01ab17bf41e67820,643772c612d6487bae548b12,2023-04-13_04h21.09.025,PRaM,2021.2.3,Win32,59.98440405,61b8f3437b89212fae0dfade
4,2.5387,space,0.9742,0,374,374,301,1,,,6145135f01ab17bf41e67820,643772c612d6487bae548b12,2023-04-13_04h21.09.025,PRaM,2021.2.3,Win32,59.98440405,61b8f3437b89212fae0dfade
2,2.6113,space,0.9824,0,375,375,148,1,,,6145135f01ab17bf41e67820,643772c612d6487bae548b12,2023-04-13_04h21.09.025,PRaM,2021.2.3,Win32,59.98440405,61b8f3437b89212fae0dfade
1,1.7556,space,0.1457,0,376,376,28,1,,,6145135f01ab17bf41e67820,643772c612d6487bae548b12,2023-04-13_04h21.09.025,PRaM,2021.2.3,Win32,59.98440405,61b8f3437b89212fae0dfade
1,1.6389,space,0.2089,0,377,377,331,1,,,6145135f01ab17bf41e67820,643772c612d6487bae548b12,2023-04-13_04h21.09.025,PRaM,2021.2.3,Win32,59.98440405,61b8f3437b89212fae0dfade
