Rating.response,Rating.rt,EndTrial.keys,EndTrial.rt,trials.thisRepN,trials.thisTrialN,trials.thisN,trials.thisIndex,trials.ran,Pos1,Pos2,participant,session,date,expName,psychopyVersion,OS,frameRate,study_id
6,10.6684,space,12.4532,0,0,0,127,1,,,61509f0576598bbf74387211,64377358caa49780824f2e27,2023-04-12_22h15.21.284,PRaM,2021.2.3,Win32,145.5815985,61b8f3437b89212fae0dfadf
4,3.1084,space,1.3843,0,1,1,90,1,,,61509f0576598bbf74387211,64377358caa49780824f2e27,2023-04-12_22h15.21.284,PRaM,2021.2.3,Win32,145.5815985,61b8f3437b89212fae0dfadf
1,2.9659,space,1.2007,0,2,2,65,1,,,61509f0576598bbf74387211,64377358caa49780824f2e27,2023-04-12_22h15.21.284,PRaM,2021.2.3,Win32,145.5815985,61b8f3437b89212fae0dfadf
5,3.2924,space,1.5256,0,3,3,173,1,,,61509f0576598bbf74387211,64377358caa49780824f2e27,2023-04-12_22h15.21.284,PRaM,2021.2.3,Win32,145.5815985,61b8f3437b89212fae0dfadf
7,2.7985,space,0.9158,0,4,4,74,1,,,61509f0576598bbf74387211,64377358caa49780824f2e27,2023-04-12_22h15.21.284,PRaM,2021.2.3,Win32,145.5815985,61b8f3437b89212fae0dfadf
2,2.3492,space,0.553,0,5,5,36,1,,,61509f0576598bbf74387211,64377358caa49780824f2e27,2023-04-12_22h15.21.284,PRaM,2021.2.3,Win32,145.5815985,61b8f3437b89212fae0dfadf
4,3.1926,space,1.2302,0,6,6,37,1,,,61509f0576598bbf74387211,64377358caa49780824f2e27,2023-04-12_22h15.21.284,PRaM,2021.2.3,Win32,145.5815985,61b8f3437b89212fae0dfadf
,,space,0.3003,0,7,7,129,1,,,61509f0576598bbf74387211,64377358caa49780824f2e27,2023-04-12_22h15.21.284,PRaM,2021.2.3,Win32,145.5815985,61b8f3437b89212fae0dfadf
4,3.445,space,1.7039,0,8,8,201,1,,,61509f0576598bbf74387211,64377358caa49780824f2e27,2023-04-12_22h15.21.284,PRaM,2021.2.3,Win32,145.5815985,61b8f3437b89212fae0dfadf
1,2.1188,space,0.3611,0,9,9,243,1,,,61509f0576598bbf74387211,64377358caa49780824f2e27,2023-04-12_22h15.21.284,PRaM,2021.2.3,Win32,145.5815985,61b8f3437b89212fae0dfadf
3,3.3771,space,1.6114,0,10,10,257,1,,,61509f0576598bbf74387211,64377358caa49780824f2e27,2023-04-12_22h15.21.284,PRaM,2021.2.3,Win32,145.5815985,61b8f3437b89212fae0dfadf
1,2.0587,space,0.1419,0,11,11,289,1,,,61509f0576598bbf74387211,64377358caa49780824f2e27,2023-04-12_22h15.21.284,PRaM,2021.2.3,Win32,145.5815985,61b8f3437b89212fae0dfadf
1,1.8551,space,1.7473,0,12,12,167,1,,,61509f0576598bbf74387211,64377358caa49780824f2e27,2023-04-12_22h15.21.284,PRaM,2021.2.3,Win32,145.5815985,61b8f3437b89212fae0dfadf
1,2.5624,space,0.8575,0,13,13,67,1,,,61509f0576598bbf74387211,64377358caa49780824f2e27,2023-04-12_22h15.21.284,PRaM,2021.2.3,Win32,145.5815985,61b8f3437b89212fae0dfadf
3,3.0466,space,1.3024,0,14,14,157,1,,,61509f0576598bbf74387211,64377358caa49780824f2e27,2023-04-12_22h15.21.284,PRaM,2021.2.3,Win32,145.5815985,61b8f3437b89212fae0dfadf
1,2.8822,space,1.1642,0,15,15,248,1,,,61509f0576598bbf74387211,64377358caa49780824f2e27,2023-04-12_22h15.21.284,PRaM,2021.2.3,Win32,145.5815985,61b8f3437b89212fae0dfadf
6,2.7431,space,0.9193,0,16,16,280,1,,,61509f0576598bbf74387211,64377358caa49780824f2e27,2023-04-12_22h15.21.284,PRaM,2021.2.3,Win32,145.5815985,61b8f3437b89212fae0dfadf
5,2.8539,space,0.9747,0,17,17,202,1,,,61509f0576598bbf74387211,64377358caa49780824f2e27,2023-04-12_22h15.21.284,PRaM,2021.2.3,Win32,145.5815985,61b8f3437b89212fae0dfadf
1,1.8839,space,0.1744,0,18,18,313,1,,,61509f0576598bbf74387211,64377358caa49780824f2e27,2023-04-12_22h15.21.284,PRaM,2021.2.3,Win32,145.5815985,61b8f3437b89212fae0dfadf
,,space,0.368,0,19,19,96,1,,,61509f0576598bbf74387211,64377358caa49780824f2e27,2023-04-12_22h15.21.284,PRaM,2021.2.3,Win32,145.5815985,61b8f3437b89212fae0dfadf
7,4.6165,space,2.912,0,20,20,7,1,,,61509f0576598bbf74387211,64377358caa49780824f2e27,2023-04-12_22h15.21.284,PRaM,2021.2.3,Win32,145.5815985,61b8f3437b89212fae0dfadf
2,2.9161,space,1.2941,0,21,21,286,1,,,61509f0576598bbf74387211,64377358caa49780824f2e27,2023-04-12_22h15.21.284,PRaM,2021.2.3,Win32,145.5815985,61b8f3437b89212fae0dfadf
7,3.0765,space,1.3546,0,22,22,239,1,,,61509f0576598bbf74387211,64377358caa49780824f2e27,2023-04-12_22h15.21.284,PRaM,2021.2.3,Win32,145.5815985,61b8f3437b89212fae0dfadf
6,2.6669,space,0.8261,0,23,23,6,1,,,61509f0576598bbf74387211,64377358caa49780824f2e27,2023-04-12_22h15.21.284,PRaM,2021.2.3,Win32,145.5815985,61b8f3437b89212fae0dfadf
2,2.5704,space,0.7324,0,24,24,155,1,,,61509f0576598bbf74387211,64377358caa49780824f2e27,2023-04-12_22h15.21.284,PRaM,2021.2.3,Win32,145.5815985,61b8f3437b89212fae0dfadf
6,2.1884,space,0.4871,0,25,25,46,1,,,61509f0576598bbf74387211,64377358caa49780824f2e27,2023-04-12_22h15.21.284,PRaM,2021.2.3,Win32,145.5815985,61b8f3437b89212fae0dfadf
6,2.5326,space,0.7315,0,26,26,120,1,,,61509f0576598bbf74387211,64377358caa49780824f2e27,2023-04-12_22h15.21.284,PRaM,2021.2.3,Win32,145.5815985,61b8f3437b89212fae0dfadf
2,2.0036,space,0.2645,0,27,27,10,1,,,61509f0576598bbf74387211,64377358caa49780824f2e27,2023-04-12_22h15.21.284,PRaM,2021.2.3,Win32,145.5815985,61b8f3437b89212fae0dfadf
8,4.7575,space,3.0442,0,28,28,209,1,,,61509f0576598bbf74387211,64377358caa49780824f2e27,2023-04-12_22h15.21.284,PRaM,2021.2.3,Win32,145.5815985,61b8f3437b89212fae0dfadf
2,2.8304,space,1.1106,0,29,29,295,1,,,61509f0576598bbf74387211,64377358caa49780824f2e27,2023-04-12_22h15.21.284,PRaM,2021.2.3,Win32,145.5815985,61b8f3437b89212fae0dfadf
1,2.6673,space,0.9273,0,30,30,63,1,,,61509f0576598bbf74387211,64377358caa49780824f2e27,2023-04-12_22h15.21.284,PRaM,2021.2.3,Win32,145.5815985,61b8f3437b89212fae0dfadf
2,5.7624,space,4.0108,0,31,31,238,1,,,61509f0576598bbf74387211,64377358caa49780824f2e27,2023-04-12_22h15.21.284,PRaM,2021.2.3,Win32,145.5815985,61b8f3437b89212fae0dfadf
1,2.1208,space,0.4374,0,32,32,262,1,,,61509f0576598bbf74387211,64377358caa49780824f2e27,2023-04-12_22h15.21.284,PRaM,2021.2.3,Win32,145.5815985,61b8f3437b89212fae0dfadf
2,1.6721,space,2.5622,0,33,33,181,1,,,61509f0576598bbf74387211,64377358caa49780824f2e27,2023-04-12_22h15.21.284,PRaM,2021.2.3,Win32,145.5815985,61b8f3437b89212fae0dfadf
1,2.3128,space,0.5698,0,34,34,303,1,,,61509f0576598bbf74387211,64377358caa49780824f2e27,2023-04-12_22h15.21.284,PRaM,2021.2.3,Win32,145.5815985,61b8f3437b89212fae0dfadf
1,8.7514,space,7.0238,0,35,35,172,1,,,61509f0576598bbf74387211,64377358caa49780824f2e27,2023-04-12_22h15.21.284,PRaM,2021.2.3,Win32,145.5815985,61b8f3437b89212fae0dfadf
1,2.5901,space,0.8425,0,36,36,317,1,,,61509f0576598bbf74387211,64377358caa49780824f2e27,2023-04-12_22h15.21.284,PRaM,2021.2.3,Win32,145.5815985,61b8f3437b89212fae0dfadf
1,2.1672,space,0.4268,0,37,37,31,1,,,61509f0576598bbf74387211,64377358caa49780824f2e27,2023-04-12_22h15.21.284,PRaM,2021.2.3,Win32,145.5815985,61b8f3437b89212fae0dfadf
1,1.8061,space,0.0489,0,38,38,210,1,,,61509f0576598bbf74387211,64377358caa49780824f2e27,2023-04-12_22h15.21.284,PRaM,2021.2.3,Win32,145.5815985,61b8f3437b89212fae0dfadf
7,2.1468,space,0.4374,0,39,39,207,1,,,61509f0576598bbf74387211,64377358caa49780824f2e27,2023-04-12_22h15.21.284,PRaM,2021.2.3,Win32,145.5815985,61b8f3437b89212fae0dfadf
8,2.5416,space,0.8543,0,40,40,154,1,,,61509f0576598bbf74387211,64377358caa49780824f2e27,2023-04-12_22h15.21.284,PRaM,2021.2.3,Win32,145.5815985,61b8f3437b89212fae0dfadf
6,2.7964,space,0.9389,0,41,41,25,1,,,61509f0576598bbf74387211,64377358caa49780824f2e27,2023-04-12_22h15.21.284,PRaM,2021.2.3,Win32,145.5815985,61b8f3437b89212fae0dfadf
7,2.5789,space,0.7323,0,42,42,244,1,,,61509f0576598bbf74387211,64377358caa49780824f2e27,2023-04-12_22h15.21.284,PRaM,2021.2.3,Win32,145.5815985,61b8f3437b89212fae0dfadf
5,1.7999,space,1.1937,0,43,43,26,1,,,61509f0576598bbf74387211,64377358caa49780824f2e27,2023-04-12_22h15.21.284,PRaM,2021.2.3,Win32,145.5815985,61b8f3437b89212fae0dfadf
5,2.8584,space,1.181,0,44,44,362,1,,,61509f0576598bbf74387211,64377358caa49780824f2e27,2023-04-12_22h15.21.284,PRaM,2021.2.3,Win32,145.5815985,61b8f3437b89212fae0dfadf
8,2.2714,space,0.431,0,45,45,16,1,,,61509f0576598bbf74387211,64377358caa49780824f2e27,2023-04-12_22h15.21.284,PRaM,2021.2.3,Win32,145.5815985,61b8f3437b89212fae0dfadf
2,2.5961,space,0.8091,0,46,46,237,1,,,61509f0576598bbf74387211,64377358caa49780824f2e27,2023-04-12_22h15.21.284,PRaM,2021.2.3,Win32,145.5815985,61b8f3437b89212fae0dfadf
5,2.7358,space,0.9888,0,47,47,314,1,,,61509f0576598bbf74387211,64377358caa49780824f2e27,2023-04-12_22h15.21.284,PRaM,2021.2.3,Win32,145.5815985,61b8f3437b89212fae0dfadf
3,2.3341,space,0.6319,0,48,48,57,1,,,61509f0576598bbf74387211,64377358caa49780824f2e27,2023-04-12_22h15.21.284,PRaM,2021.2.3,Win32,145.5815985,61b8f3437b89212fae0dfadf
2,1.7044,space,1.1347,0,49,49,253,1,,,61509f0576598bbf74387211,64377358caa49780824f2e27,2023-04-12_22h15.21.284,PRaM,2021.2.3,Win32,145.5815985,61b8f3437b89212fae0dfadf
2,3.6012,space,1.8604,0,50,50,240,1,,,61509f0576598bbf74387211,64377358caa49780824f2e27,2023-04-12_22h15.21.284,PRaM,2021.2.3,Win32,145.5815985,61b8f3437b89212fae0dfadf
8,2.4816,space,0.7421,0,51,51,102,1,,,61509f0576598bbf74387211,64377358caa49780824f2e27,2023-04-12_22h15.21.284,PRaM,2021.2.3,Win32,145.5815985,61b8f3437b89212fae0dfadf
6,2.6766,space,0.9581,0,52,52,340,1,,,61509f0576598bbf74387211,64377358caa49780824f2e27,2023-04-12_22h15.21.284,PRaM,2021.2.3,Win32,145.5815985,61b8f3437b89212fae0dfadf
1,2.8488,space,1.1199,0,53,53,312,1,,,61509f0576598bbf74387211,64377358caa49780824f2e27,2023-04-12_22h15.21.284,PRaM,2021.2.3,Win32,145.5815985,61b8f3437b89212fae0dfadf
1,1.9362,space,0.2439,0,54,54,215,1,,,61509f0576598bbf74387211,64377358caa49780824f2e27,2023-04-12_22h15.21.284,PRaM,2021.2.3,Win32,145.5815985,61b8f3437b89212fae0dfadf
3,1.9592,space,0.2526,0,55,55,273,1,,,61509f0576598bbf74387211,64377358caa49780824f2e27,2023-04-12_22h15.21.284,PRaM,2021.2.3,Win32,145.5815985,61b8f3437b89212fae0dfadf
5,2.8243,space,1.1038,0,56,56,371,1,,,61509f0576598bbf74387211,64377358caa49780824f2e27,2023-04-12_22h15.21.284,PRaM,2021.2.3,Win32,145.5815985,61b8f3437b89212fae0dfadf
7,2.1739,space,0.4651,0,57,57,298,1,,,61509f0576598bbf74387211,64377358caa49780824f2e27,2023-04-12_22h15.21.284,PRaM,2021.2.3,Win32,145.5815985,61b8f3437b89212fae0dfadf
2,2.66,space,0.9295,0,58,58,360,1,,,61509f0576598bbf74387211,64377358caa49780824f2e27,2023-04-12_22h15.21.284,PRaM,2021.2.3,Win32,145.5815985,61b8f3437b89212fae0dfadf
2,2.3615,space,0.5079,0,59,59,98,1,,,61509f0576598bbf74387211,64377358caa49780824f2e27,2023-04-12_22h15.21.284,PRaM,2021.2.3,Win32,145.5815985,61b8f3437b89212fae0dfadf
6,2.1185,space,0.3264,0,60,60,285,1,,,61509f0576598bbf74387211,64377358caa49780824f2e27,2023-04-12_22h15.21.284,PRaM,2021.2.3,Win32,145.5815985,61b8f3437b89212fae0dfadf
2,2.0909,space,0.1885,0,61,61,342,1,,,61509f0576598bbf74387211,64377358caa49780824f2e27,2023-04-12_22h15.21.284,PRaM,2021.2.3,Win32,145.5815985,61b8f3437b89212fae0dfadf
1,1.8072,space,0.8388,0,62,62,283,1,,,61509f0576598bbf74387211,64377358caa49780824f2e27,2023-04-12_22h15.21.284,PRaM,2021.2.3,Win32,145.5815985,61b8f3437b89212fae0dfadf
6,4.1378,space,2.3882,0,63,63,151,1,,,61509f0576598bbf74387211,64377358caa49780824f2e27,2023-04-12_22h15.21.284,PRaM,2021.2.3,Win32,145.5815985,61b8f3437b89212fae0dfadf
2,2.3293,space,0.5834,0,64,64,284,1,,,61509f0576598bbf74387211,64377358caa49780824f2e27,2023-04-12_22h15.21.284,PRaM,2021.2.3,Win32,145.5815985,61b8f3437b89212fae0dfadf
7,2.3799,space,0.6633,0,65,65,20,1,,,61509f0576598bbf74387211,64377358caa49780824f2e27,2023-04-12_22h15.21.284,PRaM,2021.2.3,Win32,145.5815985,61b8f3437b89212fae0dfadf
8,2.3447,space,0.4931,0,66,66,264,1,,,61509f0576598bbf74387211,64377358caa49780824f2e27,2023-04-12_22h15.21.284,PRaM,2021.2.3,Win32,145.5815985,61b8f3437b89212fae0dfadf
8,3.1642,space,1.2285,0,67,67,351,1,,,61509f0576598bbf74387211,64377358caa49780824f2e27,2023-04-12_22h15.21.284,PRaM,2021.2.3,Win32,145.5815985,61b8f3437b89212fae0dfadf
2,1.9043,space,0.4612,0,68,68,359,1,,,61509f0576598bbf74387211,64377358caa49780824f2e27,2023-04-12_22h15.21.284,PRaM,2021.2.3,Win32,145.5815985,61b8f3437b89212fae0dfadf
8,1.6339,space,0.4445,0,69,69,196,1,,,61509f0576598bbf74387211,64377358caa49780824f2e27,2023-04-12_22h15.21.284,PRaM,2021.2.3,Win32,145.5815985,61b8f3437b89212fae0dfadf
2,1.8755,space,0.0382,0,70,70,79,1,,,61509f0576598bbf74387211,64377358caa49780824f2e27,2023-04-12_22h15.21.284,PRaM,2021.2.3,Win32,145.5815985,61b8f3437b89212fae0dfadf
1,2.1124,space,0.2729,0,71,71,234,1,,,61509f0576598bbf74387211,64377358caa49780824f2e27,2023-04-12_22h15.21.284,PRaM,2021.2.3,Win32,145.5815985,61b8f3437b89212fae0dfadf
8,2.2621,space,0.3611,0,72,72,297,1,,,61509f0576598bbf74387211,64377358caa49780824f2e27,2023-04-12_22h15.21.284,PRaM,2021.2.3,Win32,145.5815985,61b8f3437b89212fae0dfadf
2,2.4014,space,0.6776,0,73,73,227,1,,,61509f0576598bbf74387211,64377358caa49780824f2e27,2023-04-12_22h15.21.284,PRaM,2021.2.3,Win32,145.5815985,61b8f3437b89212fae0dfadf
8,2.4757,space,0.575,0,74,74,246,1,,,61509f0576598bbf74387211,64377358caa49780824f2e27,2023-04-12_22h15.21.284,PRaM,2021.2.3,Win32,145.5815985,61b8f3437b89212fae0dfadf
8,1.6893,space,0.4392,0,75,75,62,1,,,61509f0576598bbf74387211,64377358caa49780824f2e27,2023-04-12_22h15.21.284,PRaM,2021.2.3,Win32,145.5815985,61b8f3437b89212fae0dfadf
5,8.1284,space,6.2457,0,76,76,187,1,,,61509f0576598bbf74387211,64377358caa49780824f2e27,2023-04-12_22h15.21.284,PRaM,2021.2.3,Win32,145.5815985,61b8f3437b89212fae0dfadf
8,2.6834,space,0.759,0,77,77,186,1,,,61509f0576598bbf74387211,64377358caa49780824f2e27,2023-04-12_22h15.21.284,PRaM,2021.2.3,Win32,145.5815985,61b8f3437b89212fae0dfadf
2,3.472,space,1.5427,0,78,78,224,1,,,61509f0576598bbf74387211,64377358caa49780824f2e27,2023-04-12_22h15.21.284,PRaM,2021.2.3,Win32,145.5815985,61b8f3437b89212fae0dfadf
2,6.1781,space,4.2541,0,79,79,49,1,,,61509f0576598bbf74387211,64377358caa49780824f2e27,2023-04-12_22h15.21.284,PRaM,2021.2.3,Win32,145.5815985,61b8f3437b89212fae0dfadf
6,2.1986,space,0.4656,0,80,80,123,1,,,61509f0576598bbf74387211,64377358caa49780824f2e27,2023-04-12_22h15.21.284,PRaM,2021.2.3,Win32,145.5815985,61b8f3437b89212fae0dfadf
2,2.4257,space,0.7021,0,81,81,339,1,,,61509f0576598bbf74387211,64377358caa49780824f2e27,2023-04-12_22h15.21.284,PRaM,2021.2.3,Win32,145.5815985,61b8f3437b89212fae0dfadf
4,3.277,space,1.5478,0,82,82,141,1,,,61509f0576598bbf74387211,64377358caa49780824f2e27,2023-04-12_22h15.21.284,PRaM,2021.2.3,Win32,145.5815985,61b8f3437b89212fae0dfadf
5,1.5881,space,0.4168,0,83,83,146,1,,,61509f0576598bbf74387211,64377358caa49780824f2e27,2023-04-12_22h15.21.284,PRaM,2021.2.3,Win32,145.5815985,61b8f3437b89212fae0dfadf
6,2.818,space,0.9024,0,84,84,205,1,,,61509f0576598bbf74387211,64377358caa49780824f2e27,2023-04-12_22h15.21.284,PRaM,2021.2.3,Win32,145.5815985,61b8f3437b89212fae0dfadf
2,1.598,space,0.368,0,85,85,195,1,,,61509f0576598bbf74387211,64377358caa49780824f2e27,2023-04-12_22h15.21.284,PRaM,2021.2.3,Win32,145.5815985,61b8f3437b89212fae0dfadf
2,2.3995,space,0.6734,0,86,86,103,1,,,61509f0576598bbf74387211,64377358caa49780824f2e27,2023-04-12_22h15.21.284,PRaM,2021.2.3,Win32,145.5815985,61b8f3437b89212fae0dfadf
2,1.6276,space,0.2949,0,87,87,125,1,,,61509f0576598bbf74387211,64377358caa49780824f2e27,2023-04-12_22h15.21.284,PRaM,2021.2.3,Win32,145.5815985,61b8f3437b89212fae0dfadf
7,1.7442,space,0.028,0,88,88,249,1,,,61509f0576598bbf74387211,64377358caa49780824f2e27,2023-04-12_22h15.21.284,PRaM,2021.2.3,Win32,145.5815985,61b8f3437b89212fae0dfadf
,,space,0.1599,0,89,89,128,1,,,61509f0576598bbf74387211,64377358caa49780824f2e27,2023-04-12_22h15.21.284,PRaM,2021.2.3,Win32,145.5815985,61b8f3437b89212fae0dfadf
2,4.005,space,2.2621,0,90,90,231,1,,,61509f0576598bbf74387211,64377358caa49780824f2e27,2023-04-12_22h15.21.284,PRaM,2021.2.3,Win32,145.5815985,61b8f3437b89212fae0dfadf
2,1.3936,space,0.2154,0,91,91,247,1,,,61509f0576598bbf74387211,64377358caa49780824f2e27,2023-04-12_22h15.21.284,PRaM,2021.2.3,Win32,145.5815985,61b8f3437b89212fae0dfadf
2,1.6396,space,0.3194,0,92,92,333,1,,,61509f0576598bbf74387211,64377358caa49780824f2e27,2023-04-12_22h15.21.284,PRaM,2021.2.3,Win32,145.5815985,61b8f3437b89212fae0dfadf
2,1.0128,space,0.753,0,93,93,92,1,,,61509f0576598bbf74387211,64377358caa49780824f2e27,2023-04-12_22h15.21.284,PRaM,2021.2.3,Win32,145.5815985,61b8f3437b89212fae0dfadf
1,3.1234,space,1.395,0,94,94,203,1,,,61509f0576598bbf74387211,64377358caa49780824f2e27,2023-04-12_22h15.21.284,PRaM,2021.2.3,Win32,145.5815985,61b8f3437b89212fae0dfadf
7,2.0424,space,0.3144,0,95,95,43,1,,,61509f0576598bbf74387211,64377358caa49780824f2e27,2023-04-12_22h15.21.284,PRaM,2021.2.3,Win32,145.5815985,61b8f3437b89212fae0dfadf
5,1.7479,space,0.004,0,96,96,158,1,,,61509f0576598bbf74387211,64377358caa49780824f2e27,2023-04-12_22h15.21.284,PRaM,2021.2.3,Win32,145.5815985,61b8f3437b89212fae0dfadf
7,1.989,space,0.2552,0,97,97,150,1,,,61509f0576598bbf74387211,64377358caa49780824f2e27,2023-04-12_22h15.21.284,PRaM,2021.2.3,Win32,145.5815985,61b8f3437b89212fae0dfadf
2,1.7444,space,0.0502,0,98,98,122,1,,,61509f0576598bbf74387211,64377358caa49780824f2e27,2023-04-12_22h15.21.284,PRaM,2021.2.3,Win32,145.5815985,61b8f3437b89212fae0dfadf
9,3.0675,space,1.2771,0,99,99,134,1,,,61509f0576598bbf74387211,64377358caa49780824f2e27,2023-04-12_22h15.21.284,PRaM,2021.2.3,Win32,145.5815985,61b8f3437b89212fae0dfadf
8,3.922,space,2.1995,0,100,100,230,1,,,61509f0576598bbf74387211,64377358caa49780824f2e27,2023-04-12_22h15.21.284,PRaM,2021.2.3,Win32,145.5815985,61b8f3437b89212fae0dfadf
2,2.7303,space,1.0315,0,101,101,369,1,,,61509f0576598bbf74387211,64377358caa49780824f2e27,2023-04-12_22h15.21.284,PRaM,2021.2.3,Win32,145.5815985,61b8f3437b89212fae0dfadf
1,1.6816,space,0.3695,0,102,102,9,1,,,61509f0576598bbf74387211,64377358caa49780824f2e27,2023-04-12_22h15.21.284,PRaM,2021.2.3,Win32,145.5815985,61b8f3437b89212fae0dfadf
1,3.7475,space,1.9642,0,103,103,109,1,,,61509f0576598bbf74387211,64377358caa49780824f2e27,2023-04-12_22h15.21.284,PRaM,2021.2.3,Win32,145.5815985,61b8f3437b89212fae0dfadf
2,2.0419,space,0.3511,0,104,104,28,1,,,61509f0576598bbf74387211,64377358caa49780824f2e27,2023-04-12_22h15.21.284,PRaM,2021.2.3,Win32,145.5815985,61b8f3437b89212fae0dfadf
1,1.8285,space,0.1195,0,105,105,15,1,,,61509f0576598bbf74387211,64377358caa49780824f2e27,2023-04-12_22h15.21.284,PRaM,2021.2.3,Win32,145.5815985,61b8f3437b89212fae0dfadf
1,1.4345,space,0.1217,0,106,106,148,1,,,61509f0576598bbf74387211,64377358caa49780824f2e27,2023-04-12_22h15.21.284,PRaM,2021.2.3,Win32,145.5815985,61b8f3437b89212fae0dfadf
8,2.209,space,0.4859,0,107,107,331,1,,,61509f0576598bbf74387211,64377358caa49780824f2e27,2023-04-12_22h15.21.284,PRaM,2021.2.3,Win32,145.5815985,61b8f3437b89212fae0dfadf
2,1.7574,space,0.0558,0,108,108,236,1,,,61509f0576598bbf74387211,64377358caa49780824f2e27,2023-04-12_22h15.21.284,PRaM,2021.2.3,Win32,145.5815985,61b8f3437b89212fae0dfadf
9,2.6196,space,0.9023,0,109,109,64,1,,,61509f0576598bbf74387211,64377358caa49780824f2e27,2023-04-12_22h15.21.284,PRaM,2021.2.3,Win32,145.5815985,61b8f3437b89212fae0dfadf
8,1.351,space,0.0046,0,110,110,163,1,,,61509f0576598bbf74387211,64377358caa49780824f2e27,2023-04-12_22h15.21.284,PRaM,2021.2.3,Win32,145.5815985,61b8f3437b89212fae0dfadf
8,1.817,space,0.1107,0,111,111,75,1,,,61509f0576598bbf74387211,64377358caa49780824f2e27,2023-04-12_22h15.21.284,PRaM,2021.2.3,Win32,145.5815985,61b8f3437b89212fae0dfadf
8,2.7953,space,1.0702,0,112,112,182,1,,,61509f0576598bbf74387211,64377358caa49780824f2e27,2023-04-12_22h15.21.284,PRaM,2021.2.3,Win32,145.5815985,61b8f3437b89212fae0dfadf
8,1.855,space,0.1358,0,113,113,156,1,,,61509f0576598bbf74387211,64377358caa49780824f2e27,2023-04-12_22h15.21.284,PRaM,2021.2.3,Win32,145.5815985,61b8f3437b89212fae0dfadf
7,4.22,space,2.5056,0,114,114,143,1,,,61509f0576598bbf74387211,64377358caa49780824f2e27,2023-04-12_22h15.21.284,PRaM,2021.2.3,Win32,145.5815985,61b8f3437b89212fae0dfadf
7,1.0919,space,0.0905,0,115,115,361,1,,,61509f0576598bbf74387211,64377358caa49780824f2e27,2023-04-12_22h15.21.284,PRaM,2021.2.3,Win32,145.5815985,61b8f3437b89212fae0dfadf
6,1.5505,space,0.042,0,116,116,307,1,,,61509f0576598bbf74387211,64377358caa49780824f2e27,2023-04-12_22h15.21.284,PRaM,2021.2.3,Win32,145.5815985,61b8f3437b89212fae0dfadf
3,1.8551,space,0.1043,0,117,117,329,1,,,61509f0576598bbf74387211,64377358caa49780824f2e27,2023-04-12_22h15.21.284,PRaM,2021.2.3,Win32,145.5815985,61b8f3437b89212fae0dfadf
8,1.6793,space,0.628,0,118,118,213,1,,,61509f0576598bbf74387211,64377358caa49780824f2e27,2023-04-12_22h15.21.284,PRaM,2021.2.3,Win32,145.5815985,61b8f3437b89212fae0dfadf
7,3.4738,space,1.659,0,119,119,200,1,,,61509f0576598bbf74387211,64377358caa49780824f2e27,2023-04-12_22h15.21.284,PRaM,2021.2.3,Win32,145.5815985,61b8f3437b89212fae0dfadf
9,2.307,space,0.5971,0,120,120,301,1,,,61509f0576598bbf74387211,64377358caa49780824f2e27,2023-04-12_22h15.21.284,PRaM,2021.2.3,Win32,145.5815985,61b8f3437b89212fae0dfadf
4,1.5285,space,0.3681,0,121,121,164,1,,,61509f0576598bbf74387211,64377358caa49780824f2e27,2023-04-12_22h15.21.284,PRaM,2021.2.3,Win32,145.5815985,61b8f3437b89212fae0dfadf
8,1.6188,space,0.4035,0,122,122,325,1,,,61509f0576598bbf74387211,64377358caa49780824f2e27,2023-04-12_22h15.21.284,PRaM,2021.2.3,Win32,145.5815985,61b8f3437b89212fae0dfadf
5,1.4985,space,0.1043,0,123,123,374,1,,,61509f0576598bbf74387211,64377358caa49780824f2e27,2023-04-12_22h15.21.284,PRaM,2021.2.3,Win32,145.5815985,61b8f3437b89212fae0dfadf
9,3.2702,space,1.5895,0,124,124,274,1,,,61509f0576598bbf74387211,64377358caa49780824f2e27,2023-04-12_22h15.21.284,PRaM,2021.2.3,Win32,145.5815985,61b8f3437b89212fae0dfadf
7,1.9521,space,0.3541,0,125,125,22,1,,,61509f0576598bbf74387211,64377358caa49780824f2e27,2023-04-12_22h15.21.284,PRaM,2021.2.3,Win32,145.5815985,61b8f3437b89212fae0dfadf
8,1.6323,space,0.4745,0,126,126,302,1,,,61509f0576598bbf74387211,64377358caa49780824f2e27,2023-04-12_22h15.21.284,PRaM,2021.2.3,Win32,145.5815985,61b8f3437b89212fae0dfadf
2,2.46,space,0.7955,0,127,127,308,1,,,61509f0576598bbf74387211,64377358caa49780824f2e27,2023-04-12_22h15.21.284,PRaM,2021.2.3,Win32,145.5815985,61b8f3437b89212fae0dfadf
2,2.2237,space,0.4246,0,128,128,8,1,,,61509f0576598bbf74387211,64377358caa49780824f2e27,2023-04-12_22h15.21.284,PRaM,2021.2.3,Win32,145.5815985,61b8f3437b89212fae0dfadf
9,1.7593,space,0.0008,0,129,129,17,1,,,61509f0576598bbf74387211,64377358caa49780824f2e27,2023-04-12_22h15.21.284,PRaM,2021.2.3,Win32,145.5815985,61b8f3437b89212fae0dfadf
7,3.4679,space,1.6417,0,130,130,271,1,,,61509f0576598bbf74387211,64377358caa49780824f2e27,2023-04-12_22h15.21.284,PRaM,2021.2.3,Win32,145.5815985,61b8f3437b89212fae0dfadf
7,3.1128,space,1.3886,0,131,131,142,1,,,61509f0576598bbf74387211,64377358caa49780824f2e27,2023-04-12_22h15.21.284,PRaM,2021.2.3,Win32,145.5815985,61b8f3437b89212fae0dfadf
7,1.3904,space,0.0792,0,132,132,112,1,,,61509f0576598bbf74387211,64377358caa49780824f2e27,2023-04-12_22h15.21.284,PRaM,2021.2.3,Win32,145.5815985,61b8f3437b89212fae0dfadf
2,2.0427,space,0.3334,0,133,133,321,1,,,61509f0576598bbf74387211,64377358caa49780824f2e27,2023-04-12_22h15.21.284,PRaM,2021.2.3,Win32,145.5815985,61b8f3437b89212fae0dfadf
2,1.7507,space,0.009,0,134,134,232,1,,,61509f0576598bbf74387211,64377358caa49780824f2e27,2023-04-12_22h15.21.284,PRaM,2021.2.3,Win32,145.5815985,61b8f3437b89212fae0dfadf
2,1.7093,space,0.3612,0,135,135,133,1,,,61509f0576598bbf74387211,64377358caa49780824f2e27,2023-04-12_22h15.21.284,PRaM,2021.2.3,Win32,145.5815985,61b8f3437b89212fae0dfadf
8,2.329,space,0.6387,0,136,136,115,1,,,61509f0576598bbf74387211,64377358caa49780824f2e27,2023-04-12_22h15.21.284,PRaM,2021.2.3,Win32,145.5815985,61b8f3437b89212fae0dfadf
4,2.1253,space,0.4314,0,137,137,52,1,,,61509f0576598bbf74387211,64377358caa49780824f2e27,2023-04-12_22h15.21.284,PRaM,2021.2.3,Win32,145.5815985,61b8f3437b89212fae0dfadf
7,2.2538,space,0.5276,0,138,138,159,1,,,61509f0576598bbf74387211,64377358caa49780824f2e27,2023-04-12_22h15.21.284,PRaM,2021.2.3,Win32,145.5815985,61b8f3437b89212fae0dfadf
1,2.8769,space,1.1008,0,139,139,89,1,,,61509f0576598bbf74387211,64377358caa49780824f2e27,2023-04-12_22h15.21.284,PRaM,2021.2.3,Win32,145.5815985,61b8f3437b89212fae0dfadf
6,1.9397,space,0.2149,0,140,140,277,1,,,61509f0576598bbf74387211,64377358caa49780824f2e27,2023-04-12_22h15.21.284,PRaM,2021.2.3,Win32,145.5815985,61b8f3437b89212fae0dfadf
8,1.7807,space,0.0142,0,141,141,326,1,,,61509f0576598bbf74387211,64377358caa49780824f2e27,2023-04-12_22h15.21.284,PRaM,2021.2.3,Win32,145.5815985,61b8f3437b89212fae0dfadf
7,2.1788,space,0.4429,0,142,142,179,1,,,61509f0576598bbf74387211,64377358caa49780824f2e27,2023-04-12_22h15.21.284,PRaM,2021.2.3,Win32,145.5815985,61b8f3437b89212fae0dfadf
8,1.8985,space,0.1322,0,143,143,140,1,,,61509f0576598bbf74387211,64377358caa49780824f2e27,2023-04-12_22h15.21.284,PRaM,2021.2.3,Win32,145.5815985,61b8f3437b89212fae0dfadf
8,2.0562,space,0.3419,0,144,144,211,1,,,61509f0576598bbf74387211,64377358caa49780824f2e27,2023-04-12_22h15.21.284,PRaM,2021.2.3,Win32,145.5815985,61b8f3437b89212fae0dfadf
8,1.1019,space,0.2667,0,145,145,137,1,,,61509f0576598bbf74387211,64377358caa49780824f2e27,2023-04-12_22h15.21.284,PRaM,2021.2.3,Win32,145.5815985,61b8f3437b89212fae0dfadf
8,2.1224,space,0.3744,0,146,146,61,1,,,61509f0576598bbf74387211,64377358caa49780824f2e27,2023-04-12_22h15.21.284,PRaM,2021.2.3,Win32,145.5815985,61b8f3437b89212fae0dfadf
9,2.0284,space,0.2814,0,147,147,352,1,,,61509f0576598bbf74387211,64377358caa49780824f2e27,2023-04-12_22h15.21.284,PRaM,2021.2.3,Win32,145.5815985,61b8f3437b89212fae0dfadf
9,3.8841,space,2.119,0,148,148,147,1,,,61509f0576598bbf74387211,64377358caa49780824f2e27,2023-04-12_22h15.21.284,PRaM,2021.2.3,Win32,145.5815985,61b8f3437b89212fae0dfadf
9,1.98,space,0.5245,0,149,149,368,1,,,61509f0576598bbf74387211,64377358caa49780824f2e27,2023-04-12_22h15.21.284,PRaM,2021.2.3,Win32,145.5815985,61b8f3437b89212fae0dfadf
9,1.6166,space,0.4172,0,150,150,119,1,,,61509f0576598bbf74387211,64377358caa49780824f2e27,2023-04-12_22h15.21.284,PRaM,2021.2.3,Win32,145.5815985,61b8f3437b89212fae0dfadf
9,1.3575,space,0.139,0,151,151,261,1,,,61509f0576598bbf74387211,64377358caa49780824f2e27,2023-04-12_22h15.21.284,PRaM,2021.2.3,Win32,145.5815985,61b8f3437b89212fae0dfadf
4,2.4585,space,0.5143,0,152,152,332,1,,,61509f0576598bbf74387211,64377358caa49780824f2e27,2023-04-12_22h15.21.284,PRaM,2021.2.3,Win32,145.5815985,61b8f3437b89212fae0dfadf
9,1.4423,space,0.0835,0,153,153,334,1,,,61509f0576598bbf74387211,64377358caa49780824f2e27,2023-04-12_22h15.21.284,PRaM,2021.2.3,Win32,145.5815985,61b8f3437b89212fae0dfadf
7,3.1533,space,1.3799,0,154,154,278,1,,,61509f0576598bbf74387211,64377358caa49780824f2e27,2023-04-12_22h15.21.284,PRaM,2021.2.3,Win32,145.5815985,61b8f3437b89212fae0dfadf
2,1.7437,space,0.0307,0,155,155,71,1,,,61509f0576598bbf74387211,64377358caa49780824f2e27,2023-04-12_22h15.21.284,PRaM,2021.2.3,Win32,145.5815985,61b8f3437b89212fae0dfadf
1,2.5527,space,0.84,0,156,156,315,1,,,61509f0576598bbf74387211,64377358caa49780824f2e27,2023-04-12_22h15.21.284,PRaM,2021.2.3,Win32,145.5815985,61b8f3437b89212fae0dfadf
5,2.3154,space,0.5913,0,157,157,47,1,,,61509f0576598bbf74387211,64377358caa49780824f2e27,2023-04-12_22h15.21.284,PRaM,2021.2.3,Win32,145.5815985,61b8f3437b89212fae0dfadf
7,2.0227,space,0.3158,0,158,158,168,1,,,61509f0576598bbf74387211,64377358caa49780824f2e27,2023-04-12_22h15.21.284,PRaM,2021.2.3,Win32,145.5815985,61b8f3437b89212fae0dfadf
3,1.8687,space,0.1463,0,159,159,217,1,,,61509f0576598bbf74387211,64377358caa49780824f2e27,2023-04-12_22h15.21.284,PRaM,2021.2.3,Win32,145.5815985,61b8f3437b89212fae0dfadf
7,2.2826,space,0.4576,0,160,160,228,1,,,61509f0576598bbf74387211,64377358caa49780824f2e27,2023-04-12_22h15.21.284,PRaM,2021.2.3,Win32,145.5815985,61b8f3437b89212fae0dfadf
3,2.2752,space,0.5478,0,161,161,185,1,,,61509f0576598bbf74387211,64377358caa49780824f2e27,2023-04-12_22h15.21.284,PRaM,2021.2.3,Win32,145.5815985,61b8f3437b89212fae0dfadf
7,1.6979,space,0.4127,0,162,162,60,1,,,61509f0576598bbf74387211,64377358caa49780824f2e27,2023-04-12_22h15.21.284,PRaM,2021.2.3,Win32,145.5815985,61b8f3437b89212fae0dfadf
2,2.0564,space,0.1738,0,163,163,364,1,,,61509f0576598bbf74387211,64377358caa49780824f2e27,2023-04-12_22h15.21.284,PRaM,2021.2.3,Win32,145.5815985,61b8f3437b89212fae0dfadf
8,1.6056,space,0.2228,0,164,164,104,1,,,61509f0576598bbf74387211,64377358caa49780824f2e27,2023-04-12_22h15.21.284,PRaM,2021.2.3,Win32,145.5815985,61b8f3437b89212fae0dfadf
7,1.9815,space,0.244,0,165,165,216,1,,,61509f0576598bbf74387211,64377358caa49780824f2e27,2023-04-12_22h15.21.284,PRaM,2021.2.3,Win32,145.5815985,61b8f3437b89212fae0dfadf
2,1.848,space,0.1214,0,166,166,34,1,,,61509f0576598bbf74387211,64377358caa49780824f2e27,2023-04-12_22h15.21.284,PRaM,2021.2.3,Win32,145.5815985,61b8f3437b89212fae0dfadf
2,1.4399,space,0.1107,0,167,167,190,1,,,61509f0576598bbf74387211,64377358caa49780824f2e27,2023-04-12_22h15.21.284,PRaM,2021.2.3,Win32,145.5815985,61b8f3437b89212fae0dfadf
2,0.9603,space,0.1473,0,168,168,252,1,,,61509f0576598bbf74387211,64377358caa49780824f2e27,2023-04-12_22h15.21.284,PRaM,2021.2.3,Win32,145.5815985,61b8f3437b89212fae0dfadf
2,1.1651,space,0.4723,0,169,169,3,1,,,61509f0576598bbf74387211,64377358caa49780824f2e27,2023-04-12_22h15.21.284,PRaM,2021.2.3,Win32,145.5815985,61b8f3437b89212fae0dfadf
8,2.0998,space,0.3496,0,170,170,372,1,,,61509f0576598bbf74387211,64377358caa49780824f2e27,2023-04-12_22h15.21.284,PRaM,2021.2.3,Win32,145.5815985,61b8f3437b89212fae0dfadf
3,1.8826,space,0.1827,0,171,171,365,1,,,61509f0576598bbf74387211,64377358caa49780824f2e27,2023-04-12_22h15.21.284,PRaM,2021.2.3,Win32,145.5815985,61b8f3437b89212fae0dfadf
7,1.7861,space,0.0564,0,172,172,335,1,,,61509f0576598bbf74387211,64377358caa49780824f2e27,2023-04-12_22h15.21.284,PRaM,2021.2.3,Win32,145.5815985,61b8f3437b89212fae0dfadf
2,1.5934,space,0.2847,0,173,173,135,1,,,61509f0576598bbf74387211,64377358caa49780824f2e27,2023-04-12_22h15.21.284,PRaM,2021.2.3,Win32,145.5815985,61b8f3437b89212fae0dfadf
2,1.0983,space,0.1557,0,174,174,304,1,,,61509f0576598bbf74387211,64377358caa49780824f2e27,2023-04-12_22h15.21.284,PRaM,2021.2.3,Win32,145.5815985,61b8f3437b89212fae0dfadf
6,1.5986,space,0.2779,0,175,175,375,1,,,61509f0576598bbf74387211,64377358caa49780824f2e27,2023-04-12_22h15.21.284,PRaM,2021.2.3,Win32,145.5815985,61b8f3437b89212fae0dfadf
7,2.7175,space,0.9857,0,176,176,40,1,,,61509f0576598bbf74387211,64377358caa49780824f2e27,2023-04-12_22h15.21.284,PRaM,2021.2.3,Win32,145.5815985,61b8f3437b89212fae0dfadf
2,2.2784,space,0.4319,0,177,177,204,1,,,61509f0576598bbf74387211,64377358caa49780824f2e27,2023-04-12_22h15.21.284,PRaM,2021.2.3,Win32,145.5815985,61b8f3437b89212fae0dfadf
,,space,0.389,0,178,178,189,1,,,61509f0576598bbf74387211,64377358caa49780824f2e27,2023-04-12_22h15.21.284,PRaM,2021.2.3,Win32,145.5815985,61b8f3437b89212fae0dfadf
8,2.2525,space,0.5254,0,179,179,110,1,,,61509f0576598bbf74387211,64377358caa49780824f2e27,2023-04-12_22h15.21.284,PRaM,2021.2.3,Win32,145.5815985,61b8f3437b89212fae0dfadf
2,2.4394,space,0.7194,0,180,180,311,1,,,61509f0576598bbf74387211,64377358caa49780824f2e27,2023-04-12_22h15.21.284,PRaM,2021.2.3,Win32,145.5815985,61b8f3437b89212fae0dfadf
2,2.1536,space,0.4097,0,181,181,220,1,,,61509f0576598bbf74387211,64377358caa49780824f2e27,2023-04-12_22h15.21.284,PRaM,2021.2.3,Win32,145.5815985,61b8f3437b89212fae0dfadf
2,2.0005,space,0.2369,0,182,182,212,1,,,61509f0576598bbf74387211,64377358caa49780824f2e27,2023-04-12_22h15.21.284,PRaM,2021.2.3,Win32,145.5815985,61b8f3437b89212fae0dfadf
1,2.1058,space,0.4189,0,183,183,290,1,,,61509f0576598bbf74387211,64377358caa49780824f2e27,2023-04-12_22h15.21.284,PRaM,2021.2.3,Win32,145.5815985,61b8f3437b89212fae0dfadf
7,1.9005,space,0.1605,0,184,184,221,1,,,61509f0576598bbf74387211,64377358caa49780824f2e27,2023-04-12_22h15.21.284,PRaM,2021.2.3,Win32,145.5815985,61b8f3437b89212fae0dfadf
1,2.077,space,0.3373,0,185,185,106,1,,,61509f0576598bbf74387211,64377358caa49780824f2e27,2023-04-12_22h15.21.284,PRaM,2021.2.3,Win32,145.5815985,61b8f3437b89212fae0dfadf
1,1.4913,space,0.1945,0,186,186,161,1,,,61509f0576598bbf74387211,64377358caa49780824f2e27,2023-04-12_22h15.21.284,PRaM,2021.2.3,Win32,145.5815985,61b8f3437b89212fae0dfadf
8,1.9933,space,0.2708,0,187,187,222,1,,,61509f0576598bbf74387211,64377358caa49780824f2e27,2023-04-12_22h15.21.284,PRaM,2021.2.3,Win32,145.5815985,61b8f3437b89212fae0dfadf
2,1.9101,space,0.1948,0,188,188,170,1,,,61509f0576598bbf74387211,64377358caa49780824f2e27,2023-04-12_22h15.21.284,PRaM,2021.2.3,Win32,145.5815985,61b8f3437b89212fae0dfadf
1,3.0134,space,1.2853,0,189,189,108,1,,,61509f0576598bbf74387211,64377358caa49780824f2e27,2023-04-12_22h15.21.284,PRaM,2021.2.3,Win32,145.5815985,61b8f3437b89212fae0dfadf
1,2.7221,space,0.9994,0,190,190,309,1,,,61509f0576598bbf74387211,64377358caa49780824f2e27,2023-04-12_22h15.21.284,PRaM,2021.2.3,Win32,145.5815985,61b8f3437b89212fae0dfadf
9,2.6201,space,0.9035,0,191,191,4,1,,,61509f0576598bbf74387211,64377358caa49780824f2e27,2023-04-12_22h15.21.284,PRaM,2021.2.3,Win32,145.5815985,61b8f3437b89212fae0dfadf
1,1.8984,space,0.1738,0,192,192,111,1,,,61509f0576598bbf74387211,64377358caa49780824f2e27,2023-04-12_22h15.21.284,PRaM,2021.2.3,Win32,145.5815985,61b8f3437b89212fae0dfadf
7,2.7917,space,1.0545,0,193,193,88,1,,,61509f0576598bbf74387211,64377358caa49780824f2e27,2023-04-12_22h15.21.284,PRaM,2021.2.3,Win32,145.5815985,61b8f3437b89212fae0dfadf
2,1.7724,space,0.0076,0,194,194,377,1,,,61509f0576598bbf74387211,64377358caa49780824f2e27,2023-04-12_22h15.21.284,PRaM,2021.2.3,Win32,145.5815985,61b8f3437b89212fae0dfadf
2,1.3758,space,0.5563,0,195,195,251,1,,,61509f0576598bbf74387211,64377358caa49780824f2e27,2023-04-12_22h15.21.284,PRaM,2021.2.3,Win32,145.5815985,61b8f3437b89212fae0dfadf
1,1.5561,space,0.1912,0,196,196,184,1,,,61509f0576598bbf74387211,64377358caa49780824f2e27,2023-04-12_22h15.21.284,PRaM,2021.2.3,Win32,145.5815985,61b8f3437b89212fae0dfadf
2,1.7042,space,0.641,0,197,197,5,1,,,61509f0576598bbf74387211,64377358caa49780824f2e27,2023-04-12_22h15.21.284,PRaM,2021.2.3,Win32,145.5815985,61b8f3437b89212fae0dfadf
1,2.8352,space,1.2125,0,198,198,1,1,,,61509f0576598bbf74387211,64377358caa49780824f2e27,2023-04-12_22h15.21.284,PRaM,2021.2.3,Win32,145.5815985,61b8f3437b89212fae0dfadf
2,8.3832,space,6.8078,0,199,199,84,1,,,61509f0576598bbf74387211,64377358caa49780824f2e27,2023-04-12_22h15.21.284,PRaM,2021.2.3,Win32,145.5815985,61b8f3437b89212fae0dfadf
2,4.3311,space,2.5673,0,200,200,229,1,,,61509f0576598bbf74387211,64377358caa49780824f2e27,2023-04-12_22h15.21.284,PRaM,2021.2.3,Win32,145.5815985,61b8f3437b89212fae0dfadf
2,1.1261,space,0.4833,0,201,201,35,1,,,61509f0576598bbf74387211,64377358caa49780824f2e27,2023-04-12_22h15.21.284,PRaM,2021.2.3,Win32,145.5815985,61b8f3437b89212fae0dfadf
1,1.9768,space,0.2293,0,202,202,299,1,,,61509f0576598bbf74387211,64377358caa49780824f2e27,2023-04-12_22h15.21.284,PRaM,2021.2.3,Win32,145.5815985,61b8f3437b89212fae0dfadf
7,2.5,space,0.8049,0,203,203,305,1,,,61509f0576598bbf74387211,64377358caa49780824f2e27,2023-04-12_22h15.21.284,PRaM,2021.2.3,Win32,145.5815985,61b8f3437b89212fae0dfadf
6,2.6203,space,0.8652,0,204,204,319,1,,,61509f0576598bbf74387211,64377358caa49780824f2e27,2023-04-12_22h15.21.284,PRaM,2021.2.3,Win32,145.5815985,61b8f3437b89212fae0dfadf
2,1.952,space,0.2053,0,205,205,11,1,,,61509f0576598bbf74387211,64377358caa49780824f2e27,2023-04-12_22h15.21.284,PRaM,2021.2.3,Win32,145.5815985,61b8f3437b89212fae0dfadf
2,2.439,space,0.7234,0,206,206,21,1,,,61509f0576598bbf74387211,64377358caa49780824f2e27,2023-04-12_22h15.21.284,PRaM,2021.2.3,Win32,145.5815985,61b8f3437b89212fae0dfadf
8,1.6747,space,0.0081,0,207,207,199,1,,,61509f0576598bbf74387211,64377358caa49780824f2e27,2023-04-12_22h15.21.284,PRaM,2021.2.3,Win32,145.5815985,61b8f3437b89212fae0dfadf
8,1.2927,space,0.6565,0,208,208,114,1,,,61509f0576598bbf74387211,64377358caa49780824f2e27,2023-04-12_22h15.21.284,PRaM,2021.2.3,Win32,145.5815985,61b8f3437b89212fae0dfadf
1,2.3704,space,0.5332,0,209,209,107,1,,,61509f0576598bbf74387211,64377358caa49780824f2e27,2023-04-12_22h15.21.284,PRaM,2021.2.3,Win32,145.5815985,61b8f3437b89212fae0dfadf
7,2.3405,space,0.6208,0,210,210,214,1,,,61509f0576598bbf74387211,64377358caa49780824f2e27,2023-04-12_22h15.21.284,PRaM,2021.2.3,Win32,145.5815985,61b8f3437b89212fae0dfadf
2,1.5843,space,0.3612,0,211,211,13,1,,,61509f0576598bbf74387211,64377358caa49780824f2e27,2023-04-12_22h15.21.284,PRaM,2021.2.3,Win32,145.5815985,61b8f3437b89212fae0dfadf
2,2.327,space,0.5965,0,212,212,24,1,,,61509f0576598bbf74387211,64377358caa49780824f2e27,2023-04-12_22h15.21.284,PRaM,2021.2.3,Win32,145.5815985,61b8f3437b89212fae0dfadf
7,2.2583,space,0.5217,0,213,213,242,1,,,61509f0576598bbf74387211,64377358caa49780824f2e27,2023-04-12_22h15.21.284,PRaM,2021.2.3,Win32,145.5815985,61b8f3437b89212fae0dfadf
1,2.098,space,0.3055,0,214,214,330,1,,,61509f0576598bbf74387211,64377358caa49780824f2e27,2023-04-12_22h15.21.284,PRaM,2021.2.3,Win32,145.5815985,61b8f3437b89212fae0dfadf
9,2.1633,space,0.4406,0,215,215,51,1,,,61509f0576598bbf74387211,64377358caa49780824f2e27,2023-04-12_22h15.21.284,PRaM,2021.2.3,Win32,145.5815985,61b8f3437b89212fae0dfadf
4,3.2643,space,1.5321,0,216,216,162,1,,,61509f0576598bbf74387211,64377358caa49780824f2e27,2023-04-12_22h15.21.284,PRaM,2021.2.3,Win32,145.5815985,61b8f3437b89212fae0dfadf
6,2.9771,space,1.2418,0,217,217,327,1,,,61509f0576598bbf74387211,64377358caa49780824f2e27,2023-04-12_22h15.21.284,PRaM,2021.2.3,Win32,145.5815985,61b8f3437b89212fae0dfadf
7,1.8546,space,0.1252,0,218,218,69,1,,,61509f0576598bbf74387211,64377358caa49780824f2e27,2023-04-12_22h15.21.284,PRaM,2021.2.3,Win32,145.5815985,61b8f3437b89212fae0dfadf
8,2.3342,space,0.5902,0,219,219,323,1,,,61509f0576598bbf74387211,64377358caa49780824f2e27,2023-04-12_22h15.21.284,PRaM,2021.2.3,Win32,145.5815985,61b8f3437b89212fae0dfadf
8,1.494,space,0.141,0,220,220,197,1,,,61509f0576598bbf74387211,64377358caa49780824f2e27,2023-04-12_22h15.21.284,PRaM,2021.2.3,Win32,145.5815985,61b8f3437b89212fae0dfadf
8,1.5338,space,0.5577,0,221,221,255,1,,,61509f0576598bbf74387211,64377358caa49780824f2e27,2023-04-12_22h15.21.284,PRaM,2021.2.3,Win32,145.5815985,61b8f3437b89212fae0dfadf
2,4.1772,space,2.4505,0,222,222,354,1,,,61509f0576598bbf74387211,64377358caa49780824f2e27,2023-04-12_22h15.21.284,PRaM,2021.2.3,Win32,145.5815985,61b8f3437b89212fae0dfadf
8,1.7576,space,0.015,0,223,223,178,1,,,61509f0576598bbf74387211,64377358caa49780824f2e27,2023-04-12_22h15.21.284,PRaM,2021.2.3,Win32,145.5815985,61b8f3437b89212fae0dfadf
6,4.4796,space,2.665,0,224,224,72,1,,,61509f0576598bbf74387211,64377358caa49780824f2e27,2023-04-12_22h15.21.284,PRaM,2021.2.3,Win32,145.5815985,61b8f3437b89212fae0dfadf
7,2.0505,space,0.3758,0,225,225,53,1,,,61509f0576598bbf74387211,64377358caa49780824f2e27,2023-04-12_22h15.21.284,PRaM,2021.2.3,Win32,145.5815985,61b8f3437b89212fae0dfadf
7,1.5855,space,0.2646,0,226,226,33,1,,,61509f0576598bbf74387211,64377358caa49780824f2e27,2023-04-12_22h15.21.284,PRaM,2021.2.3,Win32,145.5815985,61b8f3437b89212fae0dfadf
8,1.4796,space,0.1112,0,227,227,269,1,,,61509f0576598bbf74387211,64377358caa49780824f2e27,2023-04-12_22h15.21.284,PRaM,2021.2.3,Win32,145.5815985,61b8f3437b89212fae0dfadf
8,1.2723,space,0.59,0,228,228,310,1,,,61509f0576598bbf74387211,64377358caa49780824f2e27,2023-04-12_22h15.21.284,PRaM,2021.2.3,Win32,145.5815985,61b8f3437b89212fae0dfadf
7,0.9943,space,0.1807,0,229,229,370,1,,,61509f0576598bbf74387211,64377358caa49780824f2e27,2023-04-12_22h15.21.284,PRaM,2021.2.3,Win32,145.5815985,61b8f3437b89212fae0dfadf
3,1.7865,space,0.0801,0,230,230,176,1,,,61509f0576598bbf74387211,64377358caa49780824f2e27,2023-04-12_22h15.21.284,PRaM,2021.2.3,Win32,145.5815985,61b8f3437b89212fae0dfadf
7,1.7133,space,0.7914,0,231,231,149,1,,,61509f0576598bbf74387211,64377358caa49780824f2e27,2023-04-12_22h15.21.284,PRaM,2021.2.3,Win32,145.5815985,61b8f3437b89212fae0dfadf
4,1.7889,space,0.3023,0,232,232,341,1,,,61509f0576598bbf74387211,64377358caa49780824f2e27,2023-04-12_22h15.21.284,PRaM,2021.2.3,Win32,145.5815985,61b8f3437b89212fae0dfadf
4,1.3553,space,0.1188,0,233,233,77,1,,,61509f0576598bbf74387211,64377358caa49780824f2e27,2023-04-12_22h15.21.284,PRaM,2021.2.3,Win32,145.5815985,61b8f3437b89212fae0dfadf
3,1.7582,space,0.0141,0,234,234,78,1,,,61509f0576598bbf74387211,64377358caa49780824f2e27,2023-04-12_22h15.21.284,PRaM,2021.2.3,Win32,145.5815985,61b8f3437b89212fae0dfadf
2,1.6535,space,0.4722,0,235,235,324,1,,,61509f0576598bbf74387211,64377358caa49780824f2e27,2023-04-12_22h15.21.284,PRaM,2021.2.3,Win32,145.5815985,61b8f3437b89212fae0dfadf
7,1.891,space,0.153,0,236,236,355,1,,,61509f0576598bbf74387211,64377358caa49780824f2e27,2023-04-12_22h15.21.284,PRaM,2021.2.3,Win32,145.5815985,61b8f3437b89212fae0dfadf
7,2.0653,space,0.59,0,237,237,85,1,,,61509f0576598bbf74387211,64377358caa49780824f2e27,2023-04-12_22h15.21.284,PRaM,2021.2.3,Win32,145.5815985,61b8f3437b89212fae0dfadf
5,2.7339,space,1.135,0,238,238,165,1,,,61509f0576598bbf74387211,64377358caa49780824f2e27,2023-04-12_22h15.21.284,PRaM,2021.2.3,Win32,145.5815985,61b8f3437b89212fae0dfadf
3,2.4178,space,0.7976,0,239,239,250,1,,,61509f0576598bbf74387211,64377358caa49780824f2e27,2023-04-12_22h15.21.284,PRaM,2021.2.3,Win32,145.5815985,61b8f3437b89212fae0dfadf
2,2.6619,space,0.9514,0,240,240,144,1,,,61509f0576598bbf74387211,64377358caa49780824f2e27,2023-04-12_22h15.21.284,PRaM,2021.2.3,Win32,145.5815985,61b8f3437b89212fae0dfadf
1,1.9475,space,0.2049,0,241,241,41,1,,,61509f0576598bbf74387211,64377358caa49780824f2e27,2023-04-12_22h15.21.284,PRaM,2021.2.3,Win32,145.5815985,61b8f3437b89212fae0dfadf
8,2.307,space,0.5686,0,242,242,105,1,,,61509f0576598bbf74387211,64377358caa49780824f2e27,2023-04-12_22h15.21.284,PRaM,2021.2.3,Win32,145.5815985,61b8f3437b89212fae0dfadf
2,1.3377,space,0.0023,0,243,243,113,1,,,61509f0576598bbf74387211,64377358caa49780824f2e27,2023-04-12_22h15.21.284,PRaM,2021.2.3,Win32,145.5815985,61b8f3437b89212fae0dfadf
1,1.8734,space,0.0839,0,244,244,48,1,,,61509f0576598bbf74387211,64377358caa49780824f2e27,2023-04-12_22h15.21.284,PRaM,2021.2.3,Win32,145.5815985,61b8f3437b89212fae0dfadf
6,2.3621,space,0.6383,0,245,245,306,1,,,61509f0576598bbf74387211,64377358caa49780824f2e27,2023-04-12_22h15.21.284,PRaM,2021.2.3,Win32,145.5815985,61b8f3437b89212fae0dfadf
7,1.9661,space,0.2864,0,246,246,192,1,,,61509f0576598bbf74387211,64377358caa49780824f2e27,2023-04-12_22h15.21.284,PRaM,2021.2.3,Win32,145.5815985,61b8f3437b89212fae0dfadf
8,1.4666,space,0.2015,0,247,247,336,1,,,61509f0576598bbf74387211,64377358caa49780824f2e27,2023-04-12_22h15.21.284,PRaM,2021.2.3,Win32,145.5815985,61b8f3437b89212fae0dfadf
4,2.2575,space,0.5253,0,248,248,206,1,,,61509f0576598bbf74387211,64377358caa49780824f2e27,2023-04-12_22h15.21.284,PRaM,2021.2.3,Win32,145.5815985,61b8f3437b89212fae0dfadf
3,1.4243,space,0.1225,0,249,249,44,1,,,61509f0576598bbf74387211,64377358caa49780824f2e27,2023-04-12_22h15.21.284,PRaM,2021.2.3,Win32,145.5815985,61b8f3437b89212fae0dfadf
7,1.7583,space,0.0276,0,250,250,350,1,,,61509f0576598bbf74387211,64377358caa49780824f2e27,2023-04-12_22h15.21.284,PRaM,2021.2.3,Win32,145.5815985,61b8f3437b89212fae0dfadf
6,1.8901,space,0.1387,0,251,251,345,1,,,61509f0576598bbf74387211,64377358caa49780824f2e27,2023-04-12_22h15.21.284,PRaM,2021.2.3,Win32,145.5815985,61b8f3437b89212fae0dfadf
3,1.6469,space,0.29,0,252,252,267,1,,,61509f0576598bbf74387211,64377358caa49780824f2e27,2023-04-12_22h15.21.284,PRaM,2021.2.3,Win32,145.5815985,61b8f3437b89212fae0dfadf
2,2.0979,space,0.3376,0,253,253,131,1,,,61509f0576598bbf74387211,64377358caa49780824f2e27,2023-04-12_22h15.21.284,PRaM,2021.2.3,Win32,145.5815985,61b8f3437b89212fae0dfadf
7,2.3907,space,0.7637,0,254,254,99,1,,,61509f0576598bbf74387211,64377358caa49780824f2e27,2023-04-12_22h15.21.284,PRaM,2021.2.3,Win32,145.5815985,61b8f3437b89212fae0dfadf
4,5.4751,space,3.75,0,255,255,367,1,,,61509f0576598bbf74387211,64377358caa49780824f2e27,2023-04-12_22h15.21.284,PRaM,2021.2.3,Win32,145.5815985,61b8f3437b89212fae0dfadf
3,1.3695,space,0.0081,0,256,256,328,1,,,61509f0576598bbf74387211,64377358caa49780824f2e27,2023-04-12_22h15.21.284,PRaM,2021.2.3,Win32,145.5815985,61b8f3437b89212fae0dfadf
2,2.0283,space,0.2851,0,257,257,188,1,,,61509f0576598bbf74387211,64377358caa49780824f2e27,2023-04-12_22h15.21.284,PRaM,2021.2.3,Win32,145.5815985,61b8f3437b89212fae0dfadf
2,1.1888,space,0.1804,0,258,258,50,1,,,61509f0576598bbf74387211,64377358caa49780824f2e27,2023-04-12_22h15.21.284,PRaM,2021.2.3,Win32,145.5815985,61b8f3437b89212fae0dfadf
7,1.5212,space,0.1391,0,259,259,254,1,,,61509f0576598bbf74387211,64377358caa49780824f2e27,2023-04-12_22h15.21.284,PRaM,2021.2.3,Win32,145.5815985,61b8f3437b89212fae0dfadf
,,space,0.0931,0,260,260,344,1,,,61509f0576598bbf74387211,64377358caa49780824f2e27,2023-04-12_22h15.21.284,PRaM,2021.2.3,Win32,145.5815985,61b8f3437b89212fae0dfadf
8,2.1919,space,0.4913,0,261,261,19,1,,,61509f0576598bbf74387211,64377358caa49780824f2e27,2023-04-12_22h15.21.284,PRaM,2021.2.3,Win32,145.5815985,61b8f3437b89212fae0dfadf
2,1.6633,space,0.4687,0,262,262,2,1,,,61509f0576598bbf74387211,64377358caa49780824f2e27,2023-04-12_22h15.21.284,PRaM,2021.2.3,Win32,145.5815985,61b8f3437b89212fae0dfadf
7,1.2547,space,0.1776,0,263,263,357,1,,,61509f0576598bbf74387211,64377358caa49780824f2e27,2023-04-12_22h15.21.284,PRaM,2021.2.3,Win32,145.5815985,61b8f3437b89212fae0dfadf
7,1.8487,space,0.2216,0,264,264,337,1,,,61509f0576598bbf74387211,64377358caa49780824f2e27,2023-04-12_22h15.21.284,PRaM,2021.2.3,Win32,145.5815985,61b8f3437b89212fae0dfadf
8,1.9735,space,0.3535,0,265,265,23,1,,,61509f0576598bbf74387211,64377358caa49780824f2e27,2023-04-12_22h15.21.284,PRaM,2021.2.3,Win32,145.5815985,61b8f3437b89212fae0dfadf
4,2.5487,space,1.0585,0,266,266,101,1,,,61509f0576598bbf74387211,64377358caa49780824f2e27,2023-04-12_22h15.21.284,PRaM,2021.2.3,Win32,145.5815985,61b8f3437b89212fae0dfadf
7,2.8474,space,1.1239,0,267,267,347,1,,,61509f0576598bbf74387211,64377358caa49780824f2e27,2023-04-12_22h15.21.284,PRaM,2021.2.3,Win32,145.5815985,61b8f3437b89212fae0dfadf
2,1.7477,space,0.0557,0,268,268,356,1,,,61509f0576598bbf74387211,64377358caa49780824f2e27,2023-04-12_22h15.21.284,PRaM,2021.2.3,Win32,145.5815985,61b8f3437b89212fae0dfadf
1,2.0494,space,0.3394,0,269,269,68,1,,,61509f0576598bbf74387211,64377358caa49780824f2e27,2023-04-12_22h15.21.284,PRaM,2021.2.3,Win32,145.5815985,61b8f3437b89212fae0dfadf
6,2.4856,space,0.7769,0,270,270,193,1,,,61509f0576598bbf74387211,64377358caa49780824f2e27,2023-04-12_22h15.21.284,PRaM,2021.2.3,Win32,145.5815985,61b8f3437b89212fae0dfadf
3,1.4768,space,0.2501,0,271,271,287,1,,,61509f0576598bbf74387211,64377358caa49780824f2e27,2023-04-12_22h15.21.284,PRaM,2021.2.3,Win32,145.5815985,61b8f3437b89212fae0dfadf
2,1.3838,space,0.0114,0,272,272,138,1,,,61509f0576598bbf74387211,64377358caa49780824f2e27,2023-04-12_22h15.21.284,PRaM,2021.2.3,Win32,145.5815985,61b8f3437b89212fae0dfadf
8,1.8756,space,0.1881,0,273,273,0,1,,,61509f0576598bbf74387211,64377358caa49780824f2e27,2023-04-12_22h15.21.284,PRaM,2021.2.3,Win32,145.5815985,61b8f3437b89212fae0dfadf
4,1.9449,space,0.2501,0,274,274,349,1,,,61509f0576598bbf74387211,64377358caa49780824f2e27,2023-04-12_22h15.21.284,PRaM,2021.2.3,Win32,145.5815985,61b8f3437b89212fae0dfadf
9,1.8823,space,0.1418,0,275,275,177,1,,,61509f0576598bbf74387211,64377358caa49780824f2e27,2023-04-12_22h15.21.284,PRaM,2021.2.3,Win32,145.5815985,61b8f3437b89212fae0dfadf
3,1.6439,space,0.4186,0,276,276,124,1,,,61509f0576598bbf74387211,64377358caa49780824f2e27,2023-04-12_22h15.21.284,PRaM,2021.2.3,Win32,145.5815985,61b8f3437b89212fae0dfadf
2,2.1553,space,0.4153,0,277,277,294,1,,,61509f0576598bbf74387211,64377358caa49780824f2e27,2023-04-12_22h15.21.284,PRaM,2021.2.3,Win32,145.5815985,61b8f3437b89212fae0dfadf
1,1.5647,space,0.2368,0,278,278,235,1,,,61509f0576598bbf74387211,64377358caa49780824f2e27,2023-04-12_22h15.21.284,PRaM,2021.2.3,Win32,145.5815985,61b8f3437b89212fae0dfadf
8,2.3136,space,0.57,0,279,279,259,1,,,61509f0576598bbf74387211,64377358caa49780824f2e27,2023-04-12_22h15.21.284,PRaM,2021.2.3,Win32,145.5815985,61b8f3437b89212fae0dfadf
1,4.7837,space,3.0622,0,280,280,121,1,,,61509f0576598bbf74387211,64377358caa49780824f2e27,2023-04-12_22h15.21.284,PRaM,2021.2.3,Win32,145.5815985,61b8f3437b89212fae0dfadf
1,1.3236,space,0.0557,0,281,281,338,1,,,61509f0576598bbf74387211,64377358caa49780824f2e27,2023-04-12_22h15.21.284,PRaM,2021.2.3,Win32,145.5815985,61b8f3437b89212fae0dfadf
1,3.3741,space,1.6814,0,282,282,223,1,,,61509f0576598bbf74387211,64377358caa49780824f2e27,2023-04-12_22h15.21.284,PRaM,2021.2.3,Win32,145.5815985,61b8f3437b89212fae0dfadf
7,3.859,space,2.1016,0,283,283,153,1,,,61509f0576598bbf74387211,64377358caa49780824f2e27,2023-04-12_22h15.21.284,PRaM,2021.2.3,Win32,145.5815985,61b8f3437b89212fae0dfadf
7,2.7662,space,1.0542,0,284,284,80,1,,,61509f0576598bbf74387211,64377358caa49780824f2e27,2023-04-12_22h15.21.284,PRaM,2021.2.3,Win32,145.5815985,61b8f3437b89212fae0dfadf
2,2.0865,space,0.3616,0,285,285,39,1,,,61509f0576598bbf74387211,64377358caa49780824f2e27,2023-04-12_22h15.21.284,PRaM,2021.2.3,Win32,145.5815985,61b8f3437b89212fae0dfadf
8,1.7759,space,0.0634,0,286,286,136,1,,,61509f0576598bbf74387211,64377358caa49780824f2e27,2023-04-12_22h15.21.284,PRaM,2021.2.3,Win32,145.5815985,61b8f3437b89212fae0dfadf
2,1.823,space,0.1216,0,287,287,293,1,,,61509f0576598bbf74387211,64377358caa49780824f2e27,2023-04-12_22h15.21.284,PRaM,2021.2.3,Win32,145.5815985,61b8f3437b89212fae0dfadf
1,1.5921,space,0.3128,0,288,288,58,1,,,61509f0576598bbf74387211,64377358caa49780824f2e27,2023-04-12_22h15.21.284,PRaM,2021.2.3,Win32,145.5815985,61b8f3437b89212fae0dfadf
7,1.9598,space,0.2499,0,289,289,296,1,,,61509f0576598bbf74387211,64377358caa49780824f2e27,2023-04-12_22h15.21.284,PRaM,2021.2.3,Win32,145.5815985,61b8f3437b89212fae0dfadf
8,2.3479,space,0.6329,0,290,290,226,1,,,61509f0576598bbf74387211,64377358caa49780824f2e27,2023-04-12_22h15.21.284,PRaM,2021.2.3,Win32,145.5815985,61b8f3437b89212fae0dfadf
2,1.9474,space,0.2037,0,291,291,218,1,,,61509f0576598bbf74387211,64377358caa49780824f2e27,2023-04-12_22h15.21.284,PRaM,2021.2.3,Win32,145.5815985,61b8f3437b89212fae0dfadf
9,2.113,space,0.4178,0,292,292,86,1,,,61509f0576598bbf74387211,64377358caa49780824f2e27,2023-04-12_22h15.21.284,PRaM,2021.2.3,Win32,145.5815985,61b8f3437b89212fae0dfadf
2,6.1006,space,4.3762,0,293,293,95,1,,,61509f0576598bbf74387211,64377358caa49780824f2e27,2023-04-12_22h15.21.284,PRaM,2021.2.3,Win32,145.5815985,61b8f3437b89212fae0dfadf
7,3.0631,space,1.3611,0,294,294,93,1,,,61509f0576598bbf74387211,64377358caa49780824f2e27,2023-04-12_22h15.21.284,PRaM,2021.2.3,Win32,145.5815985,61b8f3437b89212fae0dfadf
2,4.7412,space,3.0605,0,295,295,81,1,,,61509f0576598bbf74387211,64377358caa49780824f2e27,2023-04-12_22h15.21.284,PRaM,2021.2.3,Win32,145.5815985,61b8f3437b89212fae0dfadf
7,2.4737,space,0.7367,0,296,296,59,1,,,61509f0576598bbf74387211,64377358caa49780824f2e27,2023-04-12_22h15.21.284,PRaM,2021.2.3,Win32,145.5815985,61b8f3437b89212fae0dfadf
2,1.8244,space,0.1052,0,297,297,87,1,,,61509f0576598bbf74387211,64377358caa49780824f2e27,2023-04-12_22h15.21.284,PRaM,2021.2.3,Win32,145.5815985,61b8f3437b89212fae0dfadf
2,2.4035,space,0.726,0,298,298,183,1,,,61509f0576598bbf74387211,64377358caa49780824f2e27,2023-04-12_22h15.21.284,PRaM,2021.2.3,Win32,145.5815985,61b8f3437b89212fae0dfadf
2,1.5646,space,0.2459,0,299,299,126,1,,,61509f0576598bbf74387211,64377358caa49780824f2e27,2023-04-12_22h15.21.284,PRaM,2021.2.3,Win32,145.5815985,61b8f3437b89212fae0dfadf
7,1.7096,space,0.4347,0,300,300,260,1,,,61509f0576598bbf74387211,64377358caa49780824f2e27,2023-04-12_22h15.21.284,PRaM,2021.2.3,Win32,145.5815985,61b8f3437b89212fae0dfadf
2,3.1492,space,1.4233,0,301,301,97,1,,,61509f0576598bbf74387211,64377358caa49780824f2e27,2023-04-12_22h15.21.284,PRaM,2021.2.3,Win32,145.5815985,61b8f3437b89212fae0dfadf
2,1.1962,space,0.6523,0,302,302,171,1,,,61509f0576598bbf74387211,64377358caa49780824f2e27,2023-04-12_22h15.21.284,PRaM,2021.2.3,Win32,145.5815985,61b8f3437b89212fae0dfadf
8,1.7581,space,0.1043,0,303,303,180,1,,,61509f0576598bbf74387211,64377358caa49780824f2e27,2023-04-12_22h15.21.284,PRaM,2021.2.3,Win32,145.5815985,61b8f3437b89212fae0dfadf
2,1.5923,space,0.34,0,304,304,241,1,,,61509f0576598bbf74387211,64377358caa49780824f2e27,2023-04-12_22h15.21.284,PRaM,2021.2.3,Win32,145.5815985,61b8f3437b89212fae0dfadf
7,1.6406,space,0.1741,0,305,305,270,1,,,61509f0576598bbf74387211,64377358caa49780824f2e27,2023-04-12_22h15.21.284,PRaM,2021.2.3,Win32,145.5815985,61b8f3437b89212fae0dfadf
2,1.97,space,0.3005,0,306,306,160,1,,,61509f0576598bbf74387211,64377358caa49780824f2e27,2023-04-12_22h15.21.284,PRaM,2021.2.3,Win32,145.5815985,61b8f3437b89212fae0dfadf
2,2.224,space,0.5483,0,307,307,100,1,,,61509f0576598bbf74387211,64377358caa49780824f2e27,2023-04-12_22h15.21.284,PRaM,2021.2.3,Win32,145.5815985,61b8f3437b89212fae0dfadf
6,2.563,space,0.881,0,308,308,282,1,,,61509f0576598bbf74387211,64377358caa49780824f2e27,2023-04-12_22h15.21.284,PRaM,2021.2.3,Win32,145.5815985,61b8f3437b89212fae0dfadf
2,2.7334,space,1.0431,0,309,309,265,1,,,61509f0576598bbf74387211,64377358caa49780824f2e27,2023-04-12_22h15.21.284,PRaM,2021.2.3,Win32,145.5815985,61b8f3437b89212fae0dfadf
7,2.1337,space,0.4309,0,310,310,291,1,,,61509f0576598bbf74387211,64377358caa49780824f2e27,2023-04-12_22h15.21.284,PRaM,2021.2.3,Win32,145.5815985,61b8f3437b89212fae0dfadf
2,1.4276,space,0.0839,0,311,311,198,1,,,61509f0576598bbf74387211,64377358caa49780824f2e27,2023-04-12_22h15.21.284,PRaM,2021.2.3,Win32,145.5815985,61b8f3437b89212fae0dfadf
2,1.1377,space,0.2159,0,312,312,73,1,,,61509f0576598bbf74387211,64377358caa49780824f2e27,2023-04-12_22h15.21.284,PRaM,2021.2.3,Win32,145.5815985,61b8f3437b89212fae0dfadf
2,1.9389,space,0.2781,0,313,313,263,1,,,61509f0576598bbf74387211,64377358caa49780824f2e27,2023-04-12_22h15.21.284,PRaM,2021.2.3,Win32,145.5815985,61b8f3437b89212fae0dfadf
7,2.0916,space,0.4203,0,314,314,139,1,,,61509f0576598bbf74387211,64377358caa49780824f2e27,2023-04-12_22h15.21.284,PRaM,2021.2.3,Win32,145.5815985,61b8f3437b89212fae0dfadf
7,1.0754,space,0.1413,0,315,315,279,1,,,61509f0576598bbf74387211,64377358caa49780824f2e27,2023-04-12_22h15.21.284,PRaM,2021.2.3,Win32,145.5815985,61b8f3437b89212fae0dfadf
2,1.3494,space,0.0068,0,316,316,292,1,,,61509f0576598bbf74387211,64377358caa49780824f2e27,2023-04-12_22h15.21.284,PRaM,2021.2.3,Win32,145.5815985,61b8f3437b89212fae0dfadf
9,2.77,space,1.0986,0,317,317,29,1,,,61509f0576598bbf74387211,64377358caa49780824f2e27,2023-04-12_22h15.21.284,PRaM,2021.2.3,Win32,145.5815985,61b8f3437b89212fae0dfadf
2,1.5464,space,0.2014,0,318,318,27,1,,,61509f0576598bbf74387211,64377358caa49780824f2e27,2023-04-12_22h15.21.284,PRaM,2021.2.3,Win32,145.5815985,61b8f3437b89212fae0dfadf
8,2.4256,space,0.7638,0,319,319,83,1,,,61509f0576598bbf74387211,64377358caa49780824f2e27,2023-04-12_22h15.21.284,PRaM,2021.2.3,Win32,145.5815985,61b8f3437b89212fae0dfadf
2,2.161,space,0.4718,0,320,320,348,1,,,61509f0576598bbf74387211,64377358caa49780824f2e27,2023-04-12_22h15.21.284,PRaM,2021.2.3,Win32,145.5815985,61b8f3437b89212fae0dfadf
8,1.8069,space,0.1462,0,321,321,132,1,,,61509f0576598bbf74387211,64377358caa49780824f2e27,2023-04-12_22h15.21.284,PRaM,2021.2.3,Win32,145.5815985,61b8f3437b89212fae0dfadf
2,2.827,space,1.0822,0,322,322,94,1,,,61509f0576598bbf74387211,64377358caa49780824f2e27,2023-04-12_22h15.21.284,PRaM,2021.2.3,Win32,145.5815985,61b8f3437b89212fae0dfadf
7,1.9389,space,0.1878,0,323,323,373,1,,,61509f0576598bbf74387211,64377358caa49780824f2e27,2023-04-12_22h15.21.284,PRaM,2021.2.3,Win32,145.5815985,61b8f3437b89212fae0dfadf
7,0.9813,space,0.0137,0,324,324,145,1,,,61509f0576598bbf74387211,64377358caa49780824f2e27,2023-04-12_22h15.21.284,PRaM,2021.2.3,Win32,145.5815985,61b8f3437b89212fae0dfadf
8,1.9594,space,0.2029,0,325,325,288,1,,,61509f0576598bbf74387211,64377358caa49780824f2e27,2023-04-12_22h15.21.284,PRaM,2021.2.3,Win32,145.5815985,61b8f3437b89212fae0dfadf
2,1.7586,space,0.0421,0,326,326,266,1,,,61509f0576598bbf74387211,64377358caa49780824f2e27,2023-04-12_22h15.21.284,PRaM,2021.2.3,Win32,145.5815985,61b8f3437b89212fae0dfadf
8,1.8132,space,0.0636,0,327,327,30,1,,,61509f0576598bbf74387211,64377358caa49780824f2e27,2023-04-12_22h15.21.284,PRaM,2021.2.3,Win32,145.5815985,61b8f3437b89212fae0dfadf
3,1.914,space,0.2016,0,328,328,376,1,,,61509f0576598bbf74387211,64377358caa49780824f2e27,2023-04-12_22h15.21.284,PRaM,2021.2.3,Win32,145.5815985,61b8f3437b89212fae0dfadf
3,0.943,space,0.0141,0,329,329,272,1,,,61509f0576598bbf74387211,64377358caa49780824f2e27,2023-04-12_22h15.21.284,PRaM,2021.2.3,Win32,145.5815985,61b8f3437b89212fae0dfadf
2,3.1845,space,1.5149,0,330,330,175,1,,,61509f0576598bbf74387211,64377358caa49780824f2e27,2023-04-12_22h15.21.284,PRaM,2021.2.3,Win32,145.5815985,61b8f3437b89212fae0dfadf
3,2.5283,space,0.7871,0,331,331,363,1,,,61509f0576598bbf74387211,64377358caa49780824f2e27,2023-04-12_22h15.21.284,PRaM,2021.2.3,Win32,145.5815985,61b8f3437b89212fae0dfadf
2,1.759,space,0.0444,0,332,332,70,1,,,61509f0576598bbf74387211,64377358caa49780824f2e27,2023-04-12_22h15.21.284,PRaM,2021.2.3,Win32,145.5815985,61b8f3437b89212fae0dfadf
1,1.4712,space,0.2651,0,333,333,275,1,,,61509f0576598bbf74387211,64377358caa49780824f2e27,2023-04-12_22h15.21.284,PRaM,2021.2.3,Win32,145.5815985,61b8f3437b89212fae0dfadf
7,1.5363,space,0.5206,0,334,334,208,1,,,61509f0576598bbf74387211,64377358caa49780824f2e27,2023-04-12_22h15.21.284,PRaM,2021.2.3,Win32,145.5815985,61b8f3437b89212fae0dfadf
8,1.6019,space,0.7012,0,335,335,118,1,,,61509f0576598bbf74387211,64377358caa49780824f2e27,2023-04-12_22h15.21.284,PRaM,2021.2.3,Win32,145.5815985,61b8f3437b89212fae0dfadf
2,1.4601,space,0.5273,0,336,336,54,1,,,61509f0576598bbf74387211,64377358caa49780824f2e27,2023-04-12_22h15.21.284,PRaM,2021.2.3,Win32,145.5815985,61b8f3437b89212fae0dfadf
7,1.5517,space,0.1042,0,337,337,42,1,,,61509f0576598bbf74387211,64377358caa49780824f2e27,2023-04-12_22h15.21.284,PRaM,2021.2.3,Win32,145.5815985,61b8f3437b89212fae0dfadf
6,2.5145,space,0.8327,0,338,338,32,1,,,61509f0576598bbf74387211,64377358caa49780824f2e27,2023-04-12_22h15.21.284,PRaM,2021.2.3,Win32,145.5815985,61b8f3437b89212fae0dfadf
9,2.6796,space,0.9888,0,339,339,320,1,,,61509f0576598bbf74387211,64377358caa49780824f2e27,2023-04-12_22h15.21.284,PRaM,2021.2.3,Win32,145.5815985,61b8f3437b89212fae0dfadf
2,2.5156,space,0.7918,0,340,340,76,1,,,61509f0576598bbf74387211,64377358caa49780824f2e27,2023-04-12_22h15.21.284,PRaM,2021.2.3,Win32,145.5815985,61b8f3437b89212fae0dfadf
6,3.436,space,1.7698,0,341,341,219,1,,,61509f0576598bbf74387211,64377358caa49780824f2e27,2023-04-12_22h15.21.284,PRaM,2021.2.3,Win32,145.5815985,61b8f3437b89212fae0dfadf
4,2.1889,space,0.4729,0,342,342,366,1,,,61509f0576598bbf74387211,64377358caa49780824f2e27,2023-04-12_22h15.21.284,PRaM,2021.2.3,Win32,145.5815985,61b8f3437b89212fae0dfadf
1,2.342,space,0.5432,0,343,343,245,1,,,61509f0576598bbf74387211,64377358caa49780824f2e27,2023-04-12_22h15.21.284,PRaM,2021.2.3,Win32,145.5815985,61b8f3437b89212fae0dfadf
4,2.8965,space,1.1799,0,344,344,322,1,,,61509f0576598bbf74387211,64377358caa49780824f2e27,2023-04-12_22h15.21.284,PRaM,2021.2.3,Win32,145.5815985,61b8f3437b89212fae0dfadf
8,1.8973,space,0.1737,0,345,345,276,1,,,61509f0576598bbf74387211,64377358caa49780824f2e27,2023-04-12_22h15.21.284,PRaM,2021.2.3,Win32,145.5815985,61b8f3437b89212fae0dfadf
2,1.7306,space,0.3634,0,346,346,281,1,,,61509f0576598bbf74387211,64377358caa49780824f2e27,2023-04-12_22h15.21.284,PRaM,2021.2.3,Win32,145.5815985,61b8f3437b89212fae0dfadf
,,space,0.6941,0,347,347,318,1,,,61509f0576598bbf74387211,64377358caa49780824f2e27,2023-04-12_22h15.21.284,PRaM,2021.2.3,Win32,145.5815985,61b8f3437b89212fae0dfadf
8,2.1263,space,0.3822,0,348,348,225,1,,,61509f0576598bbf74387211,64377358caa49780824f2e27,2023-04-12_22h15.21.284,PRaM,2021.2.3,Win32,145.5815985,61b8f3437b89212fae0dfadf
2,2.0842,space,0.3499,0,349,349,258,1,,,61509f0576598bbf74387211,64377358caa49780824f2e27,2023-04-12_22h15.21.284,PRaM,2021.2.3,Win32,145.5815985,61b8f3437b89212fae0dfadf
4,2.4347,space,0.6817,0,350,350,268,1,,,61509f0576598bbf74387211,64377358caa49780824f2e27,2023-04-12_22h15.21.284,PRaM,2021.2.3,Win32,145.5815985,61b8f3437b89212fae0dfadf
7,1.6697,space,0.302,0,351,351,56,1,,,61509f0576598bbf74387211,64377358caa49780824f2e27,2023-04-12_22h15.21.284,PRaM,2021.2.3,Win32,145.5815985,61b8f3437b89212fae0dfadf
3,2.1606,space,0.6618,0,352,352,18,1,,,61509f0576598bbf74387211,64377358caa49780824f2e27,2023-04-12_22h15.21.284,PRaM,2021.2.3,Win32,145.5815985,61b8f3437b89212fae0dfadf
2,1.5366,space,0.1668,0,353,353,91,1,,,61509f0576598bbf74387211,64377358caa49780824f2e27,2023-04-12_22h15.21.284,PRaM,2021.2.3,Win32,145.5815985,61b8f3437b89212fae0dfadf
2,2.0802,space,0.4378,0,354,354,116,1,,,61509f0576598bbf74387211,64377358caa49780824f2e27,2023-04-12_22h15.21.284,PRaM,2021.2.3,Win32,145.5815985,61b8f3437b89212fae0dfadf
2,0.9203,space,0.3821,0,355,355,343,1,,,61509f0576598bbf74387211,64377358caa49780824f2e27,2023-04-12_22h15.21.284,PRaM,2021.2.3,Win32,145.5815985,61b8f3437b89212fae0dfadf
8,2.473,space,0.5224,0,356,356,12,1,,,61509f0576598bbf74387211,64377358caa49780824f2e27,2023-04-12_22h15.21.284,PRaM,2021.2.3,Win32,145.5815985,61b8f3437b89212fae0dfadf
2,1.5295,space,0.1476,0,357,357,82,1,,,61509f0576598bbf74387211,64377358caa49780824f2e27,2023-04-12_22h15.21.284,PRaM,2021.2.3,Win32,145.5815985,61b8f3437b89212fae0dfadf
7,1.5313,space,0.2433,0,358,358,233,1,,,61509f0576598bbf74387211,64377358caa49780824f2e27,2023-04-12_22h15.21.284,PRaM,2021.2.3,Win32,145.5815985,61b8f3437b89212fae0dfadf
5,1.7862,space,0.0626,0,359,359,174,1,,,61509f0576598bbf74387211,64377358caa49780824f2e27,2023-04-12_22h15.21.284,PRaM,2021.2.3,Win32,145.5815985,61b8f3437b89212fae0dfadf
7,2.619,space,0.9299,0,360,360,166,1,,,61509f0576598bbf74387211,64377358caa49780824f2e27,2023-04-12_22h15.21.284,PRaM,2021.2.3,Win32,145.5815985,61b8f3437b89212fae0dfadf
3,1.699,space,0.3446,0,361,361,152,1,,,61509f0576598bbf74387211,64377358caa49780824f2e27,2023-04-12_22h15.21.284,PRaM,2021.2.3,Win32,145.5815985,61b8f3437b89212fae0dfadf
4,2.5355,space,0.7911,0,362,362,169,1,,,61509f0576598bbf74387211,64377358caa49780824f2e27,2023-04-12_22h15.21.284,PRaM,2021.2.3,Win32,145.5815985,61b8f3437b89212fae0dfadf
2,1.637,space,0.2086,0,363,363,191,1,,,61509f0576598bbf74387211,64377358caa49780824f2e27,2023-04-12_22h15.21.284,PRaM,2021.2.3,Win32,145.5815985,61b8f3437b89212fae0dfadf
8,1.8866,space,0.1908,0,364,364,14,1,,,61509f0576598bbf74387211,64377358caa49780824f2e27,2023-04-12_22h15.21.284,PRaM,2021.2.3,Win32,145.5815985,61b8f3437b89212fae0dfadf
2,2.9372,space,1.2225,0,365,365,353,1,,,61509f0576598bbf74387211,64377358caa49780824f2e27,2023-04-12_22h15.21.284,PRaM,2021.2.3,Win32,145.5815985,61b8f3437b89212fae0dfadf
8,2.1409,space,0.4303,0,366,366,117,1,,,61509f0576598bbf74387211,64377358caa49780824f2e27,2023-04-12_22h15.21.284,PRaM,2021.2.3,Win32,145.5815985,61b8f3437b89212fae0dfadf
6,2.4539,space,0.7493,0,367,367,346,1,,,61509f0576598bbf74387211,64377358caa49780824f2e27,2023-04-12_22h15.21.284,PRaM,2021.2.3,Win32,145.5815985,61b8f3437b89212fae0dfadf
4,1.8698,space,0.0552,0,368,368,358,1,,,61509f0576598bbf74387211,64377358caa49780824f2e27,2023-04-12_22h15.21.284,PRaM,2021.2.3,Win32,145.5815985,61b8f3437b89212fae0dfadf
3,2.246,space,0.5486,0,369,369,130,1,,,61509f0576598bbf74387211,64377358caa49780824f2e27,2023-04-12_22h15.21.284,PRaM,2021.2.3,Win32,145.5815985,61b8f3437b89212fae0dfadf
2,2.009,space,0.3687,0,370,370,300,1,,,61509f0576598bbf74387211,64377358caa49780824f2e27,2023-04-12_22h15.21.284,PRaM,2021.2.3,Win32,145.5815985,61b8f3437b89212fae0dfadf
2,1.6131,space,0.3897,0,371,371,55,1,,,61509f0576598bbf74387211,64377358caa49780824f2e27,2023-04-12_22h15.21.284,PRaM,2021.2.3,Win32,145.5815985,61b8f3437b89212fae0dfadf
7,2.1371,space,0.4791,0,372,372,194,1,,,61509f0576598bbf74387211,64377358caa49780824f2e27,2023-04-12_22h15.21.284,PRaM,2021.2.3,Win32,145.5815985,61b8f3437b89212fae0dfadf
7,2.0311,space,0.3684,0,373,373,66,1,,,61509f0576598bbf74387211,64377358caa49780824f2e27,2023-04-12_22h15.21.284,PRaM,2021.2.3,Win32,145.5815985,61b8f3437b89212fae0dfadf
8,2.0218,space,0.3053,0,374,374,38,1,,,61509f0576598bbf74387211,64377358caa49780824f2e27,2023-04-12_22h15.21.284,PRaM,2021.2.3,Win32,145.5815985,61b8f3437b89212fae0dfadf
2,1.6957,space,0.0459,0,375,375,316,1,,,61509f0576598bbf74387211,64377358caa49780824f2e27,2023-04-12_22h15.21.284,PRaM,2021.2.3,Win32,145.5815985,61b8f3437b89212fae0dfadf
7,1.7927,space,0.1177,0,376,376,45,1,,,61509f0576598bbf74387211,64377358caa49780824f2e27,2023-04-12_22h15.21.284,PRaM,2021.2.3,Win32,145.5815985,61b8f3437b89212fae0dfadf
2,1.7032,space,0.2919,0,377,377,256,1,,,61509f0576598bbf74387211,64377358caa49780824f2e27,2023-04-12_22h15.21.284,PRaM,2021.2.3,Win32,145.5815985,61b8f3437b89212fae0dfadf
