Rating.response,Rating.rt,EndTrial.keys,EndTrial.rt,trials.thisRepN,trials.thisTrialN,trials.thisN,trials.thisIndex,trials.ran,Pos1,Pos2,participant,session,date,expName,psychopyVersion,OS,frameRate,study_id
,,space,3.687,0,0,0,348,1,,,6156fef09d1ab07148870099,64391620a88898fa1901ec2c,2023-04-14_10h00.48.662,PRaM,2021.2.3,Win32,60.3682463,61b8f3437b89212fae0dfadf
,,space,3.7456,0,1,1,319,1,,,6156fef09d1ab07148870099,64391620a88898fa1901ec2c,2023-04-14_10h00.48.662,PRaM,2021.2.3,Win32,60.3682463,61b8f3437b89212fae0dfadf
1,8.2126,space,7.5066,0,2,2,344,1,,,6156fef09d1ab07148870099,64391620a88898fa1901ec2c,2023-04-14_10h00.48.662,PRaM,2021.2.3,Win32,60.3682463,61b8f3437b89212fae0dfadf
8,43.7438,space,42.5936,0,3,3,291,1,,,6156fef09d1ab07148870099,64391620a88898fa1901ec2c,2023-04-14_10h00.48.662,PRaM,2021.2.3,Win32,60.3682463,61b8f3437b89212fae0dfadf
6,7.5761,space,5.9514,0,4,4,116,1,,,6156fef09d1ab07148870099,64391620a88898fa1901ec2c,2023-04-14_10h00.48.662,PRaM,2021.2.3,Win32,60.3682463,61b8f3437b89212fae0dfadf
1,2.82,space,1.7655,0,5,5,345,1,,,6156fef09d1ab07148870099,64391620a88898fa1901ec2c,2023-04-14_10h00.48.662,PRaM,2021.2.3,Win32,60.3682463,61b8f3437b89212fae0dfadf
1,4.4865,space,3.8365,0,6,6,175,1,,,6156fef09d1ab07148870099,64391620a88898fa1901ec2c,2023-04-14_10h00.48.662,PRaM,2021.2.3,Win32,60.3682463,61b8f3437b89212fae0dfadf
1,1.5281,space,0.9657,0,7,7,287,1,,,6156fef09d1ab07148870099,64391620a88898fa1901ec2c,2023-04-14_10h00.48.662,PRaM,2021.2.3,Win32,60.3682463,61b8f3437b89212fae0dfadf
1,3.4364,space,1.8834,0,8,8,23,1,,,6156fef09d1ab07148870099,64391620a88898fa1901ec2c,2023-04-14_10h00.48.662,PRaM,2021.2.3,Win32,60.3682463,61b8f3437b89212fae0dfadf
7,3.3241,space,1.7283,0,9,9,38,1,,,6156fef09d1ab07148870099,64391620a88898fa1901ec2c,2023-04-14_10h00.48.662,PRaM,2021.2.3,Win32,60.3682463,61b8f3437b89212fae0dfadf
2,5.9941,space,4.3635,0,10,10,120,1,,,6156fef09d1ab07148870099,64391620a88898fa1901ec2c,2023-04-14_10h00.48.662,PRaM,2021.2.3,Win32,60.3682463,61b8f3437b89212fae0dfadf
3,6.2071,space,4.5834,0,11,11,373,1,,,6156fef09d1ab07148870099,64391620a88898fa1901ec2c,2023-04-14_10h00.48.662,PRaM,2021.2.3,Win32,60.3682463,61b8f3437b89212fae0dfadf
2,4.6771,space,3.0389,0,12,12,230,1,,,6156fef09d1ab07148870099,64391620a88898fa1901ec2c,2023-04-14_10h00.48.662,PRaM,2021.2.3,Win32,60.3682463,61b8f3437b89212fae0dfadf
2,3.5107,space,1.7508,0,13,13,88,1,,,6156fef09d1ab07148870099,64391620a88898fa1901ec2c,2023-04-14_10h00.48.662,PRaM,2021.2.3,Win32,60.3682463,61b8f3437b89212fae0dfadf
5,2.4213,space,0.5483,0,14,14,0,1,,,6156fef09d1ab07148870099,64391620a88898fa1901ec2c,2023-04-14_10h00.48.662,PRaM,2021.2.3,Win32,60.3682463,61b8f3437b89212fae0dfadf
1,2.2903,space,0.6296,0,15,15,234,1,,,6156fef09d1ab07148870099,64391620a88898fa1901ec2c,2023-04-14_10h00.48.662,PRaM,2021.2.3,Win32,60.3682463,61b8f3437b89212fae0dfadf
1,3.5681,space,2.1031,0,16,16,171,1,,,6156fef09d1ab07148870099,64391620a88898fa1901ec2c,2023-04-14_10h00.48.662,PRaM,2021.2.3,Win32,60.3682463,61b8f3437b89212fae0dfadf
2,3.4199,space,1.5723,0,17,17,311,1,,,6156fef09d1ab07148870099,64391620a88898fa1901ec2c,2023-04-14_10h00.48.662,PRaM,2021.2.3,Win32,60.3682463,61b8f3437b89212fae0dfadf
4,4.8954,space,3.2497,0,18,18,28,1,,,6156fef09d1ab07148870099,64391620a88898fa1901ec2c,2023-04-14_10h00.48.662,PRaM,2021.2.3,Win32,60.3682463,61b8f3437b89212fae0dfadf
5,21.8692,space,20.2182,0,19,19,306,1,,,6156fef09d1ab07148870099,64391620a88898fa1901ec2c,2023-04-14_10h00.48.662,PRaM,2021.2.3,Win32,60.3682463,61b8f3437b89212fae0dfadf
6,3.3705,space,1.7375,0,20,20,301,1,,,6156fef09d1ab07148870099,64391620a88898fa1901ec2c,2023-04-14_10h00.48.662,PRaM,2021.2.3,Win32,60.3682463,61b8f3437b89212fae0dfadf
1,3.2441,space,1.5683,0,21,21,101,1,,,6156fef09d1ab07148870099,64391620a88898fa1901ec2c,2023-04-14_10h00.48.662,PRaM,2021.2.3,Win32,60.3682463,61b8f3437b89212fae0dfadf
6,3.4459,space,1.7614,0,22,22,213,1,,,6156fef09d1ab07148870099,64391620a88898fa1901ec2c,2023-04-14_10h00.48.662,PRaM,2021.2.3,Win32,60.3682463,61b8f3437b89212fae0dfadf
3,5.1027,space,3.1822,0,23,23,205,1,,,6156fef09d1ab07148870099,64391620a88898fa1901ec2c,2023-04-14_10h00.48.662,PRaM,2021.2.3,Win32,60.3682463,61b8f3437b89212fae0dfadf
1,9.0033,space,7.3844,0,24,24,374,1,,,6156fef09d1ab07148870099,64391620a88898fa1901ec2c,2023-04-14_10h00.48.662,PRaM,2021.2.3,Win32,60.3682463,61b8f3437b89212fae0dfadf
2,7.092,space,5.4274,0,25,25,337,1,,,6156fef09d1ab07148870099,64391620a88898fa1901ec2c,2023-04-14_10h00.48.662,PRaM,2021.2.3,Win32,60.3682463,61b8f3437b89212fae0dfadf
5,2.5892,space,0.917,0,26,26,282,1,,,6156fef09d1ab07148870099,64391620a88898fa1901ec2c,2023-04-14_10h00.48.662,PRaM,2021.2.3,Win32,60.3682463,61b8f3437b89212fae0dfadf
1,2.4237,space,0.8156,0,27,27,170,1,,,6156fef09d1ab07148870099,64391620a88898fa1901ec2c,2023-04-14_10h00.48.662,PRaM,2021.2.3,Win32,60.3682463,61b8f3437b89212fae0dfadf
4,3.1001,space,1.5434,0,28,28,371,1,,,6156fef09d1ab07148870099,64391620a88898fa1901ec2c,2023-04-14_10h00.48.662,PRaM,2021.2.3,Win32,60.3682463,61b8f3437b89212fae0dfadf
1,3.3867,space,1.7119,0,29,29,48,1,,,6156fef09d1ab07148870099,64391620a88898fa1901ec2c,2023-04-14_10h00.48.662,PRaM,2021.2.3,Win32,60.3682463,61b8f3437b89212fae0dfadf
1,2.0427,space,0.3846,0,30,30,198,1,,,6156fef09d1ab07148870099,64391620a88898fa1901ec2c,2023-04-14_10h00.48.662,PRaM,2021.2.3,Win32,60.3682463,61b8f3437b89212fae0dfadf
1,3.291,space,1.5228,0,31,31,356,1,,,6156fef09d1ab07148870099,64391620a88898fa1901ec2c,2023-04-14_10h00.48.662,PRaM,2021.2.3,Win32,60.3682463,61b8f3437b89212fae0dfadf
2,2.5562,space,0.8044,0,32,32,160,1,,,6156fef09d1ab07148870099,64391620a88898fa1901ec2c,2023-04-14_10h00.48.662,PRaM,2021.2.3,Win32,60.3682463,61b8f3437b89212fae0dfadf
5,2.8034,space,0.9427,0,33,33,278,1,,,6156fef09d1ab07148870099,64391620a88898fa1901ec2c,2023-04-14_10h00.48.662,PRaM,2021.2.3,Win32,60.3682463,61b8f3437b89212fae0dfadf
5,2.7201,space,1.0199,0,34,34,53,1,,,6156fef09d1ab07148870099,64391620a88898fa1901ec2c,2023-04-14_10h00.48.662,PRaM,2021.2.3,Win32,60.3682463,61b8f3437b89212fae0dfadf
2,4.9878,space,3.1324,0,35,35,194,1,,,6156fef09d1ab07148870099,64391620a88898fa1901ec2c,2023-04-14_10h00.48.662,PRaM,2021.2.3,Win32,60.3682463,61b8f3437b89212fae0dfadf
2,3.4006,space,1.7756,0,36,36,208,1,,,6156fef09d1ab07148870099,64391620a88898fa1901ec2c,2023-04-14_10h00.48.662,PRaM,2021.2.3,Win32,60.3682463,61b8f3437b89212fae0dfadf
3,5.8701,space,4.4221,0,37,37,219,1,,,6156fef09d1ab07148870099,64391620a88898fa1901ec2c,2023-04-14_10h00.48.662,PRaM,2021.2.3,Win32,60.3682463,61b8f3437b89212fae0dfadf
3,2.404,space,0.7776,0,38,38,238,1,,,6156fef09d1ab07148870099,64391620a88898fa1901ec2c,2023-04-14_10h00.48.662,PRaM,2021.2.3,Win32,60.3682463,61b8f3437b89212fae0dfadf
4,2.6249,space,0.8913,0,39,39,154,1,,,6156fef09d1ab07148870099,64391620a88898fa1901ec2c,2023-04-14_10h00.48.662,PRaM,2021.2.3,Win32,60.3682463,61b8f3437b89212fae0dfadf
1,1.9639,space,1.0354,0,40,40,108,1,,,6156fef09d1ab07148870099,64391620a88898fa1901ec2c,2023-04-14_10h00.48.662,PRaM,2021.2.3,Win32,60.3682463,61b8f3437b89212fae0dfadf
1,33.603,space,32.6903,0,41,41,217,1,,,6156fef09d1ab07148870099,64391620a88898fa1901ec2c,2023-04-14_10h00.48.662,PRaM,2021.2.3,Win32,60.3682463,61b8f3437b89212fae0dfadf
1,1.9543,space,0.1079,0,42,42,272,1,,,6156fef09d1ab07148870099,64391620a88898fa1901ec2c,2023-04-14_10h00.48.662,PRaM,2021.2.3,Win32,60.3682463,61b8f3437b89212fae0dfadf
2,2.82,space,0.9273,0,43,43,358,1,,,6156fef09d1ab07148870099,64391620a88898fa1901ec2c,2023-04-14_10h00.48.662,PRaM,2021.2.3,Win32,60.3682463,61b8f3437b89212fae0dfadf
6,1.6464,space,0.4435,0,44,44,43,1,,,6156fef09d1ab07148870099,64391620a88898fa1901ec2c,2023-04-14_10h00.48.662,PRaM,2021.2.3,Win32,60.3682463,61b8f3437b89212fae0dfadf
2,2.1077,space,0.276,0,45,45,303,1,,,6156fef09d1ab07148870099,64391620a88898fa1901ec2c,2023-04-14_10h00.48.662,PRaM,2021.2.3,Win32,60.3682463,61b8f3437b89212fae0dfadf
5,2.0733,space,0.384,0,46,46,7,1,,,6156fef09d1ab07148870099,64391620a88898fa1901ec2c,2023-04-14_10h00.48.662,PRaM,2021.2.3,Win32,60.3682463,61b8f3437b89212fae0dfadf
4,3.8271,space,2.468,0,47,47,256,1,,,6156fef09d1ab07148870099,64391620a88898fa1901ec2c,2023-04-14_10h00.48.662,PRaM,2021.2.3,Win32,60.3682463,61b8f3437b89212fae0dfadf
1,8.456,space,6.8615,0,48,48,44,1,,,6156fef09d1ab07148870099,64391620a88898fa1901ec2c,2023-04-14_10h00.48.662,PRaM,2021.2.3,Win32,60.3682463,61b8f3437b89212fae0dfadf
5,8.2567,space,6.6204,0,49,49,149,1,,,6156fef09d1ab07148870099,64391620a88898fa1901ec2c,2023-04-14_10h00.48.662,PRaM,2021.2.3,Win32,60.3682463,61b8f3437b89212fae0dfadf
2,2.5985,space,1.0225,0,50,50,1,1,,,6156fef09d1ab07148870099,64391620a88898fa1901ec2c,2023-04-14_10h00.48.662,PRaM,2021.2.3,Win32,60.3682463,61b8f3437b89212fae0dfadf
3,2.8613,space,1.122,0,51,51,158,1,,,6156fef09d1ab07148870099,64391620a88898fa1901ec2c,2023-04-14_10h00.48.662,PRaM,2021.2.3,Win32,60.3682463,61b8f3437b89212fae0dfadf
2,37.7869,space,36.1346,0,52,52,172,1,,,6156fef09d1ab07148870099,64391620a88898fa1901ec2c,2023-04-14_10h00.48.662,PRaM,2021.2.3,Win32,60.3682463,61b8f3437b89212fae0dfadf
9,1.97,space,2.6537,0,53,53,326,1,,,6156fef09d1ab07148870099,64391620a88898fa1901ec2c,2023-04-14_10h00.48.662,PRaM,2021.2.3,Win32,60.3682463,61b8f3437b89212fae0dfadf
5,2.9814,space,1.3701,0,54,54,333,1,,,6156fef09d1ab07148870099,64391620a88898fa1901ec2c,2023-04-14_10h00.48.662,PRaM,2021.2.3,Win32,60.3682463,61b8f3437b89212fae0dfadf
7,2.8392,space,1.2519,0,55,55,51,1,,,6156fef09d1ab07148870099,64391620a88898fa1901ec2c,2023-04-14_10h00.48.662,PRaM,2021.2.3,Win32,60.3682463,61b8f3437b89212fae0dfadf
2,2.8376,space,1.1995,0,56,56,82,1,,,6156fef09d1ab07148870099,64391620a88898fa1901ec2c,2023-04-14_10h00.48.662,PRaM,2021.2.3,Win32,60.3682463,61b8f3437b89212fae0dfadf
7,3.8258,space,2.0716,0,57,57,355,1,,,6156fef09d1ab07148870099,64391620a88898fa1901ec2c,2023-04-14_10h00.48.662,PRaM,2021.2.3,Win32,60.3682463,61b8f3437b89212fae0dfadf
5,2.6722,space,1.001,0,58,58,148,1,,,6156fef09d1ab07148870099,64391620a88898fa1901ec2c,2023-04-14_10h00.48.662,PRaM,2021.2.3,Win32,60.3682463,61b8f3437b89212fae0dfadf
3,4.662,space,2.9877,0,59,59,150,1,,,6156fef09d1ab07148870099,64391620a88898fa1901ec2c,2023-04-14_10h00.48.662,PRaM,2021.2.3,Win32,60.3682463,61b8f3437b89212fae0dfadf
2,16.8037,space,15.5724,0,60,60,169,1,,,6156fef09d1ab07148870099,64391620a88898fa1901ec2c,2023-04-14_10h00.48.662,PRaM,2021.2.3,Win32,60.3682463,61b8f3437b89212fae0dfadf
8,3.2113,space,1.5495,0,61,61,328,1,,,6156fef09d1ab07148870099,64391620a88898fa1901ec2c,2023-04-14_10h00.48.662,PRaM,2021.2.3,Win32,60.3682463,61b8f3437b89212fae0dfadf
2,1.992,space,0.5187,0,62,62,8,1,,,6156fef09d1ab07148870099,64391620a88898fa1901ec2c,2023-04-14_10h00.48.662,PRaM,2021.2.3,Win32,60.3682463,61b8f3437b89212fae0dfadf
1,1.849,space,0.1431,0,63,63,316,1,,,6156fef09d1ab07148870099,64391620a88898fa1901ec2c,2023-04-14_10h00.48.662,PRaM,2021.2.3,Win32,60.3682463,61b8f3437b89212fae0dfadf
5,3.1809,space,1.5366,0,64,64,69,1,,,6156fef09d1ab07148870099,64391620a88898fa1901ec2c,2023-04-14_10h00.48.662,PRaM,2021.2.3,Win32,60.3682463,61b8f3437b89212fae0dfadf
1,4.4871,space,2.8249,0,65,65,176,1,,,6156fef09d1ab07148870099,64391620a88898fa1901ec2c,2023-04-14_10h00.48.662,PRaM,2021.2.3,Win32,60.3682463,61b8f3437b89212fae0dfadf
2,9.7996,space,9.2749,0,66,66,24,1,,,6156fef09d1ab07148870099,64391620a88898fa1901ec2c,2023-04-14_10h00.48.662,PRaM,2021.2.3,Win32,60.3682463,61b8f3437b89212fae0dfadf
1,1.8727,space,0.2663,0,67,67,376,1,,,6156fef09d1ab07148870099,64391620a88898fa1901ec2c,2023-04-14_10h00.48.662,PRaM,2021.2.3,Win32,60.3682463,61b8f3437b89212fae0dfadf
5,1.8529,space,0.7697,0,68,68,45,1,,,6156fef09d1ab07148870099,64391620a88898fa1901ec2c,2023-04-14_10h00.48.662,PRaM,2021.2.3,Win32,60.3682463,61b8f3437b89212fae0dfadf
1,1.9478,space,0.4448,0,69,69,377,1,,,6156fef09d1ab07148870099,64391620a88898fa1901ec2c,2023-04-14_10h00.48.662,PRaM,2021.2.3,Win32,60.3682463,61b8f3437b89212fae0dfadf
6,2.9539,space,1.2841,0,70,70,6,1,,,6156fef09d1ab07148870099,64391620a88898fa1901ec2c,2023-04-14_10h00.48.662,PRaM,2021.2.3,Win32,60.3682463,61b8f3437b89212fae0dfadf
7,9.9812,space,8.3081,0,71,71,166,1,,,6156fef09d1ab07148870099,64391620a88898fa1901ec2c,2023-04-14_10h00.48.662,PRaM,2021.2.3,Win32,60.3682463,61b8f3437b89212fae0dfadf
5,2.4965,space,1.1166,0,72,72,216,1,,,6156fef09d1ab07148870099,64391620a88898fa1901ec2c,2023-04-14_10h00.48.662,PRaM,2021.2.3,Win32,60.3682463,61b8f3437b89212fae0dfadf
3,10.8028,space,9.7427,0,73,73,199,1,,,6156fef09d1ab07148870099,64391620a88898fa1901ec2c,2023-04-14_10h00.48.662,PRaM,2021.2.3,Win32,60.3682463,61b8f3437b89212fae0dfadf
1,2.8436,space,1.1966,0,74,74,231,1,,,6156fef09d1ab07148870099,64391620a88898fa1901ec2c,2023-04-14_10h00.48.662,PRaM,2021.2.3,Win32,60.3682463,61b8f3437b89212fae0dfadf
1,1.8305,space,1.2372,0,75,75,58,1,,,6156fef09d1ab07148870099,64391620a88898fa1901ec2c,2023-04-14_10h00.48.662,PRaM,2021.2.3,Win32,60.3682463,61b8f3437b89212fae0dfadf
1,1.4084,space,0.8206,0,76,76,113,1,,,6156fef09d1ab07148870099,64391620a88898fa1901ec2c,2023-04-14_10h00.48.662,PRaM,2021.2.3,Win32,60.3682463,61b8f3437b89212fae0dfadf
5,17.6634,space,15.9008,0,77,77,209,1,,,6156fef09d1ab07148870099,64391620a88898fa1901ec2c,2023-04-14_10h00.48.662,PRaM,2021.2.3,Win32,60.3682463,61b8f3437b89212fae0dfadf
5,4.4265,space,2.7768,0,78,78,293,1,,,6156fef09d1ab07148870099,64391620a88898fa1901ec2c,2023-04-14_10h00.48.662,PRaM,2021.2.3,Win32,60.3682463,61b8f3437b89212fae0dfadf
6,4.2984,space,2.5388,0,79,79,66,1,,,6156fef09d1ab07148870099,64391620a88898fa1901ec2c,2023-04-14_10h00.48.662,PRaM,2021.2.3,Win32,60.3682463,61b8f3437b89212fae0dfadf
2,2.0646,space,0.4623,0,80,80,95,1,,,6156fef09d1ab07148870099,64391620a88898fa1901ec2c,2023-04-14_10h00.48.662,PRaM,2021.2.3,Win32,60.3682463,61b8f3437b89212fae0dfadf
8,3.5928,space,1.954,0,81,81,59,1,,,6156fef09d1ab07148870099,64391620a88898fa1901ec2c,2023-04-14_10h00.48.662,PRaM,2021.2.3,Win32,60.3682463,61b8f3437b89212fae0dfadf
1,2.0866,space,0.2797,0,82,82,39,1,,,6156fef09d1ab07148870099,64391620a88898fa1901ec2c,2023-04-14_10h00.48.662,PRaM,2021.2.3,Win32,60.3682463,61b8f3437b89212fae0dfadf
1,1.6425,space,0.5704,0,83,83,10,1,,,6156fef09d1ab07148870099,64391620a88898fa1901ec2c,2023-04-14_10h00.48.662,PRaM,2021.2.3,Win32,60.3682463,61b8f3437b89212fae0dfadf
3,2.5368,space,0.9128,0,84,84,55,1,,,6156fef09d1ab07148870099,64391620a88898fa1901ec2c,2023-04-14_10h00.48.662,PRaM,2021.2.3,Win32,60.3682463,61b8f3437b89212fae0dfadf
1,2.0863,space,0.4667,0,85,85,13,1,,,6156fef09d1ab07148870099,64391620a88898fa1901ec2c,2023-04-14_10h00.48.662,PRaM,2021.2.3,Win32,60.3682463,61b8f3437b89212fae0dfadf
9,1.8937,space,0.225,0,86,86,320,1,,,6156fef09d1ab07148870099,64391620a88898fa1901ec2c,2023-04-14_10h00.48.662,PRaM,2021.2.3,Win32,60.3682463,61b8f3437b89212fae0dfadf
1,1.7241,space,0.7315,0,87,87,332,1,,,6156fef09d1ab07148870099,64391620a88898fa1901ec2c,2023-04-14_10h00.48.662,PRaM,2021.2.3,Win32,60.3682463,61b8f3437b89212fae0dfadf
1,1.4763,space,0.3825,0,88,88,299,1,,,6156fef09d1ab07148870099,64391620a88898fa1901ec2c,2023-04-14_10h00.48.662,PRaM,2021.2.3,Win32,60.3682463,61b8f3437b89212fae0dfadf
1,2.47,space,1.9298,0,89,89,229,1,,,6156fef09d1ab07148870099,64391620a88898fa1901ec2c,2023-04-14_10h00.48.662,PRaM,2021.2.3,Win32,60.3682463,61b8f3437b89212fae0dfadf
5,7.8878,space,6.193,0,90,90,112,1,,,6156fef09d1ab07148870099,64391620a88898fa1901ec2c,2023-04-14_10h00.48.662,PRaM,2021.2.3,Win32,60.3682463,61b8f3437b89212fae0dfadf
2,2.9322,space,1.4931,0,91,91,185,1,,,6156fef09d1ab07148870099,64391620a88898fa1901ec2c,2023-04-14_10h00.48.662,PRaM,2021.2.3,Win32,60.3682463,61b8f3437b89212fae0dfadf
7,3.8113,space,2.0894,0,92,92,259,1,,,6156fef09d1ab07148870099,64391620a88898fa1901ec2c,2023-04-14_10h00.48.662,PRaM,2021.2.3,Win32,60.3682463,61b8f3437b89212fae0dfadf
1,2.353,space,1.1343,0,93,93,109,1,,,6156fef09d1ab07148870099,64391620a88898fa1901ec2c,2023-04-14_10h00.48.662,PRaM,2021.2.3,Win32,60.3682463,61b8f3437b89212fae0dfadf
9,1.8157,space,0.184,0,94,94,197,1,,,6156fef09d1ab07148870099,64391620a88898fa1901ec2c,2023-04-14_10h00.48.662,PRaM,2021.2.3,Win32,60.3682463,61b8f3437b89212fae0dfadf
1,2.575,space,0.8995,0,95,95,318,1,,,6156fef09d1ab07148870099,64391620a88898fa1901ec2c,2023-04-14_10h00.48.662,PRaM,2021.2.3,Win32,60.3682463,61b8f3437b89212fae0dfadf
1,2.3383,space,0.6514,0,96,96,245,1,,,6156fef09d1ab07148870099,64391620a88898fa1901ec2c,2023-04-14_10h00.48.662,PRaM,2021.2.3,Win32,60.3682463,61b8f3437b89212fae0dfadf
1,4.4803,space,2.6176,0,97,97,260,1,,,6156fef09d1ab07148870099,64391620a88898fa1901ec2c,2023-04-14_10h00.48.662,PRaM,2021.2.3,Win32,60.3682463,61b8f3437b89212fae0dfadf
5,28.2281,space,26.5377,0,98,98,86,1,,,6156fef09d1ab07148870099,64391620a88898fa1901ec2c,2023-04-14_10h00.48.662,PRaM,2021.2.3,Win32,60.3682463,61b8f3437b89212fae0dfadf
5,3.5248,space,1.8438,0,99,99,269,1,,,6156fef09d1ab07148870099,64391620a88898fa1901ec2c,2023-04-14_10h00.48.662,PRaM,2021.2.3,Win32,60.3682463,61b8f3437b89212fae0dfadf
1,3.4987,space,1.8174,0,100,100,294,1,,,6156fef09d1ab07148870099,64391620a88898fa1901ec2c,2023-04-14_10h00.48.662,PRaM,2021.2.3,Win32,60.3682463,61b8f3437b89212fae0dfadf
9,2.3954,space,0.5676,0,101,101,372,1,,,6156fef09d1ab07148870099,64391620a88898fa1901ec2c,2023-04-14_10h00.48.662,PRaM,2021.2.3,Win32,60.3682463,61b8f3437b89212fae0dfadf
1,2.7455,space,1.1458,0,102,102,312,1,,,6156fef09d1ab07148870099,64391620a88898fa1901ec2c,2023-04-14_10h00.48.662,PRaM,2021.2.3,Win32,60.3682463,61b8f3437b89212fae0dfadf
3,2.5933,space,1.0061,0,103,103,63,1,,,6156fef09d1ab07148870099,64391620a88898fa1901ec2c,2023-04-14_10h00.48.662,PRaM,2021.2.3,Win32,60.3682463,61b8f3437b89212fae0dfadf
4,2.5206,space,0.8253,0,104,104,98,1,,,6156fef09d1ab07148870099,64391620a88898fa1901ec2c,2023-04-14_10h00.48.662,PRaM,2021.2.3,Win32,60.3682463,61b8f3437b89212fae0dfadf
1,4.3434,space,2.6833,0,105,105,309,1,,,6156fef09d1ab07148870099,64391620a88898fa1901ec2c,2023-04-14_10h00.48.662,PRaM,2021.2.3,Win32,60.3682463,61b8f3437b89212fae0dfadf
5,2.0696,space,0.252,0,106,106,19,1,,,6156fef09d1ab07148870099,64391620a88898fa1901ec2c,2023-04-14_10h00.48.662,PRaM,2021.2.3,Win32,60.3682463,61b8f3437b89212fae0dfadf
1,2.1694,space,0.5899,0,107,107,41,1,,,6156fef09d1ab07148870099,64391620a88898fa1901ec2c,2023-04-14_10h00.48.662,PRaM,2021.2.3,Win32,60.3682463,61b8f3437b89212fae0dfadf
3,3.1362,space,1.4847,0,108,108,15,1,,,6156fef09d1ab07148870099,64391620a88898fa1901ec2c,2023-04-14_10h00.48.662,PRaM,2021.2.3,Win32,60.3682463,61b8f3437b89212fae0dfadf
5,2.5668,space,0.9886,0,109,109,242,1,,,6156fef09d1ab07148870099,64391620a88898fa1901ec2c,2023-04-14_10h00.48.662,PRaM,2021.2.3,Win32,60.3682463,61b8f3437b89212fae0dfadf
1,3.3941,space,3.0795,0,110,110,368,1,,,6156fef09d1ab07148870099,64391620a88898fa1901ec2c,2023-04-14_10h00.48.662,PRaM,2021.2.3,Win32,60.3682463,61b8f3437b89212fae0dfadf
3,2.2022,space,0.5844,0,111,111,74,1,,,6156fef09d1ab07148870099,64391620a88898fa1901ec2c,2023-04-14_10h00.48.662,PRaM,2021.2.3,Win32,60.3682463,61b8f3437b89212fae0dfadf
5,2.6932,space,0.8048,0,112,112,64,1,,,6156fef09d1ab07148870099,64391620a88898fa1901ec2c,2023-04-14_10h00.48.662,PRaM,2021.2.3,Win32,60.3682463,61b8f3437b89212fae0dfadf
3,11.1889,space,9.5071,0,113,113,164,1,,,6156fef09d1ab07148870099,64391620a88898fa1901ec2c,2023-04-14_10h00.48.662,PRaM,2021.2.3,Win32,60.3682463,61b8f3437b89212fae0dfadf
1,2.1065,space,0.4839,0,114,114,289,1,,,6156fef09d1ab07148870099,64391620a88898fa1901ec2c,2023-04-14_10h00.48.662,PRaM,2021.2.3,Win32,60.3682463,61b8f3437b89212fae0dfadf
7,5.7375,space,4.1199,0,115,115,159,1,,,6156fef09d1ab07148870099,64391620a88898fa1901ec2c,2023-04-14_10h00.48.662,PRaM,2021.2.3,Win32,60.3682463,61b8f3437b89212fae0dfadf
4,4.2825,space,2.5856,0,116,116,255,1,,,6156fef09d1ab07148870099,64391620a88898fa1901ec2c,2023-04-14_10h00.48.662,PRaM,2021.2.3,Win32,60.3682463,61b8f3437b89212fae0dfadf
9,2.6635,space,0.9749,0,117,117,335,1,,,6156fef09d1ab07148870099,64391620a88898fa1901ec2c,2023-04-14_10h00.48.662,PRaM,2021.2.3,Win32,60.3682463,61b8f3437b89212fae0dfadf
5,4.0028,space,2.5033,0,118,118,211,1,,,6156fef09d1ab07148870099,64391620a88898fa1901ec2c,2023-04-14_10h00.48.662,PRaM,2021.2.3,Win32,60.3682463,61b8f3437b89212fae0dfadf
2,4.5863,space,3.543,0,119,119,110,1,,,6156fef09d1ab07148870099,64391620a88898fa1901ec2c,2023-04-14_10h00.48.662,PRaM,2021.2.3,Win32,60.3682463,61b8f3437b89212fae0dfadf
6,2.121,space,0.4174,0,120,120,264,1,,,6156fef09d1ab07148870099,64391620a88898fa1901ec2c,2023-04-14_10h00.48.662,PRaM,2021.2.3,Win32,60.3682463,61b8f3437b89212fae0dfadf
1,3.8778,space,2.3343,0,121,121,97,1,,,6156fef09d1ab07148870099,64391620a88898fa1901ec2c,2023-04-14_10h00.48.662,PRaM,2021.2.3,Win32,60.3682463,61b8f3437b89212fae0dfadf
1,2.0534,space,0.3715,0,122,122,257,1,,,6156fef09d1ab07148870099,64391620a88898fa1901ec2c,2023-04-14_10h00.48.662,PRaM,2021.2.3,Win32,60.3682463,61b8f3437b89212fae0dfadf
1,2.3599,space,0.6351,0,123,123,275,1,,,6156fef09d1ab07148870099,64391620a88898fa1901ec2c,2023-04-14_10h00.48.662,PRaM,2021.2.3,Win32,60.3682463,61b8f3437b89212fae0dfadf
4,2.8699,space,1.2323,0,124,124,324,1,,,6156fef09d1ab07148870099,64391620a88898fa1901ec2c,2023-04-14_10h00.48.662,PRaM,2021.2.3,Win32,60.3682463,61b8f3437b89212fae0dfadf
3,3.9014,space,2.2043,0,125,125,357,1,,,6156fef09d1ab07148870099,64391620a88898fa1901ec2c,2023-04-14_10h00.48.662,PRaM,2021.2.3,Win32,60.3682463,61b8f3437b89212fae0dfadf
1,1.744,space,0.0463,0,126,126,191,1,,,6156fef09d1ab07148870099,64391620a88898fa1901ec2c,2023-04-14_10h00.48.662,PRaM,2021.2.3,Win32,60.3682463,61b8f3437b89212fae0dfadf
2,2.2349,space,0.7871,0,127,127,281,1,,,6156fef09d1ab07148870099,64391620a88898fa1901ec2c,2023-04-14_10h00.48.662,PRaM,2021.2.3,Win32,60.3682463,61b8f3437b89212fae0dfadf
1,1.7257,space,0.1466,0,128,128,273,1,,,6156fef09d1ab07148870099,64391620a88898fa1901ec2c,2023-04-14_10h00.48.662,PRaM,2021.2.3,Win32,60.3682463,61b8f3437b89212fae0dfadf
2,5.7854,space,4.1494,0,129,129,22,1,,,6156fef09d1ab07148870099,64391620a88898fa1901ec2c,2023-04-14_10h00.48.662,PRaM,2021.2.3,Win32,60.3682463,61b8f3437b89212fae0dfadf
4,2.1215,space,0.4642,0,130,130,165,1,,,6156fef09d1ab07148870099,64391620a88898fa1901ec2c,2023-04-14_10h00.48.662,PRaM,2021.2.3,Win32,60.3682463,61b8f3437b89212fae0dfadf
2,3.3842,space,1.5254,0,131,131,93,1,,,6156fef09d1ab07148870099,64391620a88898fa1901ec2c,2023-04-14_10h00.48.662,PRaM,2021.2.3,Win32,60.3682463,61b8f3437b89212fae0dfadf
1,1.4368,space,0.5027,0,132,132,35,1,,,6156fef09d1ab07148870099,64391620a88898fa1901ec2c,2023-04-14_10h00.48.662,PRaM,2021.2.3,Win32,60.3682463,61b8f3437b89212fae0dfadf
1,1.6883,space,0.0519,0,133,133,235,1,,,6156fef09d1ab07148870099,64391620a88898fa1901ec2c,2023-04-14_10h00.48.662,PRaM,2021.2.3,Win32,60.3682463,61b8f3437b89212fae0dfadf
2,1.8577,space,0.0496,0,134,134,307,1,,,6156fef09d1ab07148870099,64391620a88898fa1901ec2c,2023-04-14_10h00.48.662,PRaM,2021.2.3,Win32,60.3682463,61b8f3437b89212fae0dfadf
1,1.6871,space,0.5831,0,135,135,204,1,,,6156fef09d1ab07148870099,64391620a88898fa1901ec2c,2023-04-14_10h00.48.662,PRaM,2021.2.3,Win32,60.3682463,61b8f3437b89212fae0dfadf
5,2.6591,space,0.851,0,136,136,221,1,,,6156fef09d1ab07148870099,64391620a88898fa1901ec2c,2023-04-14_10h00.48.662,PRaM,2021.2.3,Win32,60.3682463,61b8f3437b89212fae0dfadf
1,1.9871,space,0.2892,0,137,137,73,1,,,6156fef09d1ab07148870099,64391620a88898fa1901ec2c,2023-04-14_10h00.48.662,PRaM,2021.2.3,Win32,60.3682463,61b8f3437b89212fae0dfadf
2,2.444,space,0.7664,0,138,138,126,1,,,6156fef09d1ab07148870099,64391620a88898fa1901ec2c,2023-04-14_10h00.48.662,PRaM,2021.2.3,Win32,60.3682463,61b8f3437b89212fae0dfadf
6,2.7876,space,1.004,0,139,139,20,1,,,6156fef09d1ab07148870099,64391620a88898fa1901ec2c,2023-04-14_10h00.48.662,PRaM,2021.2.3,Win32,60.3682463,61b8f3437b89212fae0dfadf
2,3.6606,space,2.0095,0,140,140,313,1,,,6156fef09d1ab07148870099,64391620a88898fa1901ec2c,2023-04-14_10h00.48.662,PRaM,2021.2.3,Win32,60.3682463,61b8f3437b89212fae0dfadf
1,2.0418,space,0.3504,0,141,141,94,1,,,6156fef09d1ab07148870099,64391620a88898fa1901ec2c,2023-04-14_10h00.48.662,PRaM,2021.2.3,Win32,60.3682463,61b8f3437b89212fae0dfadf
3,4.059,space,2.3202,0,142,142,267,1,,,6156fef09d1ab07148870099,64391620a88898fa1901ec2c,2023-04-14_10h00.48.662,PRaM,2021.2.3,Win32,60.3682463,61b8f3437b89212fae0dfadf
9,3.5709,space,1.889,0,143,143,207,1,,,6156fef09d1ab07148870099,64391620a88898fa1901ec2c,2023-04-14_10h00.48.662,PRaM,2021.2.3,Win32,60.3682463,61b8f3437b89212fae0dfadf
4,2.4474,space,0.7686,0,144,144,83,1,,,6156fef09d1ab07148870099,64391620a88898fa1901ec2c,2023-04-14_10h00.48.662,PRaM,2021.2.3,Win32,60.3682463,61b8f3437b89212fae0dfadf
4,1.8031,space,0.0414,0,145,145,119,1,,,6156fef09d1ab07148870099,64391620a88898fa1901ec2c,2023-04-14_10h00.48.662,PRaM,2021.2.3,Win32,60.3682463,61b8f3437b89212fae0dfadf
2,3.4089,space,1.6006,0,146,146,228,1,,,6156fef09d1ab07148870099,64391620a88898fa1901ec2c,2023-04-14_10h00.48.662,PRaM,2021.2.3,Win32,60.3682463,61b8f3437b89212fae0dfadf
1,1.6722,space,1.3977,0,147,147,268,1,,,6156fef09d1ab07148870099,64391620a88898fa1901ec2c,2023-04-14_10h00.48.662,PRaM,2021.2.3,Win32,60.3682463,61b8f3437b89212fae0dfadf
5,2.2725,space,0.5674,0,148,148,222,1,,,6156fef09d1ab07148870099,64391620a88898fa1901ec2c,2023-04-14_10h00.48.662,PRaM,2021.2.3,Win32,60.3682463,61b8f3437b89212fae0dfadf
2,2.416,space,0.7362,0,149,149,342,1,,,6156fef09d1ab07148870099,64391620a88898fa1901ec2c,2023-04-14_10h00.48.662,PRaM,2021.2.3,Win32,60.3682463,61b8f3437b89212fae0dfadf
3,2.8252,space,1.0693,0,150,150,201,1,,,6156fef09d1ab07148870099,64391620a88898fa1901ec2c,2023-04-14_10h00.48.662,PRaM,2021.2.3,Win32,60.3682463,61b8f3437b89212fae0dfadf
1,3.1611,space,1.5257,0,151,151,78,1,,,6156fef09d1ab07148870099,64391620a88898fa1901ec2c,2023-04-14_10h00.48.662,PRaM,2021.2.3,Win32,60.3682463,61b8f3437b89212fae0dfadf
9,2.5949,space,1.7039,0,152,152,370,1,,,6156fef09d1ab07148870099,64391620a88898fa1901ec2c,2023-04-14_10h00.48.662,PRaM,2021.2.3,Win32,60.3682463,61b8f3437b89212fae0dfadf
2,2.3775,space,0.6291,0,153,153,34,1,,,6156fef09d1ab07148870099,64391620a88898fa1901ec2c,2023-04-14_10h00.48.662,PRaM,2021.2.3,Win32,60.3682463,61b8f3437b89212fae0dfadf
1,1.9286,space,0.4191,0,154,154,146,1,,,6156fef09d1ab07148870099,64391620a88898fa1901ec2c,2023-04-14_10h00.48.662,PRaM,2021.2.3,Win32,60.3682463,61b8f3437b89212fae0dfadf
1,1.8783,space,0.0666,0,155,155,353,1,,,6156fef09d1ab07148870099,64391620a88898fa1901ec2c,2023-04-14_10h00.48.662,PRaM,2021.2.3,Win32,60.3682463,61b8f3437b89212fae0dfadf
1,1.6564,space,0.501,0,156,156,187,1,,,6156fef09d1ab07148870099,64391620a88898fa1901ec2c,2023-04-14_10h00.48.662,PRaM,2021.2.3,Win32,60.3682463,61b8f3437b89212fae0dfadf
5,3.1281,space,1.4241,0,157,157,142,1,,,6156fef09d1ab07148870099,64391620a88898fa1901ec2c,2023-04-14_10h00.48.662,PRaM,2021.2.3,Win32,60.3682463,61b8f3437b89212fae0dfadf
1,2.6356,space,0.9509,0,158,158,254,1,,,6156fef09d1ab07148870099,64391620a88898fa1901ec2c,2023-04-14_10h00.48.662,PRaM,2021.2.3,Win32,60.3682463,61b8f3437b89212fae0dfadf
1,1.4538,space,0.4166,0,159,159,224,1,,,6156fef09d1ab07148870099,64391620a88898fa1901ec2c,2023-04-14_10h00.48.662,PRaM,2021.2.3,Win32,60.3682463,61b8f3437b89212fae0dfadf
5,2.2298,space,0.523,0,160,160,288,1,,,6156fef09d1ab07148870099,64391620a88898fa1901ec2c,2023-04-14_10h00.48.662,PRaM,2021.2.3,Win32,60.3682463,61b8f3437b89212fae0dfadf
5,3.9886,space,2.2343,0,161,161,151,1,,,6156fef09d1ab07148870099,64391620a88898fa1901ec2c,2023-04-14_10h00.48.662,PRaM,2021.2.3,Win32,60.3682463,61b8f3437b89212fae0dfadf
1,3.9704,space,2.852,0,162,162,215,1,,,6156fef09d1ab07148870099,64391620a88898fa1901ec2c,2023-04-14_10h00.48.662,PRaM,2021.2.3,Win32,60.3682463,61b8f3437b89212fae0dfadf
1,2.2984,space,1.1007,0,163,163,314,1,,,6156fef09d1ab07148870099,64391620a88898fa1901ec2c,2023-04-14_10h00.48.662,PRaM,2021.2.3,Win32,60.3682463,61b8f3437b89212fae0dfadf
1,1.9449,space,0.3356,0,164,164,247,1,,,6156fef09d1ab07148870099,64391620a88898fa1901ec2c,2023-04-14_10h00.48.662,PRaM,2021.2.3,Win32,60.3682463,61b8f3437b89212fae0dfadf
3,3.1418,space,1.4223,0,165,165,270,1,,,6156fef09d1ab07148870099,64391620a88898fa1901ec2c,2023-04-14_10h00.48.662,PRaM,2021.2.3,Win32,60.3682463,61b8f3437b89212fae0dfadf
3,2.992,space,1.2056,0,166,166,127,1,,,6156fef09d1ab07148870099,64391620a88898fa1901ec2c,2023-04-14_10h00.48.662,PRaM,2021.2.3,Win32,60.3682463,61b8f3437b89212fae0dfadf
1,1.9702,space,0.2682,0,167,167,67,1,,,6156fef09d1ab07148870099,64391620a88898fa1901ec2c,2023-04-14_10h00.48.662,PRaM,2021.2.3,Win32,60.3682463,61b8f3437b89212fae0dfadf
5,2.4028,space,0.9892,0,168,168,147,1,,,6156fef09d1ab07148870099,64391620a88898fa1901ec2c,2023-04-14_10h00.48.662,PRaM,2021.2.3,Win32,60.3682463,61b8f3437b89212fae0dfadf
2,3.0129,space,1.1056,0,169,169,153,1,,,6156fef09d1ab07148870099,64391620a88898fa1901ec2c,2023-04-14_10h00.48.662,PRaM,2021.2.3,Win32,60.3682463,61b8f3437b89212fae0dfadf
1,2.3371,space,0.791,0,170,170,70,1,,,6156fef09d1ab07148870099,64391620a88898fa1901ec2c,2023-04-14_10h00.48.662,PRaM,2021.2.3,Win32,60.3682463,61b8f3437b89212fae0dfadf
5,3.0861,space,1.429,0,171,171,347,1,,,6156fef09d1ab07148870099,64391620a88898fa1901ec2c,2023-04-14_10h00.48.662,PRaM,2021.2.3,Win32,60.3682463,61b8f3437b89212fae0dfadf
1,1.8212,space,0.167,0,172,172,212,1,,,6156fef09d1ab07148870099,64391620a88898fa1901ec2c,2023-04-14_10h00.48.662,PRaM,2021.2.3,Win32,60.3682463,61b8f3437b89212fae0dfadf
8,1.9533,space,0.2914,0,173,173,285,1,,,6156fef09d1ab07148870099,64391620a88898fa1901ec2c,2023-04-14_10h00.48.662,PRaM,2021.2.3,Win32,60.3682463,61b8f3437b89212fae0dfadf
3,2.3198,space,0.4555,0,174,174,202,1,,,6156fef09d1ab07148870099,64391620a88898fa1901ec2c,2023-04-14_10h00.48.662,PRaM,2021.2.3,Win32,60.3682463,61b8f3437b89212fae0dfadf
1,2.3114,space,0.656,0,175,175,77,1,,,6156fef09d1ab07148870099,64391620a88898fa1901ec2c,2023-04-14_10h00.48.662,PRaM,2021.2.3,Win32,60.3682463,61b8f3437b89212fae0dfadf
7,7.3651,space,5.7032,0,176,176,17,1,,,6156fef09d1ab07148870099,64391620a88898fa1901ec2c,2023-04-14_10h00.48.662,PRaM,2021.2.3,Win32,60.3682463,61b8f3437b89212fae0dfadf
1,2.1075,space,0.4827,0,177,177,359,1,,,6156fef09d1ab07148870099,64391620a88898fa1901ec2c,2023-04-14_10h00.48.662,PRaM,2021.2.3,Win32,60.3682463,61b8f3437b89212fae0dfadf
1,1.4603,space,0.3503,0,178,178,218,1,,,6156fef09d1ab07148870099,64391620a88898fa1901ec2c,2023-04-14_10h00.48.662,PRaM,2021.2.3,Win32,60.3682463,61b8f3437b89212fae0dfadf
1,1.3915,space,0.2333,0,179,179,157,1,,,6156fef09d1ab07148870099,64391620a88898fa1901ec2c,2023-04-14_10h00.48.662,PRaM,2021.2.3,Win32,60.3682463,61b8f3437b89212fae0dfadf
1,3.1695,space,1.4886,0,180,180,233,1,,,6156fef09d1ab07148870099,64391620a88898fa1901ec2c,2023-04-14_10h00.48.662,PRaM,2021.2.3,Win32,60.3682463,61b8f3437b89212fae0dfadf
6,3.1757,space,1.8176,0,181,181,366,1,,,6156fef09d1ab07148870099,64391620a88898fa1901ec2c,2023-04-14_10h00.48.662,PRaM,2021.2.3,Win32,60.3682463,61b8f3437b89212fae0dfadf
2,2.3434,space,0.6961,0,182,182,71,1,,,6156fef09d1ab07148870099,64391620a88898fa1901ec2c,2023-04-14_10h00.48.662,PRaM,2021.2.3,Win32,60.3682463,61b8f3437b89212fae0dfadf
3,3.8166,space,2.1381,0,183,183,304,1,,,6156fef09d1ab07148870099,64391620a88898fa1901ec2c,2023-04-14_10h00.48.662,PRaM,2021.2.3,Win32,60.3682463,61b8f3437b89212fae0dfadf
4,2.4293,space,0.7377,0,184,184,375,1,,,6156fef09d1ab07148870099,64391620a88898fa1901ec2c,2023-04-14_10h00.48.662,PRaM,2021.2.3,Win32,60.3682463,61b8f3437b89212fae0dfadf
1,1.66,space,0.4508,0,185,185,128,1,,,6156fef09d1ab07148870099,64391620a88898fa1901ec2c,2023-04-14_10h00.48.662,PRaM,2021.2.3,Win32,60.3682463,61b8f3437b89212fae0dfadf
1,2.1727,space,0.5049,0,186,186,167,1,,,6156fef09d1ab07148870099,64391620a88898fa1901ec2c,2023-04-14_10h00.48.662,PRaM,2021.2.3,Win32,60.3682463,61b8f3437b89212fae0dfadf
1,1.1857,space,0.2977,0,187,187,206,1,,,6156fef09d1ab07148870099,64391620a88898fa1901ec2c,2023-04-14_10h00.48.662,PRaM,2021.2.3,Win32,60.3682463,61b8f3437b89212fae0dfadf
6,1.7712,space,0.1092,0,188,188,277,1,,,6156fef09d1ab07148870099,64391620a88898fa1901ec2c,2023-04-14_10h00.48.662,PRaM,2021.2.3,Win32,60.3682463,61b8f3437b89212fae0dfadf
9,1.9585,space,0.2455,0,189,189,137,1,,,6156fef09d1ab07148870099,64391620a88898fa1901ec2c,2023-04-14_10h00.48.662,PRaM,2021.2.3,Win32,60.3682463,61b8f3437b89212fae0dfadf
4,2.0785,space,0.3742,0,190,190,156,1,,,6156fef09d1ab07148870099,64391620a88898fa1901ec2c,2023-04-14_10h00.48.662,PRaM,2021.2.3,Win32,60.3682463,61b8f3437b89212fae0dfadf
3,2.6592,space,1.0139,0,191,191,33,1,,,6156fef09d1ab07148870099,64391620a88898fa1901ec2c,2023-04-14_10h00.48.662,PRaM,2021.2.3,Win32,60.3682463,61b8f3437b89212fae0dfadf
3,2.1095,space,0.4094,0,192,192,57,1,,,6156fef09d1ab07148870099,64391620a88898fa1901ec2c,2023-04-14_10h00.48.662,PRaM,2021.2.3,Win32,60.3682463,61b8f3437b89212fae0dfadf
1,2.096,space,0.3564,0,193,193,65,1,,,6156fef09d1ab07148870099,64391620a88898fa1901ec2c,2023-04-14_10h00.48.662,PRaM,2021.2.3,Win32,60.3682463,61b8f3437b89212fae0dfadf
5,2.7768,space,0.9386,0,194,194,4,1,,,6156fef09d1ab07148870099,64391620a88898fa1901ec2c,2023-04-14_10h00.48.662,PRaM,2021.2.3,Win32,60.3682463,61b8f3437b89212fae0dfadf
1,2.2422,space,0.5678,0,195,195,349,1,,,6156fef09d1ab07148870099,64391620a88898fa1901ec2c,2023-04-14_10h00.48.662,PRaM,2021.2.3,Win32,60.3682463,61b8f3437b89212fae0dfadf
8,3.1378,space,1.4856,0,196,196,225,1,,,6156fef09d1ab07148870099,64391620a88898fa1901ec2c,2023-04-14_10h00.48.662,PRaM,2021.2.3,Win32,60.3682463,61b8f3437b89212fae0dfadf
8,3.3206,space,2.538,0,197,197,192,1,,,6156fef09d1ab07148870099,64391620a88898fa1901ec2c,2023-04-14_10h00.48.662,PRaM,2021.2.3,Win32,60.3682463,61b8f3437b89212fae0dfadf
3,3.0071,space,1.2172,0,198,198,317,1,,,6156fef09d1ab07148870099,64391620a88898fa1901ec2c,2023-04-14_10h00.48.662,PRaM,2021.2.3,Win32,60.3682463,61b8f3437b89212fae0dfadf
8,2.3491,space,0.6401,0,199,199,323,1,,,6156fef09d1ab07148870099,64391620a88898fa1901ec2c,2023-04-14_10h00.48.662,PRaM,2021.2.3,Win32,60.3682463,61b8f3437b89212fae0dfadf
7,3.8264,space,2.0677,0,200,200,100,1,,,6156fef09d1ab07148870099,64391620a88898fa1901ec2c,2023-04-14_10h00.48.662,PRaM,2021.2.3,Win32,60.3682463,61b8f3437b89212fae0dfadf
1,2.6465,space,0.9864,0,201,201,253,1,,,6156fef09d1ab07148870099,64391620a88898fa1901ec2c,2023-04-14_10h00.48.662,PRaM,2021.2.3,Win32,60.3682463,61b8f3437b89212fae0dfadf
3,2.5982,space,0.856,0,202,202,140,1,,,6156fef09d1ab07148870099,64391620a88898fa1901ec2c,2023-04-14_10h00.48.662,PRaM,2021.2.3,Win32,60.3682463,61b8f3437b89212fae0dfadf
6,2.7371,space,1.035,0,203,203,174,1,,,6156fef09d1ab07148870099,64391620a88898fa1901ec2c,2023-04-14_10h00.48.662,PRaM,2021.2.3,Win32,60.3682463,61b8f3437b89212fae0dfadf
3,5.989,space,9.2126,0,204,204,123,1,,,6156fef09d1ab07148870099,64391620a88898fa1901ec2c,2023-04-14_10h00.48.662,PRaM,2021.2.3,Win32,60.3682463,61b8f3437b89212fae0dfadf
1,1.6025,space,0.4547,0,205,205,322,1,,,6156fef09d1ab07148870099,64391620a88898fa1901ec2c,2023-04-14_10h00.48.662,PRaM,2021.2.3,Win32,60.3682463,61b8f3437b89212fae0dfadf
3,2.543,space,0.8746,0,206,206,37,1,,,6156fef09d1ab07148870099,64391620a88898fa1901ec2c,2023-04-14_10h00.48.662,PRaM,2021.2.3,Win32,60.3682463,61b8f3437b89212fae0dfadf
1,2.105,space,0.4792,0,207,207,107,1,,,6156fef09d1ab07148870099,64391620a88898fa1901ec2c,2023-04-14_10h00.48.662,PRaM,2021.2.3,Win32,60.3682463,61b8f3437b89212fae0dfadf
3,3.406,space,2.2995,0,208,208,271,1,,,6156fef09d1ab07148870099,64391620a88898fa1901ec2c,2023-04-14_10h00.48.662,PRaM,2021.2.3,Win32,60.3682463,61b8f3437b89212fae0dfadf
1,6.5047,space,4.7605,0,209,209,182,1,,,6156fef09d1ab07148870099,64391620a88898fa1901ec2c,2023-04-14_10h00.48.662,PRaM,2021.2.3,Win32,60.3682463,61b8f3437b89212fae0dfadf
1,1.528,space,0.2997,0,210,210,362,1,,,6156fef09d1ab07148870099,64391620a88898fa1901ec2c,2023-04-14_10h00.48.662,PRaM,2021.2.3,Win32,60.3682463,61b8f3437b89212fae0dfadf
5,3.7616,space,2.0593,0,211,211,21,1,,,6156fef09d1ab07148870099,64391620a88898fa1901ec2c,2023-04-14_10h00.48.662,PRaM,2021.2.3,Win32,60.3682463,61b8f3437b89212fae0dfadf
5,2.8777,space,1.202,0,212,212,266,1,,,6156fef09d1ab07148870099,64391620a88898fa1901ec2c,2023-04-14_10h00.48.662,PRaM,2021.2.3,Win32,60.3682463,61b8f3437b89212fae0dfadf
1,4.6945,space,3.0457,0,213,213,178,1,,,6156fef09d1ab07148870099,64391620a88898fa1901ec2c,2023-04-14_10h00.48.662,PRaM,2021.2.3,Win32,60.3682463,61b8f3437b89212fae0dfadf
7,2.4683,space,0.738,0,214,214,85,1,,,6156fef09d1ab07148870099,64391620a88898fa1901ec2c,2023-04-14_10h00.48.662,PRaM,2021.2.3,Win32,60.3682463,61b8f3437b89212fae0dfadf
7,1.7197,space,0.0104,0,215,215,240,1,,,6156fef09d1ab07148870099,64391620a88898fa1901ec2c,2023-04-14_10h00.48.662,PRaM,2021.2.3,Win32,60.3682463,61b8f3437b89212fae0dfadf
2,2.0594,space,0.4009,0,216,216,296,1,,,6156fef09d1ab07148870099,64391620a88898fa1901ec2c,2023-04-14_10h00.48.662,PRaM,2021.2.3,Win32,60.3682463,61b8f3437b89212fae0dfadf
8,7.1745,space,5.6956,0,217,217,61,1,,,6156fef09d1ab07148870099,64391620a88898fa1901ec2c,2023-04-14_10h00.48.662,PRaM,2021.2.3,Win32,60.3682463,61b8f3437b89212fae0dfadf
1,1.7891,space,0.0252,0,218,218,9,1,,,6156fef09d1ab07148870099,64391620a88898fa1901ec2c,2023-04-14_10h00.48.662,PRaM,2021.2.3,Win32,60.3682463,61b8f3437b89212fae0dfadf
5,1.8204,space,0.142,0,219,219,325,1,,,6156fef09d1ab07148870099,64391620a88898fa1901ec2c,2023-04-14_10h00.48.662,PRaM,2021.2.3,Win32,60.3682463,61b8f3437b89212fae0dfadf
5,1.9678,space,0.1432,0,220,220,46,1,,,6156fef09d1ab07148870099,64391620a88898fa1901ec2c,2023-04-14_10h00.48.662,PRaM,2021.2.3,Win32,60.3682463,61b8f3437b89212fae0dfadf
3,2.6628,space,0.8453,0,221,221,310,1,,,6156fef09d1ab07148870099,64391620a88898fa1901ec2c,2023-04-14_10h00.48.662,PRaM,2021.2.3,Win32,60.3682463,61b8f3437b89212fae0dfadf
5,2.6914,space,1.0243,0,222,222,168,1,,,6156fef09d1ab07148870099,64391620a88898fa1901ec2c,2023-04-14_10h00.48.662,PRaM,2021.2.3,Win32,60.3682463,61b8f3437b89212fae0dfadf
2,3.4796,space,1.8337,0,223,223,161,1,,,6156fef09d1ab07148870099,64391620a88898fa1901ec2c,2023-04-14_10h00.48.662,PRaM,2021.2.3,Win32,60.3682463,61b8f3437b89212fae0dfadf
1,1.4385,space,0.146,0,224,224,121,1,,,6156fef09d1ab07148870099,64391620a88898fa1901ec2c,2023-04-14_10h00.48.662,PRaM,2021.2.3,Win32,60.3682463,61b8f3437b89212fae0dfadf
1,2.5376,space,0.8353,0,225,225,50,1,,,6156fef09d1ab07148870099,64391620a88898fa1901ec2c,2023-04-14_10h00.48.662,PRaM,2021.2.3,Win32,60.3682463,61b8f3437b89212fae0dfadf
1,1.5891,space,0.6531,0,226,226,227,1,,,6156fef09d1ab07148870099,64391620a88898fa1901ec2c,2023-04-14_10h00.48.662,PRaM,2021.2.3,Win32,60.3682463,61b8f3437b89212fae0dfadf
1,2.0869,space,0.5343,0,227,227,2,1,,,6156fef09d1ab07148870099,64391620a88898fa1901ec2c,2023-04-14_10h00.48.662,PRaM,2021.2.3,Win32,60.3682463,61b8f3437b89212fae0dfadf
1,1.67,space,0.1221,0,228,228,290,1,,,6156fef09d1ab07148870099,64391620a88898fa1901ec2c,2023-04-14_10h00.48.662,PRaM,2021.2.3,Win32,60.3682463,61b8f3437b89212fae0dfadf
5,2.9829,space,1.3208,0,229,229,136,1,,,6156fef09d1ab07148870099,64391620a88898fa1901ec2c,2023-04-14_10h00.48.662,PRaM,2021.2.3,Win32,60.3682463,61b8f3437b89212fae0dfadf
1,2.413,space,0.717,0,230,230,190,1,,,6156fef09d1ab07148870099,64391620a88898fa1901ec2c,2023-04-14_10h00.48.662,PRaM,2021.2.3,Win32,60.3682463,61b8f3437b89212fae0dfadf
1,1.2532,space,0.0934,0,231,231,111,1,,,6156fef09d1ab07148870099,64391620a88898fa1901ec2c,2023-04-14_10h00.48.662,PRaM,2021.2.3,Win32,60.3682463,61b8f3437b89212fae0dfadf
1,3.1983,space,1.5159,0,232,232,183,1,,,6156fef09d1ab07148870099,64391620a88898fa1901ec2c,2023-04-14_10h00.48.662,PRaM,2021.2.3,Win32,60.3682463,61b8f3437b89212fae0dfadf
6,1.8482,space,0.2003,0,233,233,42,1,,,6156fef09d1ab07148870099,64391620a88898fa1901ec2c,2023-04-14_10h00.48.662,PRaM,2021.2.3,Win32,60.3682463,61b8f3437b89212fae0dfadf
1,2.4702,space,0.7557,0,234,234,203,1,,,6156fef09d1ab07148870099,64391620a88898fa1901ec2c,2023-04-14_10h00.48.662,PRaM,2021.2.3,Win32,60.3682463,61b8f3437b89212fae0dfadf
1,1.3212,space,0.5459,0,235,235,300,1,,,6156fef09d1ab07148870099,64391620a88898fa1901ec2c,2023-04-14_10h00.48.662,PRaM,2021.2.3,Win32,60.3682463,61b8f3437b89212fae0dfadf
7,2.506,space,0.8837,0,236,236,60,1,,,6156fef09d1ab07148870099,64391620a88898fa1901ec2c,2023-04-14_10h00.48.662,PRaM,2021.2.3,Win32,60.3682463,61b8f3437b89212fae0dfadf
1,1.765,space,0.0294,0,237,237,131,1,,,6156fef09d1ab07148870099,64391620a88898fa1901ec2c,2023-04-14_10h00.48.662,PRaM,2021.2.3,Win32,60.3682463,61b8f3437b89212fae0dfadf
1,1.3563,space,0.6377,0,238,238,195,1,,,6156fef09d1ab07148870099,64391620a88898fa1901ec2c,2023-04-14_10h00.48.662,PRaM,2021.2.3,Win32,60.3682463,61b8f3437b89212fae0dfadf
1,2.204,space,0.4996,0,239,239,26,1,,,6156fef09d1ab07148870099,64391620a88898fa1901ec2c,2023-04-14_10h00.48.662,PRaM,2021.2.3,Win32,60.3682463,61b8f3437b89212fae0dfadf
7,3.331,space,1.6386,0,240,240,352,1,,,6156fef09d1ab07148870099,64391620a88898fa1901ec2c,2023-04-14_10h00.48.662,PRaM,2021.2.3,Win32,60.3682463,61b8f3437b89212fae0dfadf
7,2.8738,space,1.223,0,241,241,223,1,,,6156fef09d1ab07148870099,64391620a88898fa1901ec2c,2023-04-14_10h00.48.662,PRaM,2021.2.3,Win32,60.3682463,61b8f3437b89212fae0dfadf
1,11.7769,space,10.4029,0,242,242,92,1,,,6156fef09d1ab07148870099,64391620a88898fa1901ec2c,2023-04-14_10h00.48.662,PRaM,2021.2.3,Win32,60.3682463,61b8f3437b89212fae0dfadf
6,1.8233,space,0.1708,0,243,243,3,1,,,6156fef09d1ab07148870099,64391620a88898fa1901ec2c,2023-04-14_10h00.48.662,PRaM,2021.2.3,Win32,60.3682463,61b8f3437b89212fae0dfadf
3,2.3364,space,0.5458,0,244,244,145,1,,,6156fef09d1ab07148870099,64391620a88898fa1901ec2c,2023-04-14_10h00.48.662,PRaM,2021.2.3,Win32,60.3682463,61b8f3437b89212fae0dfadf
1,3.4173,space,1.7263,0,245,245,138,1,,,6156fef09d1ab07148870099,64391620a88898fa1901ec2c,2023-04-14_10h00.48.662,PRaM,2021.2.3,Win32,60.3682463,61b8f3437b89212fae0dfadf
6,2.5752,space,1.0063,0,246,246,14,1,,,6156fef09d1ab07148870099,64391620a88898fa1901ec2c,2023-04-14_10h00.48.662,PRaM,2021.2.3,Win32,60.3682463,61b8f3437b89212fae0dfadf
1,3.4038,space,1.7696,0,247,247,284,1,,,6156fef09d1ab07148870099,64391620a88898fa1901ec2c,2023-04-14_10h00.48.662,PRaM,2021.2.3,Win32,60.3682463,61b8f3437b89212fae0dfadf
2,7.2383,space,5.5412,0,248,248,177,1,,,6156fef09d1ab07148870099,64391620a88898fa1901ec2c,2023-04-14_10h00.48.662,PRaM,2021.2.3,Win32,60.3682463,61b8f3437b89212fae0dfadf
1,1.7152,space,0.1332,0,249,249,315,1,,,6156fef09d1ab07148870099,64391620a88898fa1901ec2c,2023-04-14_10h00.48.662,PRaM,2021.2.3,Win32,60.3682463,61b8f3437b89212fae0dfadf
1,1.4408,space,0.3856,0,250,250,54,1,,,6156fef09d1ab07148870099,64391620a88898fa1901ec2c,2023-04-14_10h00.48.662,PRaM,2021.2.3,Win32,60.3682463,61b8f3437b89212fae0dfadf
1,1.2402,space,5.6742,0,251,251,129,1,,,6156fef09d1ab07148870099,64391620a88898fa1901ec2c,2023-04-14_10h00.48.662,PRaM,2021.2.3,Win32,60.3682463,61b8f3437b89212fae0dfadf
2,2.166,space,0.5174,0,252,252,361,1,,,6156fef09d1ab07148870099,64391620a88898fa1901ec2c,2023-04-14_10h00.48.662,PRaM,2021.2.3,Win32,60.3682463,61b8f3437b89212fae0dfadf
6,3.6434,space,2.0222,0,253,253,80,1,,,6156fef09d1ab07148870099,64391620a88898fa1901ec2c,2023-04-14_10h00.48.662,PRaM,2021.2.3,Win32,60.3682463,61b8f3437b89212fae0dfadf
5,1.9487,space,0.2851,0,254,254,340,1,,,6156fef09d1ab07148870099,64391620a88898fa1901ec2c,2023-04-14_10h00.48.662,PRaM,2021.2.3,Win32,60.3682463,61b8f3437b89212fae0dfadf
5,2.7206,space,1.0556,0,255,255,134,1,,,6156fef09d1ab07148870099,64391620a88898fa1901ec2c,2023-04-14_10h00.48.662,PRaM,2021.2.3,Win32,60.3682463,61b8f3437b89212fae0dfadf
1,1.4887,space,0.7366,0,256,256,124,1,,,6156fef09d1ab07148870099,64391620a88898fa1901ec2c,2023-04-14_10h00.48.662,PRaM,2021.2.3,Win32,60.3682463,61b8f3437b89212fae0dfadf
1,1.7057,space,0.4855,0,257,257,188,1,,,6156fef09d1ab07148870099,64391620a88898fa1901ec2c,2023-04-14_10h00.48.662,PRaM,2021.2.3,Win32,60.3682463,61b8f3437b89212fae0dfadf
1,1.3248,space,1.6401,0,258,258,338,1,,,6156fef09d1ab07148870099,64391620a88898fa1901ec2c,2023-04-14_10h00.48.662,PRaM,2021.2.3,Win32,60.3682463,61b8f3437b89212fae0dfadf
1,1.1873,space,0.392,0,259,259,330,1,,,6156fef09d1ab07148870099,64391620a88898fa1901ec2c,2023-04-14_10h00.48.662,PRaM,2021.2.3,Win32,60.3682463,61b8f3437b89212fae0dfadf
1,2.1873,space,1.9209,0,260,260,162,1,,,6156fef09d1ab07148870099,64391620a88898fa1901ec2c,2023-04-14_10h00.48.662,PRaM,2021.2.3,Win32,60.3682463,61b8f3437b89212fae0dfadf
1,2.0379,space,0.3665,0,261,261,239,1,,,6156fef09d1ab07148870099,64391620a88898fa1901ec2c,2023-04-14_10h00.48.662,PRaM,2021.2.3,Win32,60.3682463,61b8f3437b89212fae0dfadf
1,2.9793,space,1.2203,0,262,262,89,1,,,6156fef09d1ab07148870099,64391620a88898fa1901ec2c,2023-04-14_10h00.48.662,PRaM,2021.2.3,Win32,60.3682463,61b8f3437b89212fae0dfadf
1,5.4109,space,3.7705,0,263,263,321,1,,,6156fef09d1ab07148870099,64391620a88898fa1901ec2c,2023-04-14_10h00.48.662,PRaM,2021.2.3,Win32,60.3682463,61b8f3437b89212fae0dfadf
1,1.3866,space,0.1066,0,264,264,210,1,,,6156fef09d1ab07148870099,64391620a88898fa1901ec2c,2023-04-14_10h00.48.662,PRaM,2021.2.3,Win32,60.3682463,61b8f3437b89212fae0dfadf
7,2.5037,space,0.8589,0,265,265,76,1,,,6156fef09d1ab07148870099,64391620a88898fa1901ec2c,2023-04-14_10h00.48.662,PRaM,2021.2.3,Win32,60.3682463,61b8f3437b89212fae0dfadf
1,1.6424,space,0.3718,0,266,266,241,1,,,6156fef09d1ab07148870099,64391620a88898fa1901ec2c,2023-04-14_10h00.48.662,PRaM,2021.2.3,Win32,60.3682463,61b8f3437b89212fae0dfadf
5,2.1549,space,0.5179,0,267,267,302,1,,,6156fef09d1ab07148870099,64391620a88898fa1901ec2c,2023-04-14_10h00.48.662,PRaM,2021.2.3,Win32,60.3682463,61b8f3437b89212fae0dfadf
1,2.0086,space,0.3089,0,268,268,184,1,,,6156fef09d1ab07148870099,64391620a88898fa1901ec2c,2023-04-14_10h00.48.662,PRaM,2021.2.3,Win32,60.3682463,61b8f3437b89212fae0dfadf
5,1.7751,space,0.0571,0,269,269,29,1,,,6156fef09d1ab07148870099,64391620a88898fa1901ec2c,2023-04-14_10h00.48.662,PRaM,2021.2.3,Win32,60.3682463,61b8f3437b89212fae0dfadf
1,2.7213,space,1.0187,0,270,270,49,1,,,6156fef09d1ab07148870099,64391620a88898fa1901ec2c,2023-04-14_10h00.48.662,PRaM,2021.2.3,Win32,60.3682463,61b8f3437b89212fae0dfadf
1,1.306,space,0.0374,0,271,271,329,1,,,6156fef09d1ab07148870099,64391620a88898fa1901ec2c,2023-04-14_10h00.48.662,PRaM,2021.2.3,Win32,60.3682463,61b8f3437b89212fae0dfadf
3,2.5272,space,0.7569,0,272,272,81,1,,,6156fef09d1ab07148870099,64391620a88898fa1901ec2c,2023-04-14_10h00.48.662,PRaM,2021.2.3,Win32,60.3682463,61b8f3437b89212fae0dfadf
5,3.305,space,1.6353,0,273,273,331,1,,,6156fef09d1ab07148870099,64391620a88898fa1901ec2c,2023-04-14_10h00.48.662,PRaM,2021.2.3,Win32,60.3682463,61b8f3437b89212fae0dfadf
3,2.973,space,1.2911,0,274,274,47,1,,,6156fef09d1ab07148870099,64391620a88898fa1901ec2c,2023-04-14_10h00.48.662,PRaM,2021.2.3,Win32,60.3682463,61b8f3437b89212fae0dfadf
1,8.9119,space,7.4872,0,275,275,354,1,,,6156fef09d1ab07148870099,64391620a88898fa1901ec2c,2023-04-14_10h00.48.662,PRaM,2021.2.3,Win32,60.3682463,61b8f3437b89212fae0dfadf
7,3.6117,space,1.8506,0,276,276,186,1,,,6156fef09d1ab07148870099,64391620a88898fa1901ec2c,2023-04-14_10h00.48.662,PRaM,2021.2.3,Win32,60.3682463,61b8f3437b89212fae0dfadf
5,2.3138,space,0.7108,0,277,277,56,1,,,6156fef09d1ab07148870099,64391620a88898fa1901ec2c,2023-04-14_10h00.48.662,PRaM,2021.2.3,Win32,60.3682463,61b8f3437b89212fae0dfadf
1,8.8662,space,7.1375,0,278,278,341,1,,,6156fef09d1ab07148870099,64391620a88898fa1901ec2c,2023-04-14_10h00.48.662,PRaM,2021.2.3,Win32,60.3682463,61b8f3437b89212fae0dfadf
1,14.6052,space,13.0015,0,279,279,246,1,,,6156fef09d1ab07148870099,64391620a88898fa1901ec2c,2023-04-14_10h00.48.662,PRaM,2021.2.3,Win32,60.3682463,61b8f3437b89212fae0dfadf
1,2.1815,space,0.584,0,280,280,336,1,,,6156fef09d1ab07148870099,64391620a88898fa1901ec2c,2023-04-14_10h00.48.662,PRaM,2021.2.3,Win32,60.3682463,61b8f3437b89212fae0dfadf
1,1.4056,space,0.2332,0,281,281,327,1,,,6156fef09d1ab07148870099,64391620a88898fa1901ec2c,2023-04-14_10h00.48.662,PRaM,2021.2.3,Win32,60.3682463,61b8f3437b89212fae0dfadf
1,1.1872,space,0.0179,0,282,282,236,1,,,6156fef09d1ab07148870099,64391620a88898fa1901ec2c,2023-04-14_10h00.48.662,PRaM,2021.2.3,Win32,60.3682463,61b8f3437b89212fae0dfadf
1,1.3368,space,0.21,0,283,283,125,1,,,6156fef09d1ab07148870099,64391620a88898fa1901ec2c,2023-04-14_10h00.48.662,PRaM,2021.2.3,Win32,60.3682463,61b8f3437b89212fae0dfadf
5,3.0074,space,1.6256,0,284,284,135,1,,,6156fef09d1ab07148870099,64391620a88898fa1901ec2c,2023-04-14_10h00.48.662,PRaM,2021.2.3,Win32,60.3682463,61b8f3437b89212fae0dfadf
7,3.3613,space,1.5102,0,285,285,363,1,,,6156fef09d1ab07148870099,64391620a88898fa1901ec2c,2023-04-14_10h00.48.662,PRaM,2021.2.3,Win32,60.3682463,61b8f3437b89212fae0dfadf
1,1.8378,space,0.1364,0,286,286,286,1,,,6156fef09d1ab07148870099,64391620a88898fa1901ec2c,2023-04-14_10h00.48.662,PRaM,2021.2.3,Win32,60.3682463,61b8f3437b89212fae0dfadf
2,4.132,space,2.4225,0,287,287,90,1,,,6156fef09d1ab07148870099,64391620a88898fa1901ec2c,2023-04-14_10h00.48.662,PRaM,2021.2.3,Win32,60.3682463,61b8f3437b89212fae0dfadf
4,3.8292,space,2.1166,0,288,288,75,1,,,6156fef09d1ab07148870099,64391620a88898fa1901ec2c,2023-04-14_10h00.48.662,PRaM,2021.2.3,Win32,60.3682463,61b8f3437b89212fae0dfadf
1,2.9803,space,1.2192,0,289,289,193,1,,,6156fef09d1ab07148870099,64391620a88898fa1901ec2c,2023-04-14_10h00.48.662,PRaM,2021.2.3,Win32,60.3682463,61b8f3437b89212fae0dfadf
1,1.4869,space,0.3849,0,290,290,79,1,,,6156fef09d1ab07148870099,64391620a88898fa1901ec2c,2023-04-14_10h00.48.662,PRaM,2021.2.3,Win32,60.3682463,61b8f3437b89212fae0dfadf
1,11.5688,space,11.1415,0,291,291,274,1,,,6156fef09d1ab07148870099,64391620a88898fa1901ec2c,2023-04-14_10h00.48.662,PRaM,2021.2.3,Win32,60.3682463,61b8f3437b89212fae0dfadf
1,1.6305,space,0.5427,0,292,292,106,1,,,6156fef09d1ab07148870099,64391620a88898fa1901ec2c,2023-04-14_10h00.48.662,PRaM,2021.2.3,Win32,60.3682463,61b8f3437b89212fae0dfadf
6,2.66,space,0.9859,0,293,293,298,1,,,6156fef09d1ab07148870099,64391620a88898fa1901ec2c,2023-04-14_10h00.48.662,PRaM,2021.2.3,Win32,60.3682463,61b8f3437b89212fae0dfadf
1,2.323,space,0.6386,0,294,294,11,1,,,6156fef09d1ab07148870099,64391620a88898fa1901ec2c,2023-04-14_10h00.48.662,PRaM,2021.2.3,Win32,60.3682463,61b8f3437b89212fae0dfadf
1,3.2952,space,1.6884,0,295,295,68,1,,,6156fef09d1ab07148870099,64391620a88898fa1901ec2c,2023-04-14_10h00.48.662,PRaM,2021.2.3,Win32,60.3682463,61b8f3437b89212fae0dfadf
1,1.6279,space,0.3506,0,296,296,248,1,,,6156fef09d1ab07148870099,64391620a88898fa1901ec2c,2023-04-14_10h00.48.662,PRaM,2021.2.3,Win32,60.3682463,61b8f3437b89212fae0dfadf
1,1.7693,space,0.1584,0,297,297,339,1,,,6156fef09d1ab07148870099,64391620a88898fa1901ec2c,2023-04-14_10h00.48.662,PRaM,2021.2.3,Win32,60.3682463,61b8f3437b89212fae0dfadf
6,3.493,space,1.9697,0,298,298,84,1,,,6156fef09d1ab07148870099,64391620a88898fa1901ec2c,2023-04-14_10h00.48.662,PRaM,2021.2.3,Win32,60.3682463,61b8f3437b89212fae0dfadf
3,34.2449,space,32.587,0,299,299,132,1,,,6156fef09d1ab07148870099,64391620a88898fa1901ec2c,2023-04-14_10h00.48.662,PRaM,2021.2.3,Win32,60.3682463,61b8f3437b89212fae0dfadf
1,6.717,space,6.1098,0,300,300,143,1,,,6156fef09d1ab07148870099,64391620a88898fa1901ec2c,2023-04-14_10h00.48.662,PRaM,2021.2.3,Win32,60.3682463,61b8f3437b89212fae0dfadf
2,2.1926,space,0.4894,0,301,301,141,1,,,6156fef09d1ab07148870099,64391620a88898fa1901ec2c,2023-04-14_10h00.48.662,PRaM,2021.2.3,Win32,60.3682463,61b8f3437b89212fae0dfadf
1,2.1629,space,0.5075,0,302,302,189,1,,,6156fef09d1ab07148870099,64391620a88898fa1901ec2c,2023-04-14_10h00.48.662,PRaM,2021.2.3,Win32,60.3682463,61b8f3437b89212fae0dfadf
1,1.6397,space,0.005,0,303,303,104,1,,,6156fef09d1ab07148870099,64391620a88898fa1901ec2c,2023-04-14_10h00.48.662,PRaM,2021.2.3,Win32,60.3682463,61b8f3437b89212fae0dfadf
4,2.4531,space,0.6993,0,304,304,364,1,,,6156fef09d1ab07148870099,64391620a88898fa1901ec2c,2023-04-14_10h00.48.662,PRaM,2021.2.3,Win32,60.3682463,61b8f3437b89212fae0dfadf
2,2.9438,space,1.2187,0,305,305,369,1,,,6156fef09d1ab07148870099,64391620a88898fa1901ec2c,2023-04-14_10h00.48.662,PRaM,2021.2.3,Win32,60.3682463,61b8f3437b89212fae0dfadf
7,2.6294,space,0.8767,0,306,306,196,1,,,6156fef09d1ab07148870099,64391620a88898fa1901ec2c,2023-04-14_10h00.48.662,PRaM,2021.2.3,Win32,60.3682463,61b8f3437b89212fae0dfadf
5,1.8093,space,0.0339,0,307,307,115,1,,,6156fef09d1ab07148870099,64391620a88898fa1901ec2c,2023-04-14_10h00.48.662,PRaM,2021.2.3,Win32,60.3682463,61b8f3437b89212fae0dfadf
5,1.8784,space,0.1015,0,308,308,114,1,,,6156fef09d1ab07148870099,64391620a88898fa1901ec2c,2023-04-14_10h00.48.662,PRaM,2021.2.3,Win32,60.3682463,61b8f3437b89212fae0dfadf
3,25.1135,space,23.2874,0,309,309,334,1,,,6156fef09d1ab07148870099,64391620a88898fa1901ec2c,2023-04-14_10h00.48.662,PRaM,2021.2.3,Win32,60.3682463,61b8f3437b89212fae0dfadf
1,1.8382,space,0.2068,0,310,310,122,1,,,6156fef09d1ab07148870099,64391620a88898fa1901ec2c,2023-04-14_10h00.48.662,PRaM,2021.2.3,Win32,60.3682463,61b8f3437b89212fae0dfadf
1,1.3797,space,1.0117,0,311,311,367,1,,,6156fef09d1ab07148870099,64391620a88898fa1901ec2c,2023-04-14_10h00.48.662,PRaM,2021.2.3,Win32,60.3682463,61b8f3437b89212fae0dfadf
2,2.6901,space,0.917,0,312,312,200,1,,,6156fef09d1ab07148870099,64391620a88898fa1901ec2c,2023-04-14_10h00.48.662,PRaM,2021.2.3,Win32,60.3682463,61b8f3437b89212fae0dfadf
2,2.4867,space,0.7942,0,313,313,62,1,,,6156fef09d1ab07148870099,64391620a88898fa1901ec2c,2023-04-14_10h00.48.662,PRaM,2021.2.3,Win32,60.3682463,61b8f3437b89212fae0dfadf
1,3.1628,space,1.4876,0,314,314,292,1,,,6156fef09d1ab07148870099,64391620a88898fa1901ec2c,2023-04-14_10h00.48.662,PRaM,2021.2.3,Win32,60.3682463,61b8f3437b89212fae0dfadf
1,1.6966,space,0.0428,0,315,315,87,1,,,6156fef09d1ab07148870099,64391620a88898fa1901ec2c,2023-04-14_10h00.48.662,PRaM,2021.2.3,Win32,60.3682463,61b8f3437b89212fae0dfadf
3,2.7214,space,0.9126,0,316,316,99,1,,,6156fef09d1ab07148870099,64391620a88898fa1901ec2c,2023-04-14_10h00.48.662,PRaM,2021.2.3,Win32,60.3682463,61b8f3437b89212fae0dfadf
7,3.4295,space,1.7668,0,317,317,279,1,,,6156fef09d1ab07148870099,64391620a88898fa1901ec2c,2023-04-14_10h00.48.662,PRaM,2021.2.3,Win32,60.3682463,61b8f3437b89212fae0dfadf
5,2.0311,space,0.178,0,318,318,105,1,,,6156fef09d1ab07148870099,64391620a88898fa1901ec2c,2023-04-14_10h00.48.662,PRaM,2021.2.3,Win32,60.3682463,61b8f3437b89212fae0dfadf
1,3.8557,space,2.2868,0,319,319,155,1,,,6156fef09d1ab07148870099,64391620a88898fa1901ec2c,2023-04-14_10h00.48.662,PRaM,2021.2.3,Win32,60.3682463,61b8f3437b89212fae0dfadf
1,2.3795,space,0.6374,0,320,320,52,1,,,6156fef09d1ab07148870099,64391620a88898fa1901ec2c,2023-04-14_10h00.48.662,PRaM,2021.2.3,Win32,60.3682463,61b8f3437b89212fae0dfadf
3,3.0402,space,1.3081,0,321,321,360,1,,,6156fef09d1ab07148870099,64391620a88898fa1901ec2c,2023-04-14_10h00.48.662,PRaM,2021.2.3,Win32,60.3682463,61b8f3437b89212fae0dfadf
2,3.0994,space,1.3829,0,322,322,346,1,,,6156fef09d1ab07148870099,64391620a88898fa1901ec2c,2023-04-14_10h00.48.662,PRaM,2021.2.3,Win32,60.3682463,61b8f3437b89212fae0dfadf
1,1.4069,space,0.5196,0,323,323,91,1,,,6156fef09d1ab07148870099,64391620a88898fa1901ec2c,2023-04-14_10h00.48.662,PRaM,2021.2.3,Win32,60.3682463,61b8f3437b89212fae0dfadf
1,2.2928,space,0.5851,0,324,324,18,1,,,6156fef09d1ab07148870099,64391620a88898fa1901ec2c,2023-04-14_10h00.48.662,PRaM,2021.2.3,Win32,60.3682463,61b8f3437b89212fae0dfadf
1,1.6764,space,0.037,0,325,325,263,1,,,6156fef09d1ab07148870099,64391620a88898fa1901ec2c,2023-04-14_10h00.48.662,PRaM,2021.2.3,Win32,60.3682463,61b8f3437b89212fae0dfadf
1,1.3103,space,0.0105,0,326,326,144,1,,,6156fef09d1ab07148870099,64391620a88898fa1901ec2c,2023-04-14_10h00.48.662,PRaM,2021.2.3,Win32,60.3682463,61b8f3437b89212fae0dfadf
1,3.0974,space,1.4189,0,327,327,308,1,,,6156fef09d1ab07148870099,64391620a88898fa1901ec2c,2023-04-14_10h00.48.662,PRaM,2021.2.3,Win32,60.3682463,61b8f3437b89212fae0dfadf
4,2.0068,space,0.3195,0,328,328,244,1,,,6156fef09d1ab07148870099,64391620a88898fa1901ec2c,2023-04-14_10h00.48.662,PRaM,2021.2.3,Win32,60.3682463,61b8f3437b89212fae0dfadf
1,2.4494,space,1.2406,0,329,329,232,1,,,6156fef09d1ab07148870099,64391620a88898fa1901ec2c,2023-04-14_10h00.48.662,PRaM,2021.2.3,Win32,60.3682463,61b8f3437b89212fae0dfadf
4,3.1867,space,1.4507,0,330,330,96,1,,,6156fef09d1ab07148870099,64391620a88898fa1901ec2c,2023-04-14_10h00.48.662,PRaM,2021.2.3,Win32,60.3682463,61b8f3437b89212fae0dfadf
1,1.8038,space,0.2441,0,331,331,31,1,,,6156fef09d1ab07148870099,64391620a88898fa1901ec2c,2023-04-14_10h00.48.662,PRaM,2021.2.3,Win32,60.3682463,61b8f3437b89212fae0dfadf
1,1.2894,space,0.1745,0,332,332,27,1,,,6156fef09d1ab07148870099,64391620a88898fa1901ec2c,2023-04-14_10h00.48.662,PRaM,2021.2.3,Win32,60.3682463,61b8f3437b89212fae0dfadf
2,4.7133,space,3.2431,0,333,333,351,1,,,6156fef09d1ab07148870099,64391620a88898fa1901ec2c,2023-04-14_10h00.48.662,PRaM,2021.2.3,Win32,60.3682463,61b8f3437b89212fae0dfadf
1,2.4718,space,0.7852,0,334,334,261,1,,,6156fef09d1ab07148870099,64391620a88898fa1901ec2c,2023-04-14_10h00.48.662,PRaM,2021.2.3,Win32,60.3682463,61b8f3437b89212fae0dfadf
5,2.5421,space,0.8434,0,335,335,276,1,,,6156fef09d1ab07148870099,64391620a88898fa1901ec2c,2023-04-14_10h00.48.662,PRaM,2021.2.3,Win32,60.3682463,61b8f3437b89212fae0dfadf
3,2.5403,space,0.8766,0,336,336,12,1,,,6156fef09d1ab07148870099,64391620a88898fa1901ec2c,2023-04-14_10h00.48.662,PRaM,2021.2.3,Win32,60.3682463,61b8f3437b89212fae0dfadf
1,7.9856,space,6.2717,0,337,337,283,1,,,6156fef09d1ab07148870099,64391620a88898fa1901ec2c,2023-04-14_10h00.48.662,PRaM,2021.2.3,Win32,60.3682463,61b8f3437b89212fae0dfadf
1,1.9565,space,0.2707,0,338,338,133,1,,,6156fef09d1ab07148870099,64391620a88898fa1901ec2c,2023-04-14_10h00.48.662,PRaM,2021.2.3,Win32,60.3682463,61b8f3437b89212fae0dfadf
3,3.3448,space,1.6892,0,339,339,258,1,,,6156fef09d1ab07148870099,64391620a88898fa1901ec2c,2023-04-14_10h00.48.662,PRaM,2021.2.3,Win32,60.3682463,61b8f3437b89212fae0dfadf
1,3.3558,space,1.79,0,340,340,181,1,,,6156fef09d1ab07148870099,64391620a88898fa1901ec2c,2023-04-14_10h00.48.662,PRaM,2021.2.3,Win32,60.3682463,61b8f3437b89212fae0dfadf
4,12.8394,space,11.4297,0,341,341,226,1,,,6156fef09d1ab07148870099,64391620a88898fa1901ec2c,2023-04-14_10h00.48.662,PRaM,2021.2.3,Win32,60.3682463,61b8f3437b89212fae0dfadf
1,2.1231,space,0.451,0,342,342,220,1,,,6156fef09d1ab07148870099,64391620a88898fa1901ec2c,2023-04-14_10h00.48.662,PRaM,2021.2.3,Win32,60.3682463,61b8f3437b89212fae0dfadf
1,1.5692,space,3.606,0,343,343,262,1,,,6156fef09d1ab07148870099,64391620a88898fa1901ec2c,2023-04-14_10h00.48.662,PRaM,2021.2.3,Win32,60.3682463,61b8f3437b89212fae0dfadf
4,2.0816,space,0.463,0,344,344,297,1,,,6156fef09d1ab07148870099,64391620a88898fa1901ec2c,2023-04-14_10h00.48.662,PRaM,2021.2.3,Win32,60.3682463,61b8f3437b89212fae0dfadf
2,5.2829,space,3.5354,0,345,345,40,1,,,6156fef09d1ab07148870099,64391620a88898fa1901ec2c,2023-04-14_10h00.48.662,PRaM,2021.2.3,Win32,60.3682463,61b8f3437b89212fae0dfadf
3,2.8682,space,1.1047,0,346,346,180,1,,,6156fef09d1ab07148870099,64391620a88898fa1901ec2c,2023-04-14_10h00.48.662,PRaM,2021.2.3,Win32,60.3682463,61b8f3437b89212fae0dfadf
2,2.5851,space,0.8508,0,347,347,25,1,,,6156fef09d1ab07148870099,64391620a88898fa1901ec2c,2023-04-14_10h00.48.662,PRaM,2021.2.3,Win32,60.3682463,61b8f3437b89212fae0dfadf
1,1.4596,space,0.3861,0,348,348,36,1,,,6156fef09d1ab07148870099,64391620a88898fa1901ec2c,2023-04-14_10h00.48.662,PRaM,2021.2.3,Win32,60.3682463,61b8f3437b89212fae0dfadf
3,3.5153,space,1.7295,0,349,349,102,1,,,6156fef09d1ab07148870099,64391620a88898fa1901ec2c,2023-04-14_10h00.48.662,PRaM,2021.2.3,Win32,60.3682463,61b8f3437b89212fae0dfadf
4,3.5652,space,1.8017,0,350,350,252,1,,,6156fef09d1ab07148870099,64391620a88898fa1901ec2c,2023-04-14_10h00.48.662,PRaM,2021.2.3,Win32,60.3682463,61b8f3437b89212fae0dfadf
4,2.429,space,1.7741,0,351,351,179,1,,,6156fef09d1ab07148870099,64391620a88898fa1901ec2c,2023-04-14_10h00.48.662,PRaM,2021.2.3,Win32,60.3682463,61b8f3437b89212fae0dfadf
1,2.6385,space,0.9378,0,352,352,130,1,,,6156fef09d1ab07148870099,64391620a88898fa1901ec2c,2023-04-14_10h00.48.662,PRaM,2021.2.3,Win32,60.3682463,61b8f3437b89212fae0dfadf
7,4.3426,space,2.8627,0,353,353,16,1,,,6156fef09d1ab07148870099,64391620a88898fa1901ec2c,2023-04-14_10h00.48.662,PRaM,2021.2.3,Win32,60.3682463,61b8f3437b89212fae0dfadf
2,4.0358,space,2.3216,0,354,354,237,1,,,6156fef09d1ab07148870099,64391620a88898fa1901ec2c,2023-04-14_10h00.48.662,PRaM,2021.2.3,Win32,60.3682463,61b8f3437b89212fae0dfadf
2,2.471,space,1.0379,0,355,355,30,1,,,6156fef09d1ab07148870099,64391620a88898fa1901ec2c,2023-04-14_10h00.48.662,PRaM,2021.2.3,Win32,60.3682463,61b8f3437b89212fae0dfadf
3,2.0917,space,0.5021,0,356,356,365,1,,,6156fef09d1ab07148870099,64391620a88898fa1901ec2c,2023-04-14_10h00.48.662,PRaM,2021.2.3,Win32,60.3682463,61b8f3437b89212fae0dfadf
1,2.553,space,0.8517,0,357,357,251,1,,,6156fef09d1ab07148870099,64391620a88898fa1901ec2c,2023-04-14_10h00.48.662,PRaM,2021.2.3,Win32,60.3682463,61b8f3437b89212fae0dfadf
5,2.9695,space,2.1726,0,358,358,152,1,,,6156fef09d1ab07148870099,64391620a88898fa1901ec2c,2023-04-14_10h00.48.662,PRaM,2021.2.3,Win32,60.3682463,61b8f3437b89212fae0dfadf
4,1.7362,space,0.017,0,359,359,305,1,,,6156fef09d1ab07148870099,64391620a88898fa1901ec2c,2023-04-14_10h00.48.662,PRaM,2021.2.3,Win32,60.3682463,61b8f3437b89212fae0dfadf
3,1.7258,space,0.395,0,360,360,173,1,,,6156fef09d1ab07148870099,64391620a88898fa1901ec2c,2023-04-14_10h00.48.662,PRaM,2021.2.3,Win32,60.3682463,61b8f3437b89212fae0dfadf
2,4.3527,space,15.8716,0,361,361,117,1,,,6156fef09d1ab07148870099,64391620a88898fa1901ec2c,2023-04-14_10h00.48.662,PRaM,2021.2.3,Win32,60.3682463,61b8f3437b89212fae0dfadf
4,2.1999,space,0.5054,0,362,362,280,1,,,6156fef09d1ab07148870099,64391620a88898fa1901ec2c,2023-04-14_10h00.48.662,PRaM,2021.2.3,Win32,60.3682463,61b8f3437b89212fae0dfadf
1,2.1601,space,0.4663,0,363,363,265,1,,,6156fef09d1ab07148870099,64391620a88898fa1901ec2c,2023-04-14_10h00.48.662,PRaM,2021.2.3,Win32,60.3682463,61b8f3437b89212fae0dfadf
1,1.3403,space,0.3545,0,364,364,343,1,,,6156fef09d1ab07148870099,64391620a88898fa1901ec2c,2023-04-14_10h00.48.662,PRaM,2021.2.3,Win32,60.3682463,61b8f3437b89212fae0dfadf
4,2.5653,space,0.9111,0,365,365,350,1,,,6156fef09d1ab07148870099,64391620a88898fa1901ec2c,2023-04-14_10h00.48.662,PRaM,2021.2.3,Win32,60.3682463,61b8f3437b89212fae0dfadf
1,2.4957,space,0.8127,0,366,366,5,1,,,6156fef09d1ab07148870099,64391620a88898fa1901ec2c,2023-04-14_10h00.48.662,PRaM,2021.2.3,Win32,60.3682463,61b8f3437b89212fae0dfadf
1,1.9751,space,0.331,0,367,367,295,1,,,6156fef09d1ab07148870099,64391620a88898fa1901ec2c,2023-04-14_10h00.48.662,PRaM,2021.2.3,Win32,60.3682463,61b8f3437b89212fae0dfadf
1,1.5862,space,0.0627,0,368,368,32,1,,,6156fef09d1ab07148870099,64391620a88898fa1901ec2c,2023-04-14_10h00.48.662,PRaM,2021.2.3,Win32,60.3682463,61b8f3437b89212fae0dfadf
6,2.9448,space,1.2231,0,369,369,118,1,,,6156fef09d1ab07148870099,64391620a88898fa1901ec2c,2023-04-14_10h00.48.662,PRaM,2021.2.3,Win32,60.3682463,61b8f3437b89212fae0dfadf
1,1.7632,space,0.0408,0,370,370,103,1,,,6156fef09d1ab07148870099,64391620a88898fa1901ec2c,2023-04-14_10h00.48.662,PRaM,2021.2.3,Win32,60.3682463,61b8f3437b89212fae0dfadf
1,1.9057,space,0.3468,0,371,371,139,1,,,6156fef09d1ab07148870099,64391620a88898fa1901ec2c,2023-04-14_10h00.48.662,PRaM,2021.2.3,Win32,60.3682463,61b8f3437b89212fae0dfadf
1,2.203,space,0.4771,0,372,372,72,1,,,6156fef09d1ab07148870099,64391620a88898fa1901ec2c,2023-04-14_10h00.48.662,PRaM,2021.2.3,Win32,60.3682463,61b8f3437b89212fae0dfadf
1,1.8228,space,0.0706,0,373,373,163,1,,,6156fef09d1ab07148870099,64391620a88898fa1901ec2c,2023-04-14_10h00.48.662,PRaM,2021.2.3,Win32,60.3682463,61b8f3437b89212fae0dfadf
3,1.9059,space,0.0751,0,374,374,249,1,,,6156fef09d1ab07148870099,64391620a88898fa1901ec2c,2023-04-14_10h00.48.662,PRaM,2021.2.3,Win32,60.3682463,61b8f3437b89212fae0dfadf
3,1.9019,space,0.1037,0,375,375,243,1,,,6156fef09d1ab07148870099,64391620a88898fa1901ec2c,2023-04-14_10h00.48.662,PRaM,2021.2.3,Win32,60.3682463,61b8f3437b89212fae0dfadf
1,2.5609,space,0.8216,0,376,376,250,1,,,6156fef09d1ab07148870099,64391620a88898fa1901ec2c,2023-04-14_10h00.48.662,PRaM,2021.2.3,Win32,60.3682463,61b8f3437b89212fae0dfadf
1,1.5951,space,0.2959,0,377,377,214,1,,,6156fef09d1ab07148870099,64391620a88898fa1901ec2c,2023-04-14_10h00.48.662,PRaM,2021.2.3,Win32,60.3682463,61b8f3437b89212fae0dfadf
