Rating.response,Rating.rt,EndTrial.keys,EndTrial.rt,trials.thisRepN,trials.thisTrialN,trials.thisN,trials.thisIndex,trials.ran,Pos1,Pos2,participant,session,date,expName,psychopyVersion,OS,frameRate,study_id
3,10.9544,space,9.3069,0,0,0,18,1,,,616cbfb55486b52d735885fa,61b9125b41cbf5b6a46f80b3,2021-12-14_21h54.03.330,PRaM,2021.2.3,Win32,60.07449237,61b8f3437b89212fae0dfadf
7,3.8263,space,4.2674,0,1,1,363,1,,,616cbfb55486b52d735885fa,61b9125b41cbf5b6a46f80b3,2021-12-14_21h54.03.330,PRaM,2021.2.3,Win32,60.07449237,61b8f3437b89212fae0dfadf
5,7.4614,space,6.5595,0,2,2,296,1,,,616cbfb55486b52d735885fa,61b9125b41cbf5b6a46f80b3,2021-12-14_21h54.03.330,PRaM,2021.2.3,Win32,60.07449237,61b8f3437b89212fae0dfadf
3,3.2535,space,2.6491,0,3,3,82,1,,,616cbfb55486b52d735885fa,61b9125b41cbf5b6a46f80b3,2021-12-14_21h54.03.330,PRaM,2021.2.3,Win32,60.07449237,61b8f3437b89212fae0dfadf
4,3.4375,space,3.7402,0,4,4,268,1,,,616cbfb55486b52d735885fa,61b9125b41cbf5b6a46f80b3,2021-12-14_21h54.03.330,PRaM,2021.2.3,Win32,60.07449237,61b8f3437b89212fae0dfadf
8,3.0134,space,3.6173,0,5,5,281,1,,,616cbfb55486b52d735885fa,61b9125b41cbf5b6a46f80b3,2021-12-14_21h54.03.330,PRaM,2021.2.3,Win32,60.07449237,61b8f3437b89212fae0dfadf
1,4.5751,space,4.459,0,6,6,318,1,,,616cbfb55486b52d735885fa,61b9125b41cbf5b6a46f80b3,2021-12-14_21h54.03.330,PRaM,2021.2.3,Win32,60.07449237,61b8f3437b89212fae0dfadf
7,2.4536,space,3.7755,0,7,7,365,1,,,616cbfb55486b52d735885fa,61b9125b41cbf5b6a46f80b3,2021-12-14_21h54.03.330,PRaM,2021.2.3,Win32,60.07449237,61b8f3437b89212fae0dfadf
3,5.5523,space,4.3992,0,8,8,40,1,,,616cbfb55486b52d735885fa,61b9125b41cbf5b6a46f80b3,2021-12-14_21h54.03.330,PRaM,2021.2.3,Win32,60.07449237,61b8f3437b89212fae0dfadf
8,3.344,space,3.6541,0,9,9,16,1,,,616cbfb55486b52d735885fa,61b9125b41cbf5b6a46f80b3,2021-12-14_21h54.03.330,PRaM,2021.2.3,Win32,60.07449237,61b8f3437b89212fae0dfadf
9,2.9081,space,3.7787,0,10,10,118,1,,,616cbfb55486b52d735885fa,61b9125b41cbf5b6a46f80b3,2021-12-14_21h54.03.330,PRaM,2021.2.3,Win32,60.07449237,61b8f3437b89212fae0dfadf
4,2.5036,space,2.8355,0,11,11,344,1,,,616cbfb55486b52d735885fa,61b9125b41cbf5b6a46f80b3,2021-12-14_21h54.03.330,PRaM,2021.2.3,Win32,60.07449237,61b8f3437b89212fae0dfadf
1,4.099,space,3.7844,0,12,12,341,1,,,616cbfb55486b52d735885fa,61b9125b41cbf5b6a46f80b3,2021-12-14_21h54.03.330,PRaM,2021.2.3,Win32,60.07449237,61b8f3437b89212fae0dfadf
2,3.8433,space,3.8064,0,13,13,332,1,,,616cbfb55486b52d735885fa,61b9125b41cbf5b6a46f80b3,2021-12-14_21h54.03.330,PRaM,2021.2.3,Win32,60.07449237,61b8f3437b89212fae0dfadf
4,3.3012,space,2.4209,0,14,14,294,1,,,616cbfb55486b52d735885fa,61b9125b41cbf5b6a46f80b3,2021-12-14_21h54.03.330,PRaM,2021.2.3,Win32,60.07449237,61b8f3437b89212fae0dfadf
4,4.3608,space,2.8121,0,15,15,48,1,,,616cbfb55486b52d735885fa,61b9125b41cbf5b6a46f80b3,2021-12-14_21h54.03.330,PRaM,2021.2.3,Win32,60.07449237,61b8f3437b89212fae0dfadf
2,3.2384,space,3.0749,0,16,16,171,1,,,616cbfb55486b52d735885fa,61b9125b41cbf5b6a46f80b3,2021-12-14_21h54.03.330,PRaM,2021.2.3,Win32,60.07449237,61b8f3437b89212fae0dfadf
2,5.7531,space,5.7021,0,17,17,126,1,,,616cbfb55486b52d735885fa,61b9125b41cbf5b6a46f80b3,2021-12-14_21h54.03.330,PRaM,2021.2.3,Win32,60.07449237,61b8f3437b89212fae0dfadf
1,3.0969,space,2.1352,0,18,18,108,1,,,616cbfb55486b52d735885fa,61b9125b41cbf5b6a46f80b3,2021-12-14_21h54.03.330,PRaM,2021.2.3,Win32,60.07449237,61b8f3437b89212fae0dfadf
1,3.8298,space,2.968,0,19,19,71,1,,,616cbfb55486b52d735885fa,61b9125b41cbf5b6a46f80b3,2021-12-14_21h54.03.330,PRaM,2021.2.3,Win32,60.07449237,61b8f3437b89212fae0dfadf
1,3.9891,space,3.4338,0,20,20,232,1,,,616cbfb55486b52d735885fa,61b9125b41cbf5b6a46f80b3,2021-12-14_21h54.03.330,PRaM,2021.2.3,Win32,60.07449237,61b8f3437b89212fae0dfadf
2,4.0392,space,3.1173,0,21,21,125,1,,,616cbfb55486b52d735885fa,61b9125b41cbf5b6a46f80b3,2021-12-14_21h54.03.330,PRaM,2021.2.3,Win32,60.07449237,61b8f3437b89212fae0dfadf
4,3.0727,space,3.4712,0,22,22,336,1,,,616cbfb55486b52d735885fa,61b9125b41cbf5b6a46f80b3,2021-12-14_21h54.03.330,PRaM,2021.2.3,Win32,60.07449237,61b8f3437b89212fae0dfadf
7,6.8708,space,6.8745,0,23,23,147,1,,,616cbfb55486b52d735885fa,61b9125b41cbf5b6a46f80b3,2021-12-14_21h54.03.330,PRaM,2021.2.3,Win32,60.07449237,61b8f3437b89212fae0dfadf
5,4.5576,space,3.2683,0,24,24,38,1,,,616cbfb55486b52d735885fa,61b9125b41cbf5b6a46f80b3,2021-12-14_21h54.03.330,PRaM,2021.2.3,Win32,60.07449237,61b8f3437b89212fae0dfadf
6,3.3056,space,2.9698,0,25,25,358,1,,,616cbfb55486b52d735885fa,61b9125b41cbf5b6a46f80b3,2021-12-14_21h54.03.330,PRaM,2021.2.3,Win32,60.07449237,61b8f3437b89212fae0dfadf
2,5.6205,space,4.1217,0,26,26,111,1,,,616cbfb55486b52d735885fa,61b9125b41cbf5b6a46f80b3,2021-12-14_21h54.03.330,PRaM,2021.2.3,Win32,60.07449237,61b8f3437b89212fae0dfadf
8,2.7837,space,1.6354,0,27,27,64,1,,,616cbfb55486b52d735885fa,61b9125b41cbf5b6a46f80b3,2021-12-14_21h54.03.330,PRaM,2021.2.3,Win32,60.07449237,61b8f3437b89212fae0dfadf
2,4.0289,space,2.4006,0,28,28,153,1,,,616cbfb55486b52d735885fa,61b9125b41cbf5b6a46f80b3,2021-12-14_21h54.03.330,PRaM,2021.2.3,Win32,60.07449237,61b8f3437b89212fae0dfadf
8,3.6174,space,3.0551,0,29,29,304,1,,,616cbfb55486b52d735885fa,61b9125b41cbf5b6a46f80b3,2021-12-14_21h54.03.330,PRaM,2021.2.3,Win32,60.07449237,61b8f3437b89212fae0dfadf
8,4.6309,space,3.3238,0,30,30,154,1,,,616cbfb55486b52d735885fa,61b9125b41cbf5b6a46f80b3,2021-12-14_21h54.03.330,PRaM,2021.2.3,Win32,60.07449237,61b8f3437b89212fae0dfadf
2,3.2043,space,1.8775,0,31,31,94,1,,,616cbfb55486b52d735885fa,61b9125b41cbf5b6a46f80b3,2021-12-14_21h54.03.330,PRaM,2021.2.3,Win32,60.07449237,61b8f3437b89212fae0dfadf
6,3.1148,space,2.4741,0,32,32,42,1,,,616cbfb55486b52d735885fa,61b9125b41cbf5b6a46f80b3,2021-12-14_21h54.03.330,PRaM,2021.2.3,Win32,60.07449237,61b8f3437b89212fae0dfadf
9,3.3212,space,2.6219,0,33,33,61,1,,,616cbfb55486b52d735885fa,61b9125b41cbf5b6a46f80b3,2021-12-14_21h54.03.330,PRaM,2021.2.3,Win32,60.07449237,61b8f3437b89212fae0dfadf
8,2.911,space,2.0275,0,34,34,56,1,,,616cbfb55486b52d735885fa,61b9125b41cbf5b6a46f80b3,2021-12-14_21h54.03.330,PRaM,2021.2.3,Win32,60.07449237,61b8f3437b89212fae0dfadf
1,2.3379,space,1.0243,0,35,35,55,1,,,616cbfb55486b52d735885fa,61b9125b41cbf5b6a46f80b3,2021-12-14_21h54.03.330,PRaM,2021.2.3,Win32,60.07449237,61b8f3437b89212fae0dfadf
7,3.1238,space,2.2386,0,36,36,4,1,,,616cbfb55486b52d735885fa,61b9125b41cbf5b6a46f80b3,2021-12-14_21h54.03.330,PRaM,2021.2.3,Win32,60.07449237,61b8f3437b89212fae0dfadf
5,2.6572,space,2.4218,0,37,37,178,1,,,616cbfb55486b52d735885fa,61b9125b41cbf5b6a46f80b3,2021-12-14_21h54.03.330,PRaM,2021.2.3,Win32,60.07449237,61b8f3437b89212fae0dfadf
1,3.3559,space,1.7185,0,38,38,121,1,,,616cbfb55486b52d735885fa,61b9125b41cbf5b6a46f80b3,2021-12-14_21h54.03.330,PRaM,2021.2.3,Win32,60.07449237,61b8f3437b89212fae0dfadf
3,3.237,space,1.8373,0,39,39,169,1,,,616cbfb55486b52d735885fa,61b9125b41cbf5b6a46f80b3,2021-12-14_21h54.03.330,PRaM,2021.2.3,Win32,60.07449237,61b8f3437b89212fae0dfadf
2,3.2797,space,1.7241,0,40,40,24,1,,,616cbfb55486b52d735885fa,61b9125b41cbf5b6a46f80b3,2021-12-14_21h54.03.330,PRaM,2021.2.3,Win32,60.07449237,61b8f3437b89212fae0dfadf
2,2.7493,space,1.1657,0,41,41,252,1,,,616cbfb55486b52d735885fa,61b9125b41cbf5b6a46f80b3,2021-12-14_21h54.03.330,PRaM,2021.2.3,Win32,60.07449237,61b8f3437b89212fae0dfadf
1,2.9978,space,1.5253,0,42,42,377,1,,,616cbfb55486b52d735885fa,61b9125b41cbf5b6a46f80b3,2021-12-14_21h54.03.330,PRaM,2021.2.3,Win32,60.07449237,61b8f3437b89212fae0dfadf
3,2.6438,space,1.1262,0,43,43,236,1,,,616cbfb55486b52d735885fa,61b9125b41cbf5b6a46f80b3,2021-12-14_21h54.03.330,PRaM,2021.2.3,Win32,60.07449237,61b8f3437b89212fae0dfadf
3,6.593,space,7.6251,0,44,44,130,1,,,616cbfb55486b52d735885fa,61b9125b41cbf5b6a46f80b3,2021-12-14_21h54.03.330,PRaM,2021.2.3,Win32,60.07449237,61b8f3437b89212fae0dfadf
5,2.7153,space,1.0226,0,45,45,21,1,,,616cbfb55486b52d735885fa,61b9125b41cbf5b6a46f80b3,2021-12-14_21h54.03.330,PRaM,2021.2.3,Win32,60.07449237,61b8f3437b89212fae0dfadf
3,2.6137,space,1.0828,0,46,46,373,1,,,616cbfb55486b52d735885fa,61b9125b41cbf5b6a46f80b3,2021-12-14_21h54.03.330,PRaM,2021.2.3,Win32,60.07449237,61b8f3437b89212fae0dfadf
7,2.4482,space,0.9585,0,47,47,100,1,,,616cbfb55486b52d735885fa,61b9125b41cbf5b6a46f80b3,2021-12-14_21h54.03.330,PRaM,2021.2.3,Win32,60.07449237,61b8f3437b89212fae0dfadf
3,2.3252,space,0.735,0,48,48,219,1,,,616cbfb55486b52d735885fa,61b9125b41cbf5b6a46f80b3,2021-12-14_21h54.03.330,PRaM,2021.2.3,Win32,60.07449237,61b8f3437b89212fae0dfadf
4,2.705,space,1.0084,0,49,49,124,1,,,616cbfb55486b52d735885fa,61b9125b41cbf5b6a46f80b3,2021-12-14_21h54.03.330,PRaM,2021.2.3,Win32,60.07449237,61b8f3437b89212fae0dfadf
8,2.0704,space,0.7355,0,50,50,14,1,,,616cbfb55486b52d735885fa,61b9125b41cbf5b6a46f80b3,2021-12-14_21h54.03.330,PRaM,2021.2.3,Win32,60.07449237,61b8f3437b89212fae0dfadf
9,2.3034,space,1.1439,0,51,51,180,1,,,616cbfb55486b52d735885fa,61b9125b41cbf5b6a46f80b3,2021-12-14_21h54.03.330,PRaM,2021.2.3,Win32,60.07449237,61b8f3437b89212fae0dfadf
8,5.2152,space,3.538,0,52,52,264,1,,,616cbfb55486b52d735885fa,61b9125b41cbf5b6a46f80b3,2021-12-14_21h54.03.330,PRaM,2021.2.3,Win32,60.07449237,61b8f3437b89212fae0dfadf
2,1.7847,space,0.934,0,53,53,287,1,,,616cbfb55486b52d735885fa,61b9125b41cbf5b6a46f80b3,2021-12-14_21h54.03.330,PRaM,2021.2.3,Win32,60.07449237,61b8f3437b89212fae0dfadf
2,2.4045,space,1.0352,0,54,54,300,1,,,616cbfb55486b52d735885fa,61b9125b41cbf5b6a46f80b3,2021-12-14_21h54.03.330,PRaM,2021.2.3,Win32,60.07449237,61b8f3437b89212fae0dfadf
8,2.7541,space,1.0885,0,55,55,242,1,,,616cbfb55486b52d735885fa,61b9125b41cbf5b6a46f80b3,2021-12-14_21h54.03.330,PRaM,2021.2.3,Win32,60.07449237,61b8f3437b89212fae0dfadf
3,2.7207,space,1.1492,0,56,56,356,1,,,616cbfb55486b52d735885fa,61b9125b41cbf5b6a46f80b3,2021-12-14_21h54.03.330,PRaM,2021.2.3,Win32,60.07449237,61b8f3437b89212fae0dfadf
7,2.2205,space,0.5898,0,57,57,288,1,,,616cbfb55486b52d735885fa,61b9125b41cbf5b6a46f80b3,2021-12-14_21h54.03.330,PRaM,2021.2.3,Win32,60.07449237,61b8f3437b89212fae0dfadf
4,3.7152,space,2.061,0,58,58,267,1,,,616cbfb55486b52d735885fa,61b9125b41cbf5b6a46f80b3,2021-12-14_21h54.03.330,PRaM,2021.2.3,Win32,60.07449237,61b8f3437b89212fae0dfadf
9,1.9632,space,1.0579,0,59,59,323,1,,,616cbfb55486b52d735885fa,61b9125b41cbf5b6a46f80b3,2021-12-14_21h54.03.330,PRaM,2021.2.3,Win32,60.07449237,61b8f3437b89212fae0dfadf
5,2.6776,space,0.9567,0,60,60,306,1,,,616cbfb55486b52d735885fa,61b9125b41cbf5b6a46f80b3,2021-12-14_21h54.03.330,PRaM,2021.2.3,Win32,60.07449237,61b8f3437b89212fae0dfadf
8,2.0607,space,1.8702,0,61,61,12,1,,,616cbfb55486b52d735885fa,61b9125b41cbf5b6a46f80b3,2021-12-14_21h54.03.330,PRaM,2021.2.3,Win32,60.07449237,61b8f3437b89212fae0dfadf
4,2.7907,space,1.1324,0,62,62,123,1,,,616cbfb55486b52d735885fa,61b9125b41cbf5b6a46f80b3,2021-12-14_21h54.03.330,PRaM,2021.2.3,Win32,60.07449237,61b8f3437b89212fae0dfadf
8,2.5699,space,0.9492,0,63,63,62,1,,,616cbfb55486b52d735885fa,61b9125b41cbf5b6a46f80b3,2021-12-14_21h54.03.330,PRaM,2021.2.3,Win32,60.07449237,61b8f3437b89212fae0dfadf
9,1.6572,space,0.4768,0,64,64,197,1,,,616cbfb55486b52d735885fa,61b9125b41cbf5b6a46f80b3,2021-12-14_21h54.03.330,PRaM,2021.2.3,Win32,60.07449237,61b8f3437b89212fae0dfadf
2,1.9429,space,0.2405,0,65,65,65,1,,,616cbfb55486b52d735885fa,61b9125b41cbf5b6a46f80b3,2021-12-14_21h54.03.330,PRaM,2021.2.3,Win32,60.07449237,61b8f3437b89212fae0dfadf
4,3.0715,space,1.4299,0,66,66,76,1,,,616cbfb55486b52d735885fa,61b9125b41cbf5b6a46f80b3,2021-12-14_21h54.03.330,PRaM,2021.2.3,Win32,60.07449237,61b8f3437b89212fae0dfadf
7,2.8465,space,1.3159,0,67,67,66,1,,,616cbfb55486b52d735885fa,61b9125b41cbf5b6a46f80b3,2021-12-14_21h54.03.330,PRaM,2021.2.3,Win32,60.07449237,61b8f3437b89212fae0dfadf
3,2.9864,space,1.2679,0,68,68,72,1,,,616cbfb55486b52d735885fa,61b9125b41cbf5b6a46f80b3,2021-12-14_21h54.03.330,PRaM,2021.2.3,Win32,60.07449237,61b8f3437b89212fae0dfadf
1,1.9898,space,0.7767,0,69,69,107,1,,,616cbfb55486b52d735885fa,61b9125b41cbf5b6a46f80b3,2021-12-14_21h54.03.330,PRaM,2021.2.3,Win32,60.07449237,61b8f3437b89212fae0dfadf
2,2.6867,space,1.0039,0,70,70,185,1,,,616cbfb55486b52d735885fa,61b9125b41cbf5b6a46f80b3,2021-12-14_21h54.03.330,PRaM,2021.2.3,Win32,60.07449237,61b8f3437b89212fae0dfadf
2,1.875,space,0.8086,0,71,71,35,1,,,616cbfb55486b52d735885fa,61b9125b41cbf5b6a46f80b3,2021-12-14_21h54.03.330,PRaM,2021.2.3,Win32,60.07449237,61b8f3437b89212fae0dfadf
6,2.8796,space,1.2491,0,72,72,201,1,,,616cbfb55486b52d735885fa,61b9125b41cbf5b6a46f80b3,2021-12-14_21h54.03.330,PRaM,2021.2.3,Win32,60.07449237,61b8f3437b89212fae0dfadf
4,2.6427,space,0.995,0,73,73,146,1,,,616cbfb55486b52d735885fa,61b9125b41cbf5b6a46f80b3,2021-12-14_21h54.03.330,PRaM,2021.2.3,Win32,60.07449237,61b8f3437b89212fae0dfadf
2,1.8373,space,0.2896,0,74,74,231,1,,,616cbfb55486b52d735885fa,61b9125b41cbf5b6a46f80b3,2021-12-14_21h54.03.330,PRaM,2021.2.3,Win32,60.07449237,61b8f3437b89212fae0dfadf
8,2.1274,space,0.4691,0,75,75,277,1,,,616cbfb55486b52d735885fa,61b9125b41cbf5b6a46f80b3,2021-12-14_21h54.03.330,PRaM,2021.2.3,Win32,60.07449237,61b8f3437b89212fae0dfadf
2,1.5968,space,0.0263,0,76,76,284,1,,,616cbfb55486b52d735885fa,61b9125b41cbf5b6a46f80b3,2021-12-14_21h54.03.330,PRaM,2021.2.3,Win32,60.07449237,61b8f3437b89212fae0dfadf
1,1.8132,space,0.175,0,77,77,308,1,,,616cbfb55486b52d735885fa,61b9125b41cbf5b6a46f80b3,2021-12-14_21h54.03.330,PRaM,2021.2.3,Win32,60.07449237,61b8f3437b89212fae0dfadf
4,2.459,space,0.808,0,78,78,179,1,,,616cbfb55486b52d735885fa,61b9125b41cbf5b6a46f80b3,2021-12-14_21h54.03.330,PRaM,2021.2.3,Win32,60.07449237,61b8f3437b89212fae0dfadf
3,1.9773,space,0.4349,0,79,79,374,1,,,616cbfb55486b52d735885fa,61b9125b41cbf5b6a46f80b3,2021-12-14_21h54.03.330,PRaM,2021.2.3,Win32,60.07449237,61b8f3437b89212fae0dfadf
4,5.615,space,3.785,0,80,80,175,1,,,616cbfb55486b52d735885fa,61b9125b41cbf5b6a46f80b3,2021-12-14_21h54.03.330,PRaM,2021.2.3,Win32,60.07449237,61b8f3437b89212fae0dfadf
8,2.5982,space,1.0184,0,81,81,74,1,,,616cbfb55486b52d735885fa,61b9125b41cbf5b6a46f80b3,2021-12-14_21h54.03.330,PRaM,2021.2.3,Win32,60.07449237,61b8f3437b89212fae0dfadf
4,2.8662,space,1.0727,0,82,82,101,1,,,616cbfb55486b52d735885fa,61b9125b41cbf5b6a46f80b3,2021-12-14_21h54.03.330,PRaM,2021.2.3,Win32,60.07449237,61b8f3437b89212fae0dfadf
2,1.931,space,0.1503,0,83,83,316,1,,,616cbfb55486b52d735885fa,61b9125b41cbf5b6a46f80b3,2021-12-14_21h54.03.330,PRaM,2021.2.3,Win32,60.07449237,61b8f3437b89212fae0dfadf
9,2.0866,space,0.5188,0,84,84,85,1,,,616cbfb55486b52d735885fa,61b9125b41cbf5b6a46f80b3,2021-12-14_21h54.03.330,PRaM,2021.2.3,Win32,60.07449237,61b8f3437b89212fae0dfadf
1,1.8406,space,0.2244,0,85,85,10,1,,,616cbfb55486b52d735885fa,61b9125b41cbf5b6a46f80b3,2021-12-14_21h54.03.330,PRaM,2021.2.3,Win32,60.07449237,61b8f3437b89212fae0dfadf
2,3.5107,space,1.8785,0,86,86,37,1,,,616cbfb55486b52d735885fa,61b9125b41cbf5b6a46f80b3,2021-12-14_21h54.03.330,PRaM,2021.2.3,Win32,60.07449237,61b8f3437b89212fae0dfadf
1,1.9922,space,0.3609,0,87,87,266,1,,,616cbfb55486b52d735885fa,61b9125b41cbf5b6a46f80b3,2021-12-14_21h54.03.330,PRaM,2021.2.3,Win32,60.07449237,61b8f3437b89212fae0dfadf
9,2.2913,space,0.6894,0,88,88,326,1,,,616cbfb55486b52d735885fa,61b9125b41cbf5b6a46f80b3,2021-12-14_21h54.03.330,PRaM,2021.2.3,Win32,60.07449237,61b8f3437b89212fae0dfadf
4,3.0043,space,1.3505,0,89,89,165,1,,,616cbfb55486b52d735885fa,61b9125b41cbf5b6a46f80b3,2021-12-14_21h54.03.330,PRaM,2021.2.3,Win32,60.07449237,61b8f3437b89212fae0dfadf
4,2.3638,space,0.5425,0,90,90,167,1,,,616cbfb55486b52d735885fa,61b9125b41cbf5b6a46f80b3,2021-12-14_21h54.03.330,PRaM,2021.2.3,Win32,60.07449237,61b8f3437b89212fae0dfadf
8,2.4376,space,0.6545,0,91,91,222,1,,,616cbfb55486b52d735885fa,61b9125b41cbf5b6a46f80b3,2021-12-14_21h54.03.330,PRaM,2021.2.3,Win32,60.07449237,61b8f3437b89212fae0dfadf
8,2.7545,space,0.9871,0,92,92,173,1,,,616cbfb55486b52d735885fa,61b9125b41cbf5b6a46f80b3,2021-12-14_21h54.03.330,PRaM,2021.2.3,Win32,60.07449237,61b8f3437b89212fae0dfadf
8,1.6885,space,0.0106,0,93,93,136,1,,,616cbfb55486b52d735885fa,61b9125b41cbf5b6a46f80b3,2021-12-14_21h54.03.330,PRaM,2021.2.3,Win32,60.07449237,61b8f3437b89212fae0dfadf
8,3.6435,space,2.0335,0,94,94,278,1,,,616cbfb55486b52d735885fa,61b9125b41cbf5b6a46f80b3,2021-12-14_21h54.03.330,PRaM,2021.2.3,Win32,60.07449237,61b8f3437b89212fae0dfadf
1,2.164,space,0.48,0,95,95,217,1,,,616cbfb55486b52d735885fa,61b9125b41cbf5b6a46f80b3,2021-12-14_21h54.03.330,PRaM,2021.2.3,Win32,60.07449237,61b8f3437b89212fae0dfadf
3,2.1363,space,0.4588,0,96,96,81,1,,,616cbfb55486b52d735885fa,61b9125b41cbf5b6a46f80b3,2021-12-14_21h54.03.330,PRaM,2021.2.3,Win32,60.07449237,61b8f3437b89212fae0dfadf
8,2.7367,space,1.0516,0,97,97,7,1,,,616cbfb55486b52d735885fa,61b9125b41cbf5b6a46f80b3,2021-12-14_21h54.03.330,PRaM,2021.2.3,Win32,60.07449237,61b8f3437b89212fae0dfadf
3,2.2974,space,0.6286,0,98,98,148,1,,,616cbfb55486b52d735885fa,61b9125b41cbf5b6a46f80b3,2021-12-14_21h54.03.330,PRaM,2021.2.3,Win32,60.07449237,61b8f3437b89212fae0dfadf
3,2.25,space,0.5216,0,99,99,349,1,,,616cbfb55486b52d735885fa,61b9125b41cbf5b6a46f80b3,2021-12-14_21h54.03.330,PRaM,2021.2.3,Win32,60.07449237,61b8f3437b89212fae0dfadf
2,2.5132,space,0.8684,0,100,100,44,1,,,616cbfb55486b52d735885fa,61b9125b41cbf5b6a46f80b3,2021-12-14_21h54.03.330,PRaM,2021.2.3,Win32,60.07449237,61b8f3437b89212fae0dfadf
2,1.9472,space,1.9111,0,101,101,368,1,,,616cbfb55486b52d735885fa,61b9125b41cbf5b6a46f80b3,2021-12-14_21h54.03.330,PRaM,2021.2.3,Win32,60.07449237,61b8f3437b89212fae0dfadf
9,1.9408,space,0.3335,0,102,102,279,1,,,616cbfb55486b52d735885fa,61b9125b41cbf5b6a46f80b3,2021-12-14_21h54.03.330,PRaM,2021.2.3,Win32,60.07449237,61b8f3437b89212fae0dfadf
9,1.5246,space,1.3884,0,103,103,325,1,,,616cbfb55486b52d735885fa,61b9125b41cbf5b6a46f80b3,2021-12-14_21h54.03.330,PRaM,2021.2.3,Win32,60.07449237,61b8f3437b89212fae0dfadf
4,3.2987,space,1.5703,0,104,104,191,1,,,616cbfb55486b52d735885fa,61b9125b41cbf5b6a46f80b3,2021-12-14_21h54.03.330,PRaM,2021.2.3,Win32,60.07449237,61b8f3437b89212fae0dfadf
4,1.4214,space,0.8272,0,105,105,95,1,,,616cbfb55486b52d735885fa,61b9125b41cbf5b6a46f80b3,2021-12-14_21h54.03.330,PRaM,2021.2.3,Win32,60.07449237,61b8f3437b89212fae0dfadf
8,3.6176,space,1.9434,0,106,106,83,1,,,616cbfb55486b52d735885fa,61b9125b41cbf5b6a46f80b3,2021-12-14_21h54.03.330,PRaM,2021.2.3,Win32,60.07449237,61b8f3437b89212fae0dfadf
2,1.6469,space,0.0422,0,107,107,292,1,,,616cbfb55486b52d735885fa,61b9125b41cbf5b6a46f80b3,2021-12-14_21h54.03.330,PRaM,2021.2.3,Win32,60.07449237,61b8f3437b89212fae0dfadf
1,1.8063,space,0.2395,0,108,108,353,1,,,616cbfb55486b52d735885fa,61b9125b41cbf5b6a46f80b3,2021-12-14_21h54.03.330,PRaM,2021.2.3,Win32,60.07449237,61b8f3437b89212fae0dfadf
3,2.1067,space,0.5168,0,109,109,317,1,,,616cbfb55486b52d735885fa,61b9125b41cbf5b6a46f80b3,2021-12-14_21h54.03.330,PRaM,2021.2.3,Win32,60.07449237,61b8f3437b89212fae0dfadf
3,2.4705,space,0.823,0,110,110,184,1,,,616cbfb55486b52d735885fa,61b9125b41cbf5b6a46f80b3,2021-12-14_21h54.03.330,PRaM,2021.2.3,Win32,60.07449237,61b8f3437b89212fae0dfadf
1,2.3772,space,0.7338,0,111,111,54,1,,,616cbfb55486b52d735885fa,61b9125b41cbf5b6a46f80b3,2021-12-14_21h54.03.330,PRaM,2021.2.3,Win32,60.07449237,61b8f3437b89212fae0dfadf
6,2.4995,space,0.877,0,112,112,327,1,,,616cbfb55486b52d735885fa,61b9125b41cbf5b6a46f80b3,2021-12-14_21h54.03.330,PRaM,2021.2.3,Win32,60.07449237,61b8f3437b89212fae0dfadf
9,2.6207,space,1.0672,0,113,113,225,1,,,616cbfb55486b52d735885fa,61b9125b41cbf5b6a46f80b3,2021-12-14_21h54.03.330,PRaM,2021.2.3,Win32,60.07449237,61b8f3437b89212fae0dfadf
2,1.9808,space,0.2945,0,114,114,283,1,,,616cbfb55486b52d735885fa,61b9125b41cbf5b6a46f80b3,2021-12-14_21h54.03.330,PRaM,2021.2.3,Win32,60.07449237,61b8f3437b89212fae0dfadf
2,1.5317,space,0.6092,0,115,115,155,1,,,616cbfb55486b52d735885fa,61b9125b41cbf5b6a46f80b3,2021-12-14_21h54.03.330,PRaM,2021.2.3,Win32,60.07449237,61b8f3437b89212fae0dfadf
2,3.3494,space,1.6798,0,116,116,362,1,,,616cbfb55486b52d735885fa,61b9125b41cbf5b6a46f80b3,2021-12-14_21h54.03.330,PRaM,2021.2.3,Win32,60.07449237,61b8f3437b89212fae0dfadf
6,1.8049,space,0.335,0,117,117,181,1,,,616cbfb55486b52d735885fa,61b9125b41cbf5b6a46f80b3,2021-12-14_21h54.03.330,PRaM,2021.2.3,Win32,60.07449237,61b8f3437b89212fae0dfadf
2,2.4373,space,0.7881,0,118,118,204,1,,,616cbfb55486b52d735885fa,61b9125b41cbf5b6a46f80b3,2021-12-14_21h54.03.330,PRaM,2021.2.3,Win32,60.07449237,61b8f3437b89212fae0dfadf
9,1.955,space,0.3564,0,119,119,59,1,,,616cbfb55486b52d735885fa,61b9125b41cbf5b6a46f80b3,2021-12-14_21h54.03.330,PRaM,2021.2.3,Win32,60.07449237,61b8f3437b89212fae0dfadf
8,2.0659,space,0.3824,0,120,120,226,1,,,616cbfb55486b52d735885fa,61b9125b41cbf5b6a46f80b3,2021-12-14_21h54.03.330,PRaM,2021.2.3,Win32,60.07449237,61b8f3437b89212fae0dfadf
5,3.2971,space,1.5171,0,121,121,211,1,,,616cbfb55486b52d735885fa,61b9125b41cbf5b6a46f80b3,2021-12-14_21h54.03.330,PRaM,2021.2.3,Win32,60.07449237,61b8f3437b89212fae0dfadf
2,2.4463,space,0.6852,0,122,122,299,1,,,616cbfb55486b52d735885fa,61b9125b41cbf5b6a46f80b3,2021-12-14_21h54.03.330,PRaM,2021.2.3,Win32,60.07449237,61b8f3437b89212fae0dfadf
6,2.3456,space,0.6403,0,123,123,152,1,,,616cbfb55486b52d735885fa,61b9125b41cbf5b6a46f80b3,2021-12-14_21h54.03.330,PRaM,2021.2.3,Win32,60.07449237,61b8f3437b89212fae0dfadf
6,1.6711,space,0.135,0,124,124,273,1,,,616cbfb55486b52d735885fa,61b9125b41cbf5b6a46f80b3,2021-12-14_21h54.03.330,PRaM,2021.2.3,Win32,60.07449237,61b8f3437b89212fae0dfadf
5,2.7724,space,0.9909,0,125,125,311,1,,,616cbfb55486b52d735885fa,61b9125b41cbf5b6a46f80b3,2021-12-14_21h54.03.330,PRaM,2021.2.3,Win32,60.07449237,61b8f3437b89212fae0dfadf
3,2.5399,space,0.8793,0,126,126,158,1,,,616cbfb55486b52d735885fa,61b9125b41cbf5b6a46f80b3,2021-12-14_21h54.03.330,PRaM,2021.2.3,Win32,60.07449237,61b8f3437b89212fae0dfadf
7,2.048,space,0.3631,0,127,127,99,1,,,616cbfb55486b52d735885fa,61b9125b41cbf5b6a46f80b3,2021-12-14_21h54.03.330,PRaM,2021.2.3,Win32,60.07449237,61b8f3437b89212fae0dfadf
2,2.1379,space,0.3799,0,128,128,39,1,,,616cbfb55486b52d735885fa,61b9125b41cbf5b6a46f80b3,2021-12-14_21h54.03.330,PRaM,2021.2.3,Win32,60.07449237,61b8f3437b89212fae0dfadf
9,2.054,space,0.3874,0,129,129,115,1,,,616cbfb55486b52d735885fa,61b9125b41cbf5b6a46f80b3,2021-12-14_21h54.03.330,PRaM,2021.2.3,Win32,60.07449237,61b8f3437b89212fae0dfadf
2,2.4615,space,0.7056,0,130,130,293,1,,,616cbfb55486b52d735885fa,61b9125b41cbf5b6a46f80b3,2021-12-14_21h54.03.330,PRaM,2021.2.3,Win32,60.07449237,61b8f3437b89212fae0dfadf
3,2.1759,space,0.5412,0,131,131,116,1,,,616cbfb55486b52d735885fa,61b9125b41cbf5b6a46f80b3,2021-12-14_21h54.03.330,PRaM,2021.2.3,Win32,60.07449237,61b8f3437b89212fae0dfadf
8,2.6537,space,0.966,0,132,132,224,1,,,616cbfb55486b52d735885fa,61b9125b41cbf5b6a46f80b3,2021-12-14_21h54.03.330,PRaM,2021.2.3,Win32,60.07449237,61b8f3437b89212fae0dfadf
9,1.9218,space,0.2704,0,133,133,45,1,,,616cbfb55486b52d735885fa,61b9125b41cbf5b6a46f80b3,2021-12-14_21h54.03.330,PRaM,2021.2.3,Win32,60.07449237,61b8f3437b89212fae0dfadf
1,1.837,space,0.1785,0,134,134,290,1,,,616cbfb55486b52d735885fa,61b9125b41cbf5b6a46f80b3,2021-12-14_21h54.03.330,PRaM,2021.2.3,Win32,60.07449237,61b8f3437b89212fae0dfadf
2,1.8371,space,0.1351,0,135,135,5,1,,,616cbfb55486b52d735885fa,61b9125b41cbf5b6a46f80b3,2021-12-14_21h54.03.330,PRaM,2021.2.3,Win32,60.07449237,61b8f3437b89212fae0dfadf
4,4.47,space,2.7325,0,136,136,376,1,,,616cbfb55486b52d735885fa,61b9125b41cbf5b6a46f80b3,2021-12-14_21h54.03.330,PRaM,2021.2.3,Win32,60.07449237,61b8f3437b89212fae0dfadf
2,1.8076,space,0.0533,0,137,137,188,1,,,616cbfb55486b52d735885fa,61b9125b41cbf5b6a46f80b3,2021-12-14_21h54.03.330,PRaM,2021.2.3,Win32,60.07449237,61b8f3437b89212fae0dfadf
4,2.3204,space,0.6095,0,138,138,241,1,,,616cbfb55486b52d735885fa,61b9125b41cbf5b6a46f80b3,2021-12-14_21h54.03.330,PRaM,2021.2.3,Win32,60.07449237,61b8f3437b89212fae0dfadf
8,2.6277,space,0.944,0,139,139,86,1,,,616cbfb55486b52d735885fa,61b9125b41cbf5b6a46f80b3,2021-12-14_21h54.03.330,PRaM,2021.2.3,Win32,60.07449237,61b8f3437b89212fae0dfadf
9,1.483,space,0.6673,0,140,140,335,1,,,616cbfb55486b52d735885fa,61b9125b41cbf5b6a46f80b3,2021-12-14_21h54.03.330,PRaM,2021.2.3,Win32,60.07449237,61b8f3437b89212fae0dfadf
2,2.3804,space,0.6326,0,141,141,97,1,,,616cbfb55486b52d735885fa,61b9125b41cbf5b6a46f80b3,2021-12-14_21h54.03.330,PRaM,2021.2.3,Win32,60.07449237,61b8f3437b89212fae0dfadf
7,1.7816,space,0.1638,0,142,142,187,1,,,616cbfb55486b52d735885fa,61b9125b41cbf5b6a46f80b3,2021-12-14_21h54.03.330,PRaM,2021.2.3,Win32,60.07449237,61b8f3437b89212fae0dfadf
9,2.448,space,0.7869,0,143,143,150,1,,,616cbfb55486b52d735885fa,61b9125b41cbf5b6a46f80b3,2021-12-14_21h54.03.330,PRaM,2021.2.3,Win32,60.07449237,61b8f3437b89212fae0dfadf
9,2.1233,space,0.4839,0,144,144,84,1,,,616cbfb55486b52d735885fa,61b9125b41cbf5b6a46f80b3,2021-12-14_21h54.03.330,PRaM,2021.2.3,Win32,60.07449237,61b8f3437b89212fae0dfadf
6,2.5832,space,0.9333,0,145,145,357,1,,,616cbfb55486b52d735885fa,61b9125b41cbf5b6a46f80b3,2021-12-14_21h54.03.330,PRaM,2021.2.3,Win32,60.07449237,61b8f3437b89212fae0dfadf
9,1.7749,space,0.1043,0,146,146,17,1,,,616cbfb55486b52d735885fa,61b9125b41cbf5b6a46f80b3,2021-12-14_21h54.03.330,PRaM,2021.2.3,Win32,60.07449237,61b8f3437b89212fae0dfadf
2,2.403,space,0.6824,0,147,147,77,1,,,616cbfb55486b52d735885fa,61b9125b41cbf5b6a46f80b3,2021-12-14_21h54.03.330,PRaM,2021.2.3,Win32,60.07449237,61b8f3437b89212fae0dfadf
4,1.8705,space,0.1745,0,148,148,314,1,,,616cbfb55486b52d735885fa,61b9125b41cbf5b6a46f80b3,2021-12-14_21h54.03.330,PRaM,2021.2.3,Win32,60.07449237,61b8f3437b89212fae0dfadf
9,2.1725,space,0.469,0,149,149,112,1,,,616cbfb55486b52d735885fa,61b9125b41cbf5b6a46f80b3,2021-12-14_21h54.03.330,PRaM,2021.2.3,Win32,60.07449237,61b8f3437b89212fae0dfadf
6,2.1666,space,0.4491,0,150,150,0,1,,,616cbfb55486b52d735885fa,61b9125b41cbf5b6a46f80b3,2021-12-14_21h54.03.330,PRaM,2021.2.3,Win32,60.07449237,61b8f3437b89212fae0dfadf
2,1.7724,space,0.1659,0,151,151,63,1,,,616cbfb55486b52d735885fa,61b9125b41cbf5b6a46f80b3,2021-12-14_21h54.03.330,PRaM,2021.2.3,Win32,60.07449237,61b8f3437b89212fae0dfadf
6,1.7656,space,0.0949,0,152,152,30,1,,,616cbfb55486b52d735885fa,61b9125b41cbf5b6a46f80b3,2021-12-14_21h54.03.330,PRaM,2021.2.3,Win32,60.07449237,61b8f3437b89212fae0dfadf
6,2.5481,space,0.8181,0,153,153,269,1,,,616cbfb55486b52d735885fa,61b9125b41cbf5b6a46f80b3,2021-12-14_21h54.03.330,PRaM,2021.2.3,Win32,60.07449237,61b8f3437b89212fae0dfadf
1,1.8194,space,0.2003,0,154,154,68,1,,,616cbfb55486b52d735885fa,61b9125b41cbf5b6a46f80b3,2021-12-14_21h54.03.330,PRaM,2021.2.3,Win32,60.07449237,61b8f3437b89212fae0dfadf
1,3.3767,space,1.7027,0,155,155,133,1,,,616cbfb55486b52d735885fa,61b9125b41cbf5b6a46f80b3,2021-12-14_21h54.03.330,PRaM,2021.2.3,Win32,60.07449237,61b8f3437b89212fae0dfadf
1,2.116,space,0.4161,0,156,156,67,1,,,616cbfb55486b52d735885fa,61b9125b41cbf5b6a46f80b3,2021-12-14_21h54.03.330,PRaM,2021.2.3,Win32,60.07449237,61b8f3437b89212fae0dfadf
3,1.8406,space,0.1836,0,157,157,206,1,,,616cbfb55486b52d735885fa,61b9125b41cbf5b6a46f80b3,2021-12-14_21h54.03.330,PRaM,2021.2.3,Win32,60.07449237,61b8f3437b89212fae0dfadf
8,1.7134,space,0.0776,0,158,158,285,1,,,616cbfb55486b52d735885fa,61b9125b41cbf5b6a46f80b3,2021-12-14_21h54.03.330,PRaM,2021.2.3,Win32,60.07449237,61b8f3437b89212fae0dfadf
1,1.8215,space,0.1389,0,159,159,9,1,,,616cbfb55486b52d735885fa,61b9125b41cbf5b6a46f80b3,2021-12-14_21h54.03.330,PRaM,2021.2.3,Win32,60.07449237,61b8f3437b89212fae0dfadf
8,2.6326,space,0.8663,0,160,160,182,1,,,616cbfb55486b52d735885fa,61b9125b41cbf5b6a46f80b3,2021-12-14_21h54.03.330,PRaM,2021.2.3,Win32,60.07449237,61b8f3437b89212fae0dfadf
2,1.812,space,0.0796,0,161,161,360,1,,,616cbfb55486b52d735885fa,61b9125b41cbf5b6a46f80b3,2021-12-14_21h54.03.330,PRaM,2021.2.3,Win32,60.07449237,61b8f3437b89212fae0dfadf
7,1.7781,space,0.0185,0,162,162,310,1,,,616cbfb55486b52d735885fa,61b9125b41cbf5b6a46f80b3,2021-12-14_21h54.03.330,PRaM,2021.2.3,Win32,60.07449237,61b8f3437b89212fae0dfadf
8,2.1246,space,0.5056,0,163,163,249,1,,,616cbfb55486b52d735885fa,61b9125b41cbf5b6a46f80b3,2021-12-14_21h54.03.330,PRaM,2021.2.3,Win32,60.07449237,61b8f3437b89212fae0dfadf
9,1.6868,space,0.0685,0,164,164,319,1,,,616cbfb55486b52d735885fa,61b9125b41cbf5b6a46f80b3,2021-12-14_21h54.03.330,PRaM,2021.2.3,Win32,60.07449237,61b8f3437b89212fae0dfadf
1,1.57,space,0.6014,0,165,165,215,1,,,616cbfb55486b52d735885fa,61b9125b41cbf5b6a46f80b3,2021-12-14_21h54.03.330,PRaM,2021.2.3,Win32,60.07449237,61b8f3437b89212fae0dfadf
2,1.6573,space,0.5751,0,166,166,263,1,,,616cbfb55486b52d735885fa,61b9125b41cbf5b6a46f80b3,2021-12-14_21h54.03.330,PRaM,2021.2.3,Win32,60.07449237,61b8f3437b89212fae0dfadf
8,1.7956,space,0.1186,0,167,167,372,1,,,616cbfb55486b52d735885fa,61b9125b41cbf5b6a46f80b3,2021-12-14_21h54.03.330,PRaM,2021.2.3,Win32,60.07449237,61b8f3437b89212fae0dfadf
2,4.2613,space,2.5684,0,168,168,122,1,,,616cbfb55486b52d735885fa,61b9125b41cbf5b6a46f80b3,2021-12-14_21h54.03.330,PRaM,2021.2.3,Win32,60.07449237,61b8f3437b89212fae0dfadf
6,4.063,space,2.399,0,169,169,271,1,,,616cbfb55486b52d735885fa,61b9125b41cbf5b6a46f80b3,2021-12-14_21h54.03.330,PRaM,2021.2.3,Win32,60.07449237,61b8f3437b89212fae0dfadf
7,1.774,space,0.1186,0,170,170,177,1,,,616cbfb55486b52d735885fa,61b9125b41cbf5b6a46f80b3,2021-12-14_21h54.03.330,PRaM,2021.2.3,Win32,60.07449237,61b8f3437b89212fae0dfadf
3,2.9212,space,1.2245,0,171,171,145,1,,,616cbfb55486b52d735885fa,61b9125b41cbf5b6a46f80b3,2021-12-14_21h54.03.330,PRaM,2021.2.3,Win32,60.07449237,61b8f3437b89212fae0dfadf
7,1.8471,space,0.1266,0,172,172,256,1,,,616cbfb55486b52d735885fa,61b9125b41cbf5b6a46f80b3,2021-12-14_21h54.03.330,PRaM,2021.2.3,Win32,60.07449237,61b8f3437b89212fae0dfadf
3,1.5292,space,0.5448,0,173,173,27,1,,,616cbfb55486b52d735885fa,61b9125b41cbf5b6a46f80b3,2021-12-14_21h54.03.330,PRaM,2021.2.3,Win32,60.07449237,61b8f3437b89212fae0dfadf
2,1.66,space,0.5779,0,174,174,34,1,,,616cbfb55486b52d735885fa,61b9125b41cbf5b6a46f80b3,2021-12-14_21h54.03.330,PRaM,2021.2.3,Win32,60.07449237,61b8f3437b89212fae0dfadf
4,2.1377,space,0.4658,0,175,175,230,1,,,616cbfb55486b52d735885fa,61b9125b41cbf5b6a46f80b3,2021-12-14_21h54.03.330,PRaM,2021.2.3,Win32,60.07449237,61b8f3437b89212fae0dfadf
2,2.2656,space,0.5325,0,176,176,70,1,,,616cbfb55486b52d735885fa,61b9125b41cbf5b6a46f80b3,2021-12-14_21h54.03.330,PRaM,2021.2.3,Win32,60.07449237,61b8f3437b89212fae0dfadf
2,1.1236,space,1.2796,0,177,177,58,1,,,616cbfb55486b52d735885fa,61b9125b41cbf5b6a46f80b3,2021-12-14_21h54.03.330,PRaM,2021.2.3,Win32,60.07449237,61b8f3437b89212fae0dfadf
6,2.6752,space,0.9891,0,178,178,342,1,,,616cbfb55486b52d735885fa,61b9125b41cbf5b6a46f80b3,2021-12-14_21h54.03.330,PRaM,2021.2.3,Win32,60.07449237,61b8f3437b89212fae0dfadf
2,1.511,space,0.3003,0,179,179,214,1,,,616cbfb55486b52d735885fa,61b9125b41cbf5b6a46f80b3,2021-12-14_21h54.03.330,PRaM,2021.2.3,Win32,60.07449237,61b8f3437b89212fae0dfadf
2,2.4487,space,1.2367,0,180,180,265,1,,,616cbfb55486b52d735885fa,61b9125b41cbf5b6a46f80b3,2021-12-14_21h54.03.330,PRaM,2021.2.3,Win32,60.07449237,61b8f3437b89212fae0dfadf
8,2.4475,space,0.7695,0,181,181,196,1,,,616cbfb55486b52d735885fa,61b9125b41cbf5b6a46f80b3,2021-12-14_21h54.03.330,PRaM,2021.2.3,Win32,60.07449237,61b8f3437b89212fae0dfadf
2,1.6542,space,0.0747,0,182,182,144,1,,,616cbfb55486b52d735885fa,61b9125b41cbf5b6a46f80b3,2021-12-14_21h54.03.330,PRaM,2021.2.3,Win32,60.07449237,61b8f3437b89212fae0dfadf
3,1.5924,space,0.3836,0,183,183,324,1,,,616cbfb55486b52d735885fa,61b9125b41cbf5b6a46f80b3,2021-12-14_21h54.03.330,PRaM,2021.2.3,Win32,60.07449237,61b8f3437b89212fae0dfadf
2,1.7464,space,0.2538,0,184,184,202,1,,,616cbfb55486b52d735885fa,61b9125b41cbf5b6a46f80b3,2021-12-14_21h54.03.330,PRaM,2021.2.3,Win32,60.07449237,61b8f3437b89212fae0dfadf
9,1.853,space,0.1926,0,185,185,207,1,,,616cbfb55486b52d735885fa,61b9125b41cbf5b6a46f80b3,2021-12-14_21h54.03.330,PRaM,2021.2.3,Win32,60.07449237,61b8f3437b89212fae0dfadf
3,3.5937,space,1.8082,0,186,186,11,1,,,616cbfb55486b52d735885fa,61b9125b41cbf5b6a46f80b3,2021-12-14_21h54.03.330,PRaM,2021.2.3,Win32,60.07449237,61b8f3437b89212fae0dfadf
2,1.1403,space,0.0335,0,187,187,15,1,,,616cbfb55486b52d735885fa,61b9125b41cbf5b6a46f80b3,2021-12-14_21h54.03.330,PRaM,2021.2.3,Win32,60.07449237,61b8f3437b89212fae0dfadf
8,1.9757,space,0.3254,0,188,188,105,1,,,616cbfb55486b52d735885fa,61b9125b41cbf5b6a46f80b3,2021-12-14_21h54.03.330,PRaM,2021.2.3,Win32,60.07449237,61b8f3437b89212fae0dfadf
8,1.9295,space,0.2872,0,189,189,228,1,,,616cbfb55486b52d735885fa,61b9125b41cbf5b6a46f80b3,2021-12-14_21h54.03.330,PRaM,2021.2.3,Win32,60.07449237,61b8f3437b89212fae0dfadf
9,1.9746,space,0.3488,0,190,190,159,1,,,616cbfb55486b52d735885fa,61b9125b41cbf5b6a46f80b3,2021-12-14_21h54.03.330,PRaM,2021.2.3,Win32,60.07449237,61b8f3437b89212fae0dfadf
2,2.6713,space,0.9937,0,191,191,128,1,,,616cbfb55486b52d735885fa,61b9125b41cbf5b6a46f80b3,2021-12-14_21h54.03.330,PRaM,2021.2.3,Win32,60.07449237,61b8f3437b89212fae0dfadf
3,2.0385,space,0.3621,0,192,192,198,1,,,616cbfb55486b52d735885fa,61b9125b41cbf5b6a46f80b3,2021-12-14_21h54.03.330,PRaM,2021.2.3,Win32,60.07449237,61b8f3437b89212fae0dfadf
3,2.3296,space,2.2421,0,193,193,282,1,,,616cbfb55486b52d735885fa,61b9125b41cbf5b6a46f80b3,2021-12-14_21h54.03.330,PRaM,2021.2.3,Win32,60.07449237,61b8f3437b89212fae0dfadf
8,1.7378,space,0.0965,0,194,194,19,1,,,616cbfb55486b52d735885fa,61b9125b41cbf5b6a46f80b3,2021-12-14_21h54.03.330,PRaM,2021.2.3,Win32,60.07449237,61b8f3437b89212fae0dfadf
4,4.4099,space,2.6926,0,195,195,96,1,,,616cbfb55486b52d735885fa,61b9125b41cbf5b6a46f80b3,2021-12-14_21h54.03.330,PRaM,2021.2.3,Win32,60.07449237,61b8f3437b89212fae0dfadf
3,1.5455,space,0.6075,0,196,196,375,1,,,616cbfb55486b52d735885fa,61b9125b41cbf5b6a46f80b3,2021-12-14_21h54.03.330,PRaM,2021.2.3,Win32,60.07449237,61b8f3437b89212fae0dfadf
3,7.8386,space,6.4022,0,197,197,90,1,,,616cbfb55486b52d735885fa,61b9125b41cbf5b6a46f80b3,2021-12-14_21h54.03.330,PRaM,2021.2.3,Win32,60.07449237,61b8f3437b89212fae0dfadf
2,1.82,space,0.1562,0,198,198,92,1,,,616cbfb55486b52d735885fa,61b9125b41cbf5b6a46f80b3,2021-12-14_21h54.03.330,PRaM,2021.2.3,Win32,60.07449237,61b8f3437b89212fae0dfadf
7,2.3293,space,0.6354,0,199,199,307,1,,,616cbfb55486b52d735885fa,61b9125b41cbf5b6a46f80b3,2021-12-14_21h54.03.330,PRaM,2021.2.3,Win32,60.07449237,61b8f3437b89212fae0dfadf
2,1.7766,space,0.0423,0,200,200,229,1,,,616cbfb55486b52d735885fa,61b9125b41cbf5b6a46f80b3,2021-12-14_21h54.03.330,PRaM,2021.2.3,Win32,60.07449237,61b8f3437b89212fae0dfadf
2,1.5434,space,0.4348,0,201,201,160,1,,,616cbfb55486b52d735885fa,61b9125b41cbf5b6a46f80b3,2021-12-14_21h54.03.330,PRaM,2021.2.3,Win32,60.07449237,61b8f3437b89212fae0dfadf
2,3.5435,space,1.9184,0,202,202,88,1,,,616cbfb55486b52d735885fa,61b9125b41cbf5b6a46f80b3,2021-12-14_21h54.03.330,PRaM,2021.2.3,Win32,60.07449237,61b8f3437b89212fae0dfadf
1,1.6769,space,0.037,0,203,203,2,1,,,616cbfb55486b52d735885fa,61b9125b41cbf5b6a46f80b3,2021-12-14_21h54.03.330,PRaM,2021.2.3,Win32,60.07449237,61b8f3437b89212fae0dfadf
8,2.2035,space,0.5867,0,204,204,186,1,,,616cbfb55486b52d735885fa,61b9125b41cbf5b6a46f80b3,2021-12-14_21h54.03.330,PRaM,2021.2.3,Win32,60.07449237,61b8f3437b89212fae0dfadf
2,1.5809,space,0.8897,0,205,205,338,1,,,616cbfb55486b52d735885fa,61b9125b41cbf5b6a46f80b3,2021-12-14_21h54.03.330,PRaM,2021.2.3,Win32,60.07449237,61b8f3437b89212fae0dfadf
2,3.7514,space,2.0865,0,206,206,260,1,,,616cbfb55486b52d735885fa,61b9125b41cbf5b6a46f80b3,2021-12-14_21h54.03.330,PRaM,2021.2.3,Win32,60.07449237,61b8f3437b89212fae0dfadf
2,1.3793,space,0.2252,0,207,207,220,1,,,616cbfb55486b52d735885fa,61b9125b41cbf5b6a46f80b3,2021-12-14_21h54.03.330,PRaM,2021.2.3,Win32,60.07449237,61b8f3437b89212fae0dfadf
8,1.8395,space,0.3453,0,208,208,334,1,,,616cbfb55486b52d735885fa,61b9125b41cbf5b6a46f80b3,2021-12-14_21h54.03.330,PRaM,2021.2.3,Win32,60.07449237,61b8f3437b89212fae0dfadf
2,3.1613,space,1.4948,0,209,209,87,1,,,616cbfb55486b52d735885fa,61b9125b41cbf5b6a46f80b3,2021-12-14_21h54.03.330,PRaM,2021.2.3,Win32,60.07449237,61b8f3437b89212fae0dfadf
8,1.8205,space,0.1877,0,210,210,280,1,,,616cbfb55486b52d735885fa,61b9125b41cbf5b6a46f80b3,2021-12-14_21h54.03.330,PRaM,2021.2.3,Win32,60.07449237,61b8f3437b89212fae0dfadf
7,2.397,space,0.7213,0,211,211,80,1,,,616cbfb55486b52d735885fa,61b9125b41cbf5b6a46f80b3,2021-12-14_21h54.03.330,PRaM,2021.2.3,Win32,60.07449237,61b8f3437b89212fae0dfadf
8,1.9528,space,0.3168,0,212,212,302,1,,,616cbfb55486b52d735885fa,61b9125b41cbf5b6a46f80b3,2021-12-14_21h54.03.330,PRaM,2021.2.3,Win32,60.07449237,61b8f3437b89212fae0dfadf
9,2.0307,space,0.493,0,213,213,320,1,,,616cbfb55486b52d735885fa,61b9125b41cbf5b6a46f80b3,2021-12-14_21h54.03.330,PRaM,2021.2.3,Win32,60.07449237,61b8f3437b89212fae0dfadf
2,2.454,space,0.8328,0,214,214,272,1,,,616cbfb55486b52d735885fa,61b9125b41cbf5b6a46f80b3,2021-12-14_21h54.03.330,PRaM,2021.2.3,Win32,60.07449237,61b8f3437b89212fae0dfadf
2,3.8372,space,2.488,0,215,215,275,1,,,616cbfb55486b52d735885fa,61b9125b41cbf5b6a46f80b3,2021-12-14_21h54.03.330,PRaM,2021.2.3,Win32,60.07449237,61b8f3437b89212fae0dfadf
9,1.9073,space,0.2503,0,216,216,102,1,,,616cbfb55486b52d735885fa,61b9125b41cbf5b6a46f80b3,2021-12-14_21h54.03.330,PRaM,2021.2.3,Win32,60.07449237,61b8f3437b89212fae0dfadf
1,2.2202,space,0.5422,0,217,217,189,1,,,616cbfb55486b52d735885fa,61b9125b41cbf5b6a46f80b3,2021-12-14_21h54.03.330,PRaM,2021.2.3,Win32,60.07449237,61b8f3437b89212fae0dfadf
6,1.737,space,0.0683,0,218,218,25,1,,,616cbfb55486b52d735885fa,61b9125b41cbf5b6a46f80b3,2021-12-14_21h54.03.330,PRaM,2021.2.3,Win32,60.07449237,61b8f3437b89212fae0dfadf
9,1.6055,space,0.4917,0,219,219,3,1,,,616cbfb55486b52d735885fa,61b9125b41cbf5b6a46f80b3,2021-12-14_21h54.03.330,PRaM,2021.2.3,Win32,60.07449237,61b8f3437b89212fae0dfadf
1,1.9808,space,0.3522,0,220,220,106,1,,,616cbfb55486b52d735885fa,61b9125b41cbf5b6a46f80b3,2021-12-14_21h54.03.330,PRaM,2021.2.3,Win32,60.07449237,61b8f3437b89212fae0dfadf
7,2.0573,space,0.3371,0,221,221,140,1,,,616cbfb55486b52d735885fa,61b9125b41cbf5b6a46f80b3,2021-12-14_21h54.03.330,PRaM,2021.2.3,Win32,60.07449237,61b8f3437b89212fae0dfadf
6,1.9903,space,0.4255,0,222,222,274,1,,,616cbfb55486b52d735885fa,61b9125b41cbf5b6a46f80b3,2021-12-14_21h54.03.330,PRaM,2021.2.3,Win32,60.07449237,61b8f3437b89212fae0dfadf
2,1.6234,space,0.5047,0,223,223,143,1,,,616cbfb55486b52d735885fa,61b9125b41cbf5b6a46f80b3,2021-12-14_21h54.03.330,PRaM,2021.2.3,Win32,60.07449237,61b8f3437b89212fae0dfadf
9,1.8822,space,0.2037,0,224,224,291,1,,,616cbfb55486b52d735885fa,61b9125b41cbf5b6a46f80b3,2021-12-14_21h54.03.330,PRaM,2021.2.3,Win32,60.07449237,61b8f3437b89212fae0dfadf
1,1.6038,space,0.0336,0,225,225,315,1,,,616cbfb55486b52d735885fa,61b9125b41cbf5b6a46f80b3,2021-12-14_21h54.03.330,PRaM,2021.2.3,Win32,60.07449237,61b8f3437b89212fae0dfadf
9,2.3103,space,0.6793,0,226,226,244,1,,,616cbfb55486b52d735885fa,61b9125b41cbf5b6a46f80b3,2021-12-14_21h54.03.330,PRaM,2021.2.3,Win32,60.07449237,61b8f3437b89212fae0dfadf
2,2.1754,space,0.5216,0,227,227,73,1,,,616cbfb55486b52d735885fa,61b9125b41cbf5b6a46f80b3,2021-12-14_21h54.03.330,PRaM,2021.2.3,Win32,60.07449237,61b8f3437b89212fae0dfadf
6,2.1452,space,0.4995,0,228,228,51,1,,,616cbfb55486b52d735885fa,61b9125b41cbf5b6a46f80b3,2021-12-14_21h54.03.330,PRaM,2021.2.3,Win32,60.07449237,61b8f3437b89212fae0dfadf
2,2.3004,space,0.5824,0,229,229,370,1,,,616cbfb55486b52d735885fa,61b9125b41cbf5b6a46f80b3,2021-12-14_21h54.03.330,PRaM,2021.2.3,Win32,60.07449237,61b8f3437b89212fae0dfadf
2,2.6035,space,0.8948,0,230,230,172,1,,,616cbfb55486b52d735885fa,61b9125b41cbf5b6a46f80b3,2021-12-14_21h54.03.330,PRaM,2021.2.3,Win32,60.07449237,61b8f3437b89212fae0dfadf
1,2.7978,space,1.0733,0,231,231,129,1,,,616cbfb55486b52d735885fa,61b9125b41cbf5b6a46f80b3,2021-12-14_21h54.03.330,PRaM,2021.2.3,Win32,60.07449237,61b8f3437b89212fae0dfadf
4,2.174,space,0.5276,0,232,232,238,1,,,616cbfb55486b52d735885fa,61b9125b41cbf5b6a46f80b3,2021-12-14_21h54.03.330,PRaM,2021.2.3,Win32,60.07449237,61b8f3437b89212fae0dfadf
3,2.2456,space,0.5184,0,233,233,103,1,,,616cbfb55486b52d735885fa,61b9125b41cbf5b6a46f80b3,2021-12-14_21h54.03.330,PRaM,2021.2.3,Win32,60.07449237,61b8f3437b89212fae0dfadf
9,2.1755,space,0.5433,0,234,234,137,1,,,616cbfb55486b52d735885fa,61b9125b41cbf5b6a46f80b3,2021-12-14_21h54.03.330,PRaM,2021.2.3,Win32,60.07449237,61b8f3437b89212fae0dfadf
8,3.271,space,1.6329,0,235,235,168,1,,,616cbfb55486b52d735885fa,61b9125b41cbf5b6a46f80b3,2021-12-14_21h54.03.330,PRaM,2021.2.3,Win32,60.07449237,61b8f3437b89212fae0dfadf
9,1.9201,space,0.2941,0,236,236,209,1,,,616cbfb55486b52d735885fa,61b9125b41cbf5b6a46f80b3,2021-12-14_21h54.03.330,PRaM,2021.2.3,Win32,60.07449237,61b8f3437b89212fae0dfadf
2,2.139,space,0.6336,0,237,237,163,1,,,616cbfb55486b52d735885fa,61b9125b41cbf5b6a46f80b3,2021-12-14_21h54.03.330,PRaM,2021.2.3,Win32,60.07449237,61b8f3437b89212fae0dfadf
6,1.9208,space,0.2961,0,238,238,347,1,,,616cbfb55486b52d735885fa,61b9125b41cbf5b6a46f80b3,2021-12-14_21h54.03.330,PRaM,2021.2.3,Win32,60.07449237,61b8f3437b89212fae0dfadf
3,2.174,space,0.5326,0,239,239,321,1,,,616cbfb55486b52d735885fa,61b9125b41cbf5b6a46f80b3,2021-12-14_21h54.03.330,PRaM,2021.2.3,Win32,60.07449237,61b8f3437b89212fae0dfadf
6,2.4268,space,0.7087,0,240,240,22,1,,,616cbfb55486b52d735885fa,61b9125b41cbf5b6a46f80b3,2021-12-14_21h54.03.330,PRaM,2021.2.3,Win32,60.07449237,61b8f3437b89212fae0dfadf
1,2.0532,space,0.4231,0,241,241,235,1,,,616cbfb55486b52d735885fa,61b9125b41cbf5b6a46f80b3,2021-12-14_21h54.03.330,PRaM,2021.2.3,Win32,60.07449237,61b8f3437b89212fae0dfadf
4,2.6214,space,0.9491,0,242,242,52,1,,,616cbfb55486b52d735885fa,61b9125b41cbf5b6a46f80b3,2021-12-14_21h54.03.330,PRaM,2021.2.3,Win32,60.07449237,61b8f3437b89212fae0dfadf
1,2.4323,space,0.6923,0,243,243,251,1,,,616cbfb55486b52d735885fa,61b9125b41cbf5b6a46f80b3,2021-12-14_21h54.03.330,PRaM,2021.2.3,Win32,60.07449237,61b8f3437b89212fae0dfadf
6,1.8411,space,0.1768,0,244,244,43,1,,,616cbfb55486b52d735885fa,61b9125b41cbf5b6a46f80b3,2021-12-14_21h54.03.330,PRaM,2021.2.3,Win32,60.07449237,61b8f3437b89212fae0dfadf
2,3.8991,space,2.217,0,245,245,253,1,,,616cbfb55486b52d735885fa,61b9125b41cbf5b6a46f80b3,2021-12-14_21h54.03.330,PRaM,2021.2.3,Win32,60.07449237,61b8f3437b89212fae0dfadf
1,1.5247,space,0.3837,0,246,246,247,1,,,616cbfb55486b52d735885fa,61b9125b41cbf5b6a46f80b3,2021-12-14_21h54.03.330,PRaM,2021.2.3,Win32,60.07449237,61b8f3437b89212fae0dfadf
2,1.8103,space,0.1739,0,247,247,234,1,,,616cbfb55486b52d735885fa,61b9125b41cbf5b6a46f80b3,2021-12-14_21h54.03.330,PRaM,2021.2.3,Win32,60.07449237,61b8f3437b89212fae0dfadf
7,1.5962,space,0.5399,0,248,248,239,1,,,616cbfb55486b52d735885fa,61b9125b41cbf5b6a46f80b3,2021-12-14_21h54.03.330,PRaM,2021.2.3,Win32,60.07449237,61b8f3437b89212fae0dfadf
7,1.8553,space,0.1589,0,249,249,46,1,,,616cbfb55486b52d735885fa,61b9125b41cbf5b6a46f80b3,2021-12-14_21h54.03.330,PRaM,2021.2.3,Win32,60.07449237,61b8f3437b89212fae0dfadf
2,2.8541,space,1.1108,0,250,250,23,1,,,616cbfb55486b52d735885fa,61b9125b41cbf5b6a46f80b3,2021-12-14_21h54.03.330,PRaM,2021.2.3,Win32,60.07449237,61b8f3437b89212fae0dfadf
5,3.8289,space,2.1868,0,251,251,313,1,,,616cbfb55486b52d735885fa,61b9125b41cbf5b6a46f80b3,2021-12-14_21h54.03.330,PRaM,2021.2.3,Win32,60.07449237,61b8f3437b89212fae0dfadf
2,1.8697,space,0.274,0,252,252,170,1,,,616cbfb55486b52d735885fa,61b9125b41cbf5b6a46f80b3,2021-12-14_21h54.03.330,PRaM,2021.2.3,Win32,60.07449237,61b8f3437b89212fae0dfadf
2,2.0667,space,0.4538,0,253,253,237,1,,,616cbfb55486b52d735885fa,61b9125b41cbf5b6a46f80b3,2021-12-14_21h54.03.330,PRaM,2021.2.3,Win32,60.07449237,61b8f3437b89212fae0dfadf
2,1.9561,space,0.4025,0,254,254,369,1,,,616cbfb55486b52d735885fa,61b9125b41cbf5b6a46f80b3,2021-12-14_21h54.03.330,PRaM,2021.2.3,Win32,60.07449237,61b8f3437b89212fae0dfadf
6,2.1702,space,0.6171,0,255,255,333,1,,,616cbfb55486b52d735885fa,61b9125b41cbf5b6a46f80b3,2021-12-14_21h54.03.330,PRaM,2021.2.3,Win32,60.07449237,61b8f3437b89212fae0dfadf
7,2.6098,space,0.9687,0,256,256,233,1,,,616cbfb55486b52d735885fa,61b9125b41cbf5b6a46f80b3,2021-12-14_21h54.03.330,PRaM,2021.2.3,Win32,60.07449237,61b8f3437b89212fae0dfadf
1,1.7387,space,0.1505,0,257,257,210,1,,,616cbfb55486b52d735885fa,61b9125b41cbf5b6a46f80b3,2021-12-14_21h54.03.330,PRaM,2021.2.3,Win32,60.07449237,61b8f3437b89212fae0dfadf
3,2.5257,space,0.8491,0,258,258,345,1,,,616cbfb55486b52d735885fa,61b9125b41cbf5b6a46f80b3,2021-12-14_21h54.03.330,PRaM,2021.2.3,Win32,60.07449237,61b8f3437b89212fae0dfadf
4,2.2157,space,0.5337,0,259,259,270,1,,,616cbfb55486b52d735885fa,61b9125b41cbf5b6a46f80b3,2021-12-14_21h54.03.330,PRaM,2021.2.3,Win32,60.07449237,61b8f3437b89212fae0dfadf
8,1.9574,space,0.3336,0,260,260,192,1,,,616cbfb55486b52d735885fa,61b9125b41cbf5b6a46f80b3,2021-12-14_21h54.03.330,PRaM,2021.2.3,Win32,60.07449237,61b8f3437b89212fae0dfadf
1,2.3744,space,0.6454,0,261,261,248,1,,,616cbfb55486b52d735885fa,61b9125b41cbf5b6a46f80b3,2021-12-14_21h54.03.330,PRaM,2021.2.3,Win32,60.07449237,61b8f3437b89212fae0dfadf
2,2.0735,space,2.0992,0,262,262,203,1,,,616cbfb55486b52d735885fa,61b9125b41cbf5b6a46f80b3,2021-12-14_21h54.03.330,PRaM,2021.2.3,Win32,60.07449237,61b8f3437b89212fae0dfadf
7,2.2737,space,0.5567,0,263,263,297,1,,,616cbfb55486b52d735885fa,61b9125b41cbf5b6a46f80b3,2021-12-14_21h54.03.330,PRaM,2021.2.3,Win32,60.07449237,61b8f3437b89212fae0dfadf
8,1.7606,space,0.4172,0,264,264,166,1,,,616cbfb55486b52d735885fa,61b9125b41cbf5b6a46f80b3,2021-12-14_21h54.03.330,PRaM,2021.2.3,Win32,60.07449237,61b8f3437b89212fae0dfadf
9,2.0489,space,0.5515,0,265,265,127,1,,,616cbfb55486b52d735885fa,61b9125b41cbf5b6a46f80b3,2021-12-14_21h54.03.330,PRaM,2021.2.3,Win32,60.07449237,61b8f3437b89212fae0dfadf
9,1.8339,space,0.173,0,266,266,53,1,,,616cbfb55486b52d735885fa,61b9125b41cbf5b6a46f80b3,2021-12-14_21h54.03.330,PRaM,2021.2.3,Win32,60.07449237,61b8f3437b89212fae0dfadf
8,1.7775,space,0.1006,0,267,267,110,1,,,616cbfb55486b52d735885fa,61b9125b41cbf5b6a46f80b3,2021-12-14_21h54.03.330,PRaM,2021.2.3,Win32,60.07449237,61b8f3437b89212fae0dfadf
1,1.8614,space,0.2936,0,268,268,218,1,,,616cbfb55486b52d735885fa,61b9125b41cbf5b6a46f80b3,2021-12-14_21h54.03.330,PRaM,2021.2.3,Win32,60.07449237,61b8f3437b89212fae0dfadf
2,1.8331,space,0.1531,0,269,269,262,1,,,616cbfb55486b52d735885fa,61b9125b41cbf5b6a46f80b3,2021-12-14_21h54.03.330,PRaM,2021.2.3,Win32,60.07449237,61b8f3437b89212fae0dfadf
4,3.2107,space,1.4431,0,270,270,6,1,,,616cbfb55486b52d735885fa,61b9125b41cbf5b6a46f80b3,2021-12-14_21h54.03.330,PRaM,2021.2.3,Win32,60.07449237,61b8f3437b89212fae0dfadf
7,1.8407,space,0.1922,0,271,271,75,1,,,616cbfb55486b52d735885fa,61b9125b41cbf5b6a46f80b3,2021-12-14_21h54.03.330,PRaM,2021.2.3,Win32,60.07449237,61b8f3437b89212fae0dfadf
2,3.7189,space,1.9991,0,272,272,57,1,,,616cbfb55486b52d735885fa,61b9125b41cbf5b6a46f80b3,2021-12-14_21h54.03.330,PRaM,2021.2.3,Win32,60.07449237,61b8f3437b89212fae0dfadf
8,1.8548,space,0.1901,0,273,273,114,1,,,616cbfb55486b52d735885fa,61b9125b41cbf5b6a46f80b3,2021-12-14_21h54.03.330,PRaM,2021.2.3,Win32,60.07449237,61b8f3437b89212fae0dfadf
8,2.2093,space,0.5911,0,274,274,60,1,,,616cbfb55486b52d735885fa,61b9125b41cbf5b6a46f80b3,2021-12-14_21h54.03.330,PRaM,2021.2.3,Win32,60.07449237,61b8f3437b89212fae0dfadf
1,1.8995,space,0.2431,0,275,275,330,1,,,616cbfb55486b52d735885fa,61b9125b41cbf5b6a46f80b3,2021-12-14_21h54.03.330,PRaM,2021.2.3,Win32,60.07449237,61b8f3437b89212fae0dfadf
6,1.9381,space,0.2837,0,276,276,259,1,,,616cbfb55486b52d735885fa,61b9125b41cbf5b6a46f80b3,2021-12-14_21h54.03.330,PRaM,2021.2.3,Win32,60.07449237,61b8f3437b89212fae0dfadf
2,1.8365,space,0.1733,0,277,277,309,1,,,616cbfb55486b52d735885fa,61b9125b41cbf5b6a46f80b3,2021-12-14_21h54.03.330,PRaM,2021.2.3,Win32,60.07449237,61b8f3437b89212fae0dfadf
1,1.7788,space,0.0929,0,278,278,161,1,,,616cbfb55486b52d735885fa,61b9125b41cbf5b6a46f80b3,2021-12-14_21h54.03.330,PRaM,2021.2.3,Win32,60.07449237,61b8f3437b89212fae0dfadf
3,3.0116,space,1.2397,0,279,279,183,1,,,616cbfb55486b52d735885fa,61b9125b41cbf5b6a46f80b3,2021-12-14_21h54.03.330,PRaM,2021.2.3,Win32,60.07449237,61b8f3437b89212fae0dfadf
7,1.8121,space,0.1734,0,280,280,328,1,,,616cbfb55486b52d735885fa,61b9125b41cbf5b6a46f80b3,2021-12-14_21h54.03.330,PRaM,2021.2.3,Win32,60.07449237,61b8f3437b89212fae0dfadf
1,1.4199,space,0.2453,0,281,281,312,1,,,616cbfb55486b52d735885fa,61b9125b41cbf5b6a46f80b3,2021-12-14_21h54.03.330,PRaM,2021.2.3,Win32,60.07449237,61b8f3437b89212fae0dfadf
6,2.0566,space,0.4339,0,282,282,216,1,,,616cbfb55486b52d735885fa,61b9125b41cbf5b6a46f80b3,2021-12-14_21h54.03.330,PRaM,2021.2.3,Win32,60.07449237,61b8f3437b89212fae0dfadf
1,1.8121,space,0.1121,0,283,283,212,1,,,616cbfb55486b52d735885fa,61b9125b41cbf5b6a46f80b3,2021-12-14_21h54.03.330,PRaM,2021.2.3,Win32,60.07449237,61b8f3437b89212fae0dfadf
9,2.039,space,0.3227,0,284,284,20,1,,,616cbfb55486b52d735885fa,61b9125b41cbf5b6a46f80b3,2021-12-14_21h54.03.330,PRaM,2021.2.3,Win32,60.07449237,61b8f3437b89212fae0dfadf
6,2.1759,space,0.5155,0,285,285,93,1,,,616cbfb55486b52d735885fa,61b9125b41cbf5b6a46f80b3,2021-12-14_21h54.03.330,PRaM,2021.2.3,Win32,60.07449237,61b8f3437b89212fae0dfadf
2,1.7043,space,0.0225,0,286,286,79,1,,,616cbfb55486b52d735885fa,61b9125b41cbf5b6a46f80b3,2021-12-14_21h54.03.330,PRaM,2021.2.3,Win32,60.07449237,61b8f3437b89212fae0dfadf
1,1.7944,space,0.1881,0,287,287,113,1,,,616cbfb55486b52d735885fa,61b9125b41cbf5b6a46f80b3,2021-12-14_21h54.03.330,PRaM,2021.2.3,Win32,60.07449237,61b8f3437b89212fae0dfadf
5,2.6565,space,0.8683,0,288,288,367,1,,,616cbfb55486b52d735885fa,61b9125b41cbf5b6a46f80b3,2021-12-14_21h54.03.330,PRaM,2021.2.3,Win32,60.07449237,61b8f3437b89212fae0dfadf
6,1.955,space,0.3356,0,289,289,149,1,,,616cbfb55486b52d735885fa,61b9125b41cbf5b6a46f80b3,2021-12-14_21h54.03.330,PRaM,2021.2.3,Win32,60.07449237,61b8f3437b89212fae0dfadf
4,2.2838,space,0.5674,0,290,290,240,1,,,616cbfb55486b52d735885fa,61b9125b41cbf5b6a46f80b3,2021-12-14_21h54.03.330,PRaM,2021.2.3,Win32,60.07449237,61b8f3437b89212fae0dfadf
3,1.888,space,0.2337,0,291,291,346,1,,,616cbfb55486b52d735885fa,61b9125b41cbf5b6a46f80b3,2021-12-14_21h54.03.330,PRaM,2021.2.3,Win32,60.07449237,61b8f3437b89212fae0dfadf
2,1.5899,space,0.4226,0,292,292,193,1,,,616cbfb55486b52d735885fa,61b9125b41cbf5b6a46f80b3,2021-12-14_21h54.03.330,PRaM,2021.2.3,Win32,60.07449237,61b8f3437b89212fae0dfadf
1,2.1057,space,0.467,0,293,293,91,1,,,616cbfb55486b52d735885fa,61b9125b41cbf5b6a46f80b3,2021-12-14_21h54.03.330,PRaM,2021.2.3,Win32,60.07449237,61b8f3437b89212fae0dfadf
4,2.3942,space,0.6864,0,294,294,258,1,,,616cbfb55486b52d735885fa,61b9125b41cbf5b6a46f80b3,2021-12-14_21h54.03.330,PRaM,2021.2.3,Win32,60.07449237,61b8f3437b89212fae0dfadf
7,1.8038,space,0.5055,0,295,295,331,1,,,616cbfb55486b52d735885fa,61b9125b41cbf5b6a46f80b3,2021-12-14_21h54.03.330,PRaM,2021.2.3,Win32,60.07449237,61b8f3437b89212fae0dfadf
2,1.8209,space,0.1159,0,296,296,227,1,,,616cbfb55486b52d735885fa,61b9125b41cbf5b6a46f80b3,2021-12-14_21h54.03.330,PRaM,2021.2.3,Win32,60.07449237,61b8f3437b89212fae0dfadf
2,1.7694,space,0.1434,0,297,297,1,1,,,616cbfb55486b52d735885fa,61b9125b41cbf5b6a46f80b3,2021-12-14_21h54.03.330,PRaM,2021.2.3,Win32,60.07449237,61b8f3437b89212fae0dfadf
4,3.623,space,1.9285,0,298,298,33,1,,,616cbfb55486b52d735885fa,61b9125b41cbf5b6a46f80b3,2021-12-14_21h54.03.330,PRaM,2021.2.3,Win32,60.07449237,61b8f3437b89212fae0dfadf
7,2.087,space,0.4425,0,299,299,351,1,,,616cbfb55486b52d735885fa,61b9125b41cbf5b6a46f80b3,2021-12-14_21h54.03.330,PRaM,2021.2.3,Win32,60.07449237,61b8f3437b89212fae0dfadf
1,1.5777,space,0.6079,0,300,300,289,1,,,616cbfb55486b52d735885fa,61b9125b41cbf5b6a46f80b3,2021-12-14_21h54.03.330,PRaM,2021.2.3,Win32,60.07449237,61b8f3437b89212fae0dfadf
3,2.3534,space,2.6696,0,301,301,132,1,,,616cbfb55486b52d735885fa,61b9125b41cbf5b6a46f80b3,2021-12-14_21h54.03.330,PRaM,2021.2.3,Win32,60.07449237,61b8f3437b89212fae0dfadf
6,3.3562,space,1.6517,0,302,302,254,1,,,616cbfb55486b52d735885fa,61b9125b41cbf5b6a46f80b3,2021-12-14_21h54.03.330,PRaM,2021.2.3,Win32,60.07449237,61b8f3437b89212fae0dfadf
3,2.6772,space,2.9497,0,303,303,31,1,,,616cbfb55486b52d735885fa,61b9125b41cbf5b6a46f80b3,2021-12-14_21h54.03.330,PRaM,2021.2.3,Win32,60.07449237,61b8f3437b89212fae0dfadf
9,1.9239,space,0.303,0,304,304,208,1,,,616cbfb55486b52d735885fa,61b9125b41cbf5b6a46f80b3,2021-12-14_21h54.03.330,PRaM,2021.2.3,Win32,60.07449237,61b8f3437b89212fae0dfadf
2,3.2907,space,1.5864,0,305,305,49,1,,,616cbfb55486b52d735885fa,61b9125b41cbf5b6a46f80b3,2021-12-14_21h54.03.330,PRaM,2021.2.3,Win32,60.07449237,61b8f3437b89212fae0dfadf
7,1.9555,space,0.3534,0,306,306,348,1,,,616cbfb55486b52d735885fa,61b9125b41cbf5b6a46f80b3,2021-12-14_21h54.03.330,PRaM,2021.2.3,Win32,60.07449237,61b8f3437b89212fae0dfadf
1,2.0962,space,0.3845,0,307,307,28,1,,,616cbfb55486b52d735885fa,61b9125b41cbf5b6a46f80b3,2021-12-14_21h54.03.330,PRaM,2021.2.3,Win32,60.07449237,61b8f3437b89212fae0dfadf
1,1.8209,space,0.1526,0,308,308,329,1,,,616cbfb55486b52d735885fa,61b9125b41cbf5b6a46f80b3,2021-12-14_21h54.03.330,PRaM,2021.2.3,Win32,60.07449237,61b8f3437b89212fae0dfadf
3,3.0705,space,1.3006,0,309,309,119,1,,,616cbfb55486b52d735885fa,61b9125b41cbf5b6a46f80b3,2021-12-14_21h54.03.330,PRaM,2021.2.3,Win32,60.07449237,61b8f3437b89212fae0dfadf
4,2.2518,space,0.6126,0,310,310,135,1,,,616cbfb55486b52d735885fa,61b9125b41cbf5b6a46f80b3,2021-12-14_21h54.03.330,PRaM,2021.2.3,Win32,60.07449237,61b8f3437b89212fae0dfadf
4,2.611,space,4.3787,0,311,311,364,1,,,616cbfb55486b52d735885fa,61b9125b41cbf5b6a46f80b3,2021-12-14_21h54.03.330,PRaM,2021.2.3,Win32,60.07449237,61b8f3437b89212fae0dfadf
6,2.0524,space,0.3785,0,312,312,337,1,,,616cbfb55486b52d735885fa,61b9125b41cbf5b6a46f80b3,2021-12-14_21h54.03.330,PRaM,2021.2.3,Win32,60.07449237,61b8f3437b89212fae0dfadf
7,1.7385,space,0.1157,0,313,313,199,1,,,616cbfb55486b52d735885fa,61b9125b41cbf5b6a46f80b3,2021-12-14_21h54.03.330,PRaM,2021.2.3,Win32,60.07449237,61b8f3437b89212fae0dfadf
8,1.8105,space,0.1882,0,314,314,255,1,,,616cbfb55486b52d735885fa,61b9125b41cbf5b6a46f80b3,2021-12-14_21h54.03.330,PRaM,2021.2.3,Win32,60.07449237,61b8f3437b89212fae0dfadf
1,2.0199,space,0.3872,0,315,315,286,1,,,616cbfb55486b52d735885fa,61b9125b41cbf5b6a46f80b3,2021-12-14_21h54.03.330,PRaM,2021.2.3,Win32,60.07449237,61b8f3437b89212fae0dfadf
2,2.1869,space,0.5454,0,316,316,250,1,,,616cbfb55486b52d735885fa,61b9125b41cbf5b6a46f80b3,2021-12-14_21h54.03.330,PRaM,2021.2.3,Win32,60.07449237,61b8f3437b89212fae0dfadf
8,2.0637,space,0.3721,0,317,317,117,1,,,616cbfb55486b52d735885fa,61b9125b41cbf5b6a46f80b3,2021-12-14_21h54.03.330,PRaM,2021.2.3,Win32,60.07449237,61b8f3437b89212fae0dfadf
7,1.5727,space,0.0116,0,318,318,104,1,,,616cbfb55486b52d735885fa,61b9125b41cbf5b6a46f80b3,2021-12-14_21h54.03.330,PRaM,2021.2.3,Win32,60.07449237,61b8f3437b89212fae0dfadf
8,2.0625,space,0.3782,0,319,319,200,1,,,616cbfb55486b52d735885fa,61b9125b41cbf5b6a46f80b3,2021-12-14_21h54.03.330,PRaM,2021.2.3,Win32,60.07449237,61b8f3437b89212fae0dfadf
2,1.9942,space,0.3608,0,320,320,257,1,,,616cbfb55486b52d735885fa,61b9125b41cbf5b6a46f80b3,2021-12-14_21h54.03.330,PRaM,2021.2.3,Win32,60.07449237,61b8f3437b89212fae0dfadf
3,2.6882,space,0.9223,0,321,321,69,1,,,616cbfb55486b52d735885fa,61b9125b41cbf5b6a46f80b3,2021-12-14_21h54.03.330,PRaM,2021.2.3,Win32,60.07449237,61b8f3437b89212fae0dfadf
1,2.1905,space,0.5,0,322,322,78,1,,,616cbfb55486b52d735885fa,61b9125b41cbf5b6a46f80b3,2021-12-14_21h54.03.330,PRaM,2021.2.3,Win32,60.07449237,61b8f3437b89212fae0dfadf
3,1.898,space,0.1905,0,323,323,343,1,,,616cbfb55486b52d735885fa,61b9125b41cbf5b6a46f80b3,2021-12-14_21h54.03.330,PRaM,2021.2.3,Win32,60.07449237,61b8f3437b89212fae0dfadf
2,2.927,space,1.2233,0,324,324,354,1,,,616cbfb55486b52d735885fa,61b9125b41cbf5b6a46f80b3,2021-12-14_21h54.03.330,PRaM,2021.2.3,Win32,60.07449237,61b8f3437b89212fae0dfadf
2,1.9058,space,0.229,0,325,325,176,1,,,616cbfb55486b52d735885fa,61b9125b41cbf5b6a46f80b3,2021-12-14_21h54.03.330,PRaM,2021.2.3,Win32,60.07449237,61b8f3437b89212fae0dfadf
3,4.3119,space,2.8333,0,326,326,141,1,,,616cbfb55486b52d735885fa,61b9125b41cbf5b6a46f80b3,2021-12-14_21h54.03.330,PRaM,2021.2.3,Win32,60.07449237,61b8f3437b89212fae0dfadf
6,2.2243,space,0.5439,0,327,327,305,1,,,616cbfb55486b52d735885fa,61b9125b41cbf5b6a46f80b3,2021-12-14_21h54.03.330,PRaM,2021.2.3,Win32,60.07449237,61b8f3437b89212fae0dfadf
3,2.0581,space,0.4575,0,328,328,156,1,,,616cbfb55486b52d735885fa,61b9125b41cbf5b6a46f80b3,2021-12-14_21h54.03.330,PRaM,2021.2.3,Win32,60.07449237,61b8f3437b89212fae0dfadf
7,2.7983,space,1.1494,0,329,329,32,1,,,616cbfb55486b52d735885fa,61b9125b41cbf5b6a46f80b3,2021-12-14_21h54.03.330,PRaM,2021.2.3,Win32,60.07449237,61b8f3437b89212fae0dfadf
3,1.7278,space,0.0505,0,330,330,131,1,,,616cbfb55486b52d735885fa,61b9125b41cbf5b6a46f80b3,2021-12-14_21h54.03.330,PRaM,2021.2.3,Win32,60.07449237,61b8f3437b89212fae0dfadf
8,1.8256,space,0.1861,0,331,331,246,1,,,616cbfb55486b52d735885fa,61b9125b41cbf5b6a46f80b3,2021-12-14_21h54.03.330,PRaM,2021.2.3,Win32,60.07449237,61b8f3437b89212fae0dfadf
7,1.9039,space,0.3003,0,332,332,355,1,,,616cbfb55486b52d735885fa,61b9125b41cbf5b6a46f80b3,2021-12-14_21h54.03.330,PRaM,2021.2.3,Win32,60.07449237,61b8f3437b89212fae0dfadf
8,3.3298,space,1.9721,0,333,333,47,1,,,616cbfb55486b52d735885fa,61b9125b41cbf5b6a46f80b3,2021-12-14_21h54.03.330,PRaM,2021.2.3,Win32,60.07449237,61b8f3437b89212fae0dfadf
2,2.0271,space,0.3572,0,334,334,243,1,,,616cbfb55486b52d735885fa,61b9125b41cbf5b6a46f80b3,2021-12-14_21h54.03.330,PRaM,2021.2.3,Win32,60.07449237,61b8f3437b89212fae0dfadf
7,2.3061,space,0.5244,0,335,335,120,1,,,616cbfb55486b52d735885fa,61b9125b41cbf5b6a46f80b3,2021-12-14_21h54.03.330,PRaM,2021.2.3,Win32,60.07449237,61b8f3437b89212fae0dfadf
8,1.7379,space,0.1424,0,336,336,151,1,,,616cbfb55486b52d735885fa,61b9125b41cbf5b6a46f80b3,2021-12-14_21h54.03.330,PRaM,2021.2.3,Win32,60.07449237,61b8f3437b89212fae0dfadf
3,2.7811,space,1.0567,0,337,337,322,1,,,616cbfb55486b52d735885fa,61b9125b41cbf5b6a46f80b3,2021-12-14_21h54.03.330,PRaM,2021.2.3,Win32,60.07449237,61b8f3437b89212fae0dfadf
9,1.8033,space,0.3964,0,338,338,276,1,,,616cbfb55486b52d735885fa,61b9125b41cbf5b6a46f80b3,2021-12-14_21h54.03.330,PRaM,2021.2.3,Win32,60.07449237,61b8f3437b89212fae0dfadf
2,3.1644,space,1.5248,0,339,339,8,1,,,616cbfb55486b52d735885fa,61b9125b41cbf5b6a46f80b3,2021-12-14_21h54.03.330,PRaM,2021.2.3,Win32,60.07449237,61b8f3437b89212fae0dfadf
3,1.8039,space,0.1732,0,340,340,195,1,,,616cbfb55486b52d735885fa,61b9125b41cbf5b6a46f80b3,2021-12-14_21h54.03.330,PRaM,2021.2.3,Win32,60.07449237,61b8f3437b89212fae0dfadf
5,4.8089,space,3.0385,0,341,341,371,1,,,616cbfb55486b52d735885fa,61b9125b41cbf5b6a46f80b3,2021-12-14_21h54.03.330,PRaM,2021.2.3,Win32,60.07449237,61b8f3437b89212fae0dfadf
1,3.9934,space,2.3184,0,342,342,162,1,,,616cbfb55486b52d735885fa,61b9125b41cbf5b6a46f80b3,2021-12-14_21h54.03.330,PRaM,2021.2.3,Win32,60.07449237,61b8f3437b89212fae0dfadf
8,1.9599,space,0.3012,0,343,343,350,1,,,616cbfb55486b52d735885fa,61b9125b41cbf5b6a46f80b3,2021-12-14_21h54.03.330,PRaM,2021.2.3,Win32,60.07449237,61b8f3437b89212fae0dfadf
7,2.2872,space,0.6067,0,344,344,366,1,,,616cbfb55486b52d735885fa,61b9125b41cbf5b6a46f80b3,2021-12-14_21h54.03.330,PRaM,2021.2.3,Win32,60.07449237,61b8f3437b89212fae0dfadf
6,2.2261,space,0.5658,0,345,345,261,1,,,616cbfb55486b52d735885fa,61b9125b41cbf5b6a46f80b3,2021-12-14_21h54.03.330,PRaM,2021.2.3,Win32,60.07449237,61b8f3437b89212fae0dfadf
2,1.603,space,0.6623,0,346,346,157,1,,,616cbfb55486b52d735885fa,61b9125b41cbf5b6a46f80b3,2021-12-14_21h54.03.330,PRaM,2021.2.3,Win32,60.07449237,61b8f3437b89212fae0dfadf
3,2.0313,space,0.4029,0,347,347,223,1,,,616cbfb55486b52d735885fa,61b9125b41cbf5b6a46f80b3,2021-12-14_21h54.03.330,PRaM,2021.2.3,Win32,60.07449237,61b8f3437b89212fae0dfadf
9,2.1139,space,0.4414,0,348,348,298,1,,,616cbfb55486b52d735885fa,61b9125b41cbf5b6a46f80b3,2021-12-14_21h54.03.330,PRaM,2021.2.3,Win32,60.07449237,61b8f3437b89212fae0dfadf
5,2.0748,space,0.4049,0,349,349,340,1,,,616cbfb55486b52d735885fa,61b9125b41cbf5b6a46f80b3,2021-12-14_21h54.03.330,PRaM,2021.2.3,Win32,60.07449237,61b8f3437b89212fae0dfadf
,,space,0.8158,0,350,350,295,1,,,616cbfb55486b52d735885fa,61b9125b41cbf5b6a46f80b3,2021-12-14_21h54.03.330,PRaM,2021.2.3,Win32,60.07449237,61b8f3437b89212fae0dfadf
8,4.0773,space,2.4893,0,351,351,352,1,,,616cbfb55486b52d735885fa,61b9125b41cbf5b6a46f80b3,2021-12-14_21h54.03.330,PRaM,2021.2.3,Win32,60.07449237,61b8f3437b89212fae0dfadf
3,4.0624,space,2.7582,0,352,352,205,1,,,616cbfb55486b52d735885fa,61b9125b41cbf5b6a46f80b3,2021-12-14_21h54.03.330,PRaM,2021.2.3,Win32,60.07449237,61b8f3437b89212fae0dfadf
2,1.7988,space,0.1892,0,353,353,50,1,,,616cbfb55486b52d735885fa,61b9125b41cbf5b6a46f80b3,2021-12-14_21h54.03.330,PRaM,2021.2.3,Win32,60.07449237,61b8f3437b89212fae0dfadf
1,2.0213,space,0.3502,0,354,354,245,1,,,616cbfb55486b52d735885fa,61b9125b41cbf5b6a46f80b3,2021-12-14_21h54.03.330,PRaM,2021.2.3,Win32,60.07449237,61b8f3437b89212fae0dfadf
6,1.7284,space,0.1425,0,355,355,213,1,,,616cbfb55486b52d735885fa,61b9125b41cbf5b6a46f80b3,2021-12-14_21h54.03.330,PRaM,2021.2.3,Win32,60.07449237,61b8f3437b89212fae0dfadf
9,3.3138,space,1.8221,0,356,356,221,1,,,616cbfb55486b52d735885fa,61b9125b41cbf5b6a46f80b3,2021-12-14_21h54.03.330,PRaM,2021.2.3,Win32,60.07449237,61b8f3437b89212fae0dfadf
3,2.2416,space,0.6203,0,357,357,26,1,,,616cbfb55486b52d735885fa,61b9125b41cbf5b6a46f80b3,2021-12-14_21h54.03.330,PRaM,2021.2.3,Win32,60.07449237,61b8f3437b89212fae0dfadf
4,1.7781,space,0.3684,0,358,358,36,1,,,616cbfb55486b52d735885fa,61b9125b41cbf5b6a46f80b3,2021-12-14_21h54.03.330,PRaM,2021.2.3,Win32,60.07449237,61b8f3437b89212fae0dfadf
3,3.464,space,1.719,0,359,359,98,1,,,616cbfb55486b52d735885fa,61b9125b41cbf5b6a46f80b3,2021-12-14_21h54.03.330,PRaM,2021.2.3,Win32,60.07449237,61b8f3437b89212fae0dfadf
1,2.5843,space,0.8765,0,360,360,190,1,,,616cbfb55486b52d735885fa,61b9125b41cbf5b6a46f80b3,2021-12-14_21h54.03.330,PRaM,2021.2.3,Win32,60.07449237,61b8f3437b89212fae0dfadf
8,1.872,space,0.2408,0,361,361,301,1,,,616cbfb55486b52d735885fa,61b9125b41cbf5b6a46f80b3,2021-12-14_21h54.03.330,PRaM,2021.2.3,Win32,60.07449237,61b8f3437b89212fae0dfadf
4,2.5375,space,0.8549,0,362,362,174,1,,,616cbfb55486b52d735885fa,61b9125b41cbf5b6a46f80b3,2021-12-14_21h54.03.330,PRaM,2021.2.3,Win32,60.07449237,61b8f3437b89212fae0dfadf
2,1.704,space,0.0292,0,363,363,359,1,,,616cbfb55486b52d735885fa,61b9125b41cbf5b6a46f80b3,2021-12-14_21h54.03.330,PRaM,2021.2.3,Win32,60.07449237,61b8f3437b89212fae0dfadf
3,1.9371,space,0.3338,0,364,364,164,1,,,616cbfb55486b52d735885fa,61b9125b41cbf5b6a46f80b3,2021-12-14_21h54.03.330,PRaM,2021.2.3,Win32,60.07449237,61b8f3437b89212fae0dfadf
3,2.6999,space,0.9867,0,365,365,361,1,,,616cbfb55486b52d735885fa,61b9125b41cbf5b6a46f80b3,2021-12-14_21h54.03.330,PRaM,2021.2.3,Win32,60.07449237,61b8f3437b89212fae0dfadf
2,1.8531,space,0.203,0,366,366,339,1,,,616cbfb55486b52d735885fa,61b9125b41cbf5b6a46f80b3,2021-12-14_21h54.03.330,PRaM,2021.2.3,Win32,60.07449237,61b8f3437b89212fae0dfadf
1,2.1138,space,0.4724,0,367,367,109,1,,,616cbfb55486b52d735885fa,61b9125b41cbf5b6a46f80b3,2021-12-14_21h54.03.330,PRaM,2021.2.3,Win32,60.07449237,61b8f3437b89212fae0dfadf
2,1.9578,space,0.3415,0,368,368,29,1,,,616cbfb55486b52d735885fa,61b9125b41cbf5b6a46f80b3,2021-12-14_21h54.03.330,PRaM,2021.2.3,Win32,60.07449237,61b8f3437b89212fae0dfadf
2,1.6207,space,0.7185,0,369,369,41,1,,,616cbfb55486b52d735885fa,61b9125b41cbf5b6a46f80b3,2021-12-14_21h54.03.330,PRaM,2021.2.3,Win32,60.07449237,61b8f3437b89212fae0dfadf
6,2.1875,space,0.5526,0,370,370,139,1,,,616cbfb55486b52d735885fa,61b9125b41cbf5b6a46f80b3,2021-12-14_21h54.03.330,PRaM,2021.2.3,Win32,60.07449237,61b8f3437b89212fae0dfadf
7,2.137,space,0.517,0,371,371,134,1,,,616cbfb55486b52d735885fa,61b9125b41cbf5b6a46f80b3,2021-12-14_21h54.03.330,PRaM,2021.2.3,Win32,60.07449237,61b8f3437b89212fae0dfadf
2,2.7111,space,0.9937,0,372,372,89,1,,,616cbfb55486b52d735885fa,61b9125b41cbf5b6a46f80b3,2021-12-14_21h54.03.330,PRaM,2021.2.3,Win32,60.07449237,61b8f3437b89212fae0dfadf
1,1.593,space,0.0171,0,373,373,13,1,,,616cbfb55486b52d735885fa,61b9125b41cbf5b6a46f80b3,2021-12-14_21h54.03.330,PRaM,2021.2.3,Win32,60.07449237,61b8f3437b89212fae0dfadf
6,3.2606,space,1.68,0,374,374,142,1,,,616cbfb55486b52d735885fa,61b9125b41cbf5b6a46f80b3,2021-12-14_21h54.03.330,PRaM,2021.2.3,Win32,60.07449237,61b8f3437b89212fae0dfadf
6,1.8205,space,0.185,0,375,375,194,1,,,616cbfb55486b52d735885fa,61b9125b41cbf5b6a46f80b3,2021-12-14_21h54.03.330,PRaM,2021.2.3,Win32,60.07449237,61b8f3437b89212fae0dfadf
3,1.9233,space,0.2683,0,376,376,138,1,,,616cbfb55486b52d735885fa,61b9125b41cbf5b6a46f80b3,2021-12-14_21h54.03.330,PRaM,2021.2.3,Win32,60.07449237,61b8f3437b89212fae0dfadf
2,2.646,space,0.9271,0,377,377,303,1,,,616cbfb55486b52d735885fa,61b9125b41cbf5b6a46f80b3,2021-12-14_21h54.03.330,PRaM,2021.2.3,Win32,60.07449237,61b8f3437b89212fae0dfadf
