Rating.response,Rating.rt,EndTrial.keys,EndTrial.rt,trials.thisRepN,trials.thisTrialN,trials.thisN,trials.thisIndex,trials.ran,Pos1,Pos2,participant,session,date,expName,psychopyVersion,OS,frameRate,study_id
2,11.7561,space,12.4823,0,0,0,94,1,,,62349099af33a7e0ca9357f5,6437832ad581372e37b283e2,2023-04-13_05h21.24.660,PRaM,2021.2.3,Win32,60.04563468,61b8f3437b89212fae0dfade
4,65.2489,space,66.0515,0,1,1,98,1,,,62349099af33a7e0ca9357f5,6437832ad581372e37b283e2,2023-04-13_05h21.24.660,PRaM,2021.2.3,Win32,60.04563468,61b8f3437b89212fae0dfade
1,3.285,space,3.2648,0,2,2,77,1,,,62349099af33a7e0ca9357f5,6437832ad581372e37b283e2,2023-04-13_05h21.24.660,PRaM,2021.2.3,Win32,60.04563468,61b8f3437b89212fae0dfade
2,9.2896,space,7.6953,0,3,3,181,1,,,62349099af33a7e0ca9357f5,6437832ad581372e37b283e2,2023-04-13_05h21.24.660,PRaM,2021.2.3,Win32,60.04563468,61b8f3437b89212fae0dfade
1,2.0658,space,3.5148,0,4,4,217,1,,,62349099af33a7e0ca9357f5,6437832ad581372e37b283e2,2023-04-13_05h21.24.660,PRaM,2021.2.3,Win32,60.04563468,61b8f3437b89212fae0dfade
7,3.6195,space,3.4115,0,5,5,139,1,,,62349099af33a7e0ca9357f5,6437832ad581372e37b283e2,2023-04-13_05h21.24.660,PRaM,2021.2.3,Win32,60.04563468,61b8f3437b89212fae0dfade
8,4.0328,space,4.9557,0,6,6,178,1,,,62349099af33a7e0ca9357f5,6437832ad581372e37b283e2,2023-04-13_05h21.24.660,PRaM,2021.2.3,Win32,60.04563468,61b8f3437b89212fae0dfade
2,8.5357,space,7.4218,0,7,7,362,1,,,62349099af33a7e0ca9357f5,6437832ad581372e37b283e2,2023-04-13_05h21.24.660,PRaM,2021.2.3,Win32,60.04563468,61b8f3437b89212fae0dfade
4,7.2544,space,8.9432,0,8,8,18,1,,,62349099af33a7e0ca9357f5,6437832ad581372e37b283e2,2023-04-13_05h21.24.660,PRaM,2021.2.3,Win32,60.04563468,61b8f3437b89212fae0dfade
6,17.2343,space,15.8264,0,9,9,172,1,,,62349099af33a7e0ca9357f5,6437832ad581372e37b283e2,2023-04-13_05h21.24.660,PRaM,2021.2.3,Win32,60.04563468,61b8f3437b89212fae0dfade
3,7.3028,space,5.6561,0,10,10,167,1,,,62349099af33a7e0ca9357f5,6437832ad581372e37b283e2,2023-04-13_05h21.24.660,PRaM,2021.2.3,Win32,60.04563468,61b8f3437b89212fae0dfade
1,3.1602,space,1.6524,0,11,11,253,1,,,62349099af33a7e0ca9357f5,6437832ad581372e37b283e2,2023-04-13_05h21.24.660,PRaM,2021.2.3,Win32,60.04563468,61b8f3437b89212fae0dfade
4,16.2042,space,16.2088,0,12,12,101,1,,,62349099af33a7e0ca9357f5,6437832ad581372e37b283e2,2023-04-13_05h21.24.660,PRaM,2021.2.3,Win32,60.04563468,61b8f3437b89212fae0dfade
2,8.3392,space,6.845,0,13,13,124,1,,,62349099af33a7e0ca9357f5,6437832ad581372e37b283e2,2023-04-13_05h21.24.660,PRaM,2021.2.3,Win32,60.04563468,61b8f3437b89212fae0dfade
1,3.0074,space,1.3606,0,14,14,295,1,,,62349099af33a7e0ca9357f5,6437832ad581372e37b283e2,2023-04-13_05h21.24.660,PRaM,2021.2.3,Win32,60.04563468,61b8f3437b89212fae0dfade
3,5.1824,space,4.6042,0,15,15,329,1,,,62349099af33a7e0ca9357f5,6437832ad581372e37b283e2,2023-04-13_05h21.24.660,PRaM,2021.2.3,Win32,60.04563468,61b8f3437b89212fae0dfade
5,7.9052,space,6.2668,0,16,16,361,1,,,62349099af33a7e0ca9357f5,6437832ad581372e37b283e2,2023-04-13_05h21.24.660,PRaM,2021.2.3,Win32,60.04563468,61b8f3437b89212fae0dfade
9,3.1831,space,4.0577,0,17,17,304,1,,,62349099af33a7e0ca9357f5,6437832ad581372e37b283e2,2023-04-13_05h21.24.660,PRaM,2021.2.3,Win32,60.04563468,61b8f3437b89212fae0dfade
3,11.3503,space,9.7943,0,18,18,61,1,,,62349099af33a7e0ca9357f5,6437832ad581372e37b283e2,2023-04-13_05h21.24.660,PRaM,2021.2.3,Win32,60.04563468,61b8f3437b89212fae0dfade
1,2.0076,space,1.0272,0,19,19,215,1,,,62349099af33a7e0ca9357f5,6437832ad581372e37b283e2,2023-04-13_05h21.24.660,PRaM,2021.2.3,Win32,60.04563468,61b8f3437b89212fae0dfade
8,4.3351,space,2.6897,0,20,20,38,1,,,62349099af33a7e0ca9357f5,6437832ad581372e37b283e2,2023-04-13_05h21.24.660,PRaM,2021.2.3,Win32,60.04563468,61b8f3437b89212fae0dfade
4,3.1418,space,5.4568,0,21,21,28,1,,,62349099af33a7e0ca9357f5,6437832ad581372e37b283e2,2023-04-13_05h21.24.660,PRaM,2021.2.3,Win32,60.04563468,61b8f3437b89212fae0dfade
4,6.2604,space,4.775,0,22,22,64,1,,,62349099af33a7e0ca9357f5,6437832ad581372e37b283e2,2023-04-13_05h21.24.660,PRaM,2021.2.3,Win32,60.04563468,61b8f3437b89212fae0dfade
1,2.8456,space,1.2213,0,23,23,67,1,,,62349099af33a7e0ca9357f5,6437832ad581372e37b283e2,2023-04-13_05h21.24.660,PRaM,2021.2.3,Win32,60.04563468,61b8f3437b89212fae0dfade
5,11.8572,space,10.2348,0,24,24,105,1,,,62349099af33a7e0ca9357f5,6437832ad581372e37b283e2,2023-04-13_05h21.24.660,PRaM,2021.2.3,Win32,60.04563468,61b8f3437b89212fae0dfade
2,5.8547,space,4.2049,0,25,25,377,1,,,62349099af33a7e0ca9357f5,6437832ad581372e37b283e2,2023-04-13_05h21.24.660,PRaM,2021.2.3,Win32,60.04563468,61b8f3437b89212fae0dfade
6,5.9544,space,4.3037,0,26,26,351,1,,,62349099af33a7e0ca9357f5,6437832ad581372e37b283e2,2023-04-13_05h21.24.660,PRaM,2021.2.3,Win32,60.04563468,61b8f3437b89212fae0dfade
5,3.5411,space,5.4964,0,27,27,305,1,,,62349099af33a7e0ca9357f5,6437832ad581372e37b283e2,2023-04-13_05h21.24.660,PRaM,2021.2.3,Win32,60.04563468,61b8f3437b89212fae0dfade
3,3.5227,space,3.5593,0,28,28,190,1,,,62349099af33a7e0ca9357f5,6437832ad581372e37b283e2,2023-04-13_05h21.24.660,PRaM,2021.2.3,Win32,60.04563468,61b8f3437b89212fae0dfade
1,3.066,space,1.8862,0,29,29,354,1,,,62349099af33a7e0ca9357f5,6437832ad581372e37b283e2,2023-04-13_05h21.24.660,PRaM,2021.2.3,Win32,60.04563468,61b8f3437b89212fae0dfade
4,8.781,space,7.0492,0,30,30,316,1,,,62349099af33a7e0ca9357f5,6437832ad581372e37b283e2,2023-04-13_05h21.24.660,PRaM,2021.2.3,Win32,60.04563468,61b8f3437b89212fae0dfade
2,4.384,space,2.5954,0,31,31,11,1,,,62349099af33a7e0ca9357f5,6437832ad581372e37b283e2,2023-04-13_05h21.24.660,PRaM,2021.2.3,Win32,60.04563468,61b8f3437b89212fae0dfade
3,10.21,space,8.5432,0,32,32,175,1,,,62349099af33a7e0ca9357f5,6437832ad581372e37b283e2,2023-04-13_05h21.24.660,PRaM,2021.2.3,Win32,60.04563468,61b8f3437b89212fae0dfade
6,11.1769,space,9.5448,0,33,33,48,1,,,62349099af33a7e0ca9357f5,6437832ad581372e37b283e2,2023-04-13_05h21.24.660,PRaM,2021.2.3,Win32,60.04563468,61b8f3437b89212fae0dfade
4,20.1139,space,18.4731,0,34,34,317,1,,,62349099af33a7e0ca9357f5,6437832ad581372e37b283e2,2023-04-13_05h21.24.660,PRaM,2021.2.3,Win32,60.04563468,61b8f3437b89212fae0dfade
1,3.8163,space,2.1866,0,35,35,87,1,,,62349099af33a7e0ca9357f5,6437832ad581372e37b283e2,2023-04-13_05h21.24.660,PRaM,2021.2.3,Win32,60.04563468,61b8f3437b89212fae0dfade
4,4.4598,space,2.7938,0,36,36,321,1,,,62349099af33a7e0ca9357f5,6437832ad581372e37b283e2,2023-04-13_05h21.24.660,PRaM,2021.2.3,Win32,60.04563468,61b8f3437b89212fae0dfade
4,3.1645,space,2.4534,0,37,37,224,1,,,62349099af33a7e0ca9357f5,6437832ad581372e37b283e2,2023-04-13_05h21.24.660,PRaM,2021.2.3,Win32,60.04563468,61b8f3437b89212fae0dfade
1,3.5424,space,1.8948,0,38,38,91,1,,,62349099af33a7e0ca9357f5,6437832ad581372e37b283e2,2023-04-13_05h21.24.660,PRaM,2021.2.3,Win32,60.04563468,61b8f3437b89212fae0dfade
1,2.6732,space,1.0186,0,39,39,73,1,,,62349099af33a7e0ca9357f5,6437832ad581372e37b283e2,2023-04-13_05h21.24.660,PRaM,2021.2.3,Win32,60.04563468,61b8f3437b89212fae0dfade
1,5.6723,space,4.2548,0,40,40,185,1,,,62349099af33a7e0ca9357f5,6437832ad581372e37b283e2,2023-04-13_05h21.24.660,PRaM,2021.2.3,Win32,60.04563468,61b8f3437b89212fae0dfade
2,4.8676,space,3.2541,0,41,41,49,1,,,62349099af33a7e0ca9357f5,6437832ad581372e37b283e2,2023-04-13_05h21.24.660,PRaM,2021.2.3,Win32,60.04563468,61b8f3437b89212fae0dfade
7,5.6777,space,7.2579,0,42,42,270,1,,,62349099af33a7e0ca9357f5,6437832ad581372e37b283e2,2023-04-13_05h21.24.660,PRaM,2021.2.3,Win32,60.04563468,61b8f3437b89212fae0dfade
5,5.9043,space,4.3518,0,43,43,241,1,,,62349099af33a7e0ca9357f5,6437832ad581372e37b283e2,2023-04-13_05h21.24.660,PRaM,2021.2.3,Win32,60.04563468,61b8f3437b89212fae0dfade
1,7.606,space,5.9818,0,44,44,22,1,,,62349099af33a7e0ca9357f5,6437832ad581372e37b283e2,2023-04-13_05h21.24.660,PRaM,2021.2.3,Win32,60.04563468,61b8f3437b89212fae0dfade
4,5.9023,space,4.2902,0,45,45,33,1,,,62349099af33a7e0ca9357f5,6437832ad581372e37b283e2,2023-04-13_05h21.24.660,PRaM,2021.2.3,Win32,60.04563468,61b8f3437b89212fae0dfade
5,10.7365,space,9.0341,0,46,46,12,1,,,62349099af33a7e0ca9357f5,6437832ad581372e37b283e2,2023-04-13_05h21.24.660,PRaM,2021.2.3,Win32,60.04563468,61b8f3437b89212fae0dfade
1,1.7772,space,0.1397,0,47,47,70,1,,,62349099af33a7e0ca9357f5,6437832ad581372e37b283e2,2023-04-13_05h21.24.660,PRaM,2021.2.3,Win32,60.04563468,61b8f3437b89212fae0dfade
3,5.6952,space,3.8732,0,48,48,119,1,,,62349099af33a7e0ca9357f5,6437832ad581372e37b283e2,2023-04-13_05h21.24.660,PRaM,2021.2.3,Win32,60.04563468,61b8f3437b89212fae0dfade
2,3.7181,space,2.0404,0,49,49,169,1,,,62349099af33a7e0ca9357f5,6437832ad581372e37b283e2,2023-04-13_05h21.24.660,PRaM,2021.2.3,Win32,60.04563468,61b8f3437b89212fae0dfade
5,9.9142,space,8.1757,0,50,50,298,1,,,62349099af33a7e0ca9357f5,6437832ad581372e37b283e2,2023-04-13_05h21.24.660,PRaM,2021.2.3,Win32,60.04563468,61b8f3437b89212fae0dfade
6,9.6047,space,7.9466,0,51,51,203,1,,,62349099af33a7e0ca9357f5,6437832ad581372e37b283e2,2023-04-13_05h21.24.660,PRaM,2021.2.3,Win32,60.04563468,61b8f3437b89212fae0dfade
4,8.9728,space,7.3139,0,52,52,127,1,,,62349099af33a7e0ca9357f5,6437832ad581372e37b283e2,2023-04-13_05h21.24.660,PRaM,2021.2.3,Win32,60.04563468,61b8f3437b89212fae0dfade
3,6.8995,space,5.4013,0,53,53,346,1,,,62349099af33a7e0ca9357f5,6437832ad581372e37b283e2,2023-04-13_05h21.24.660,PRaM,2021.2.3,Win32,60.04563468,61b8f3437b89212fae0dfade
2,3.1493,space,1.586,0,54,54,343,1,,,62349099af33a7e0ca9357f5,6437832ad581372e37b283e2,2023-04-13_05h21.24.660,PRaM,2021.2.3,Win32,60.04563468,61b8f3437b89212fae0dfade
1,2.9282,space,1.3524,0,55,55,57,1,,,62349099af33a7e0ca9357f5,6437832ad581372e37b283e2,2023-04-13_05h21.24.660,PRaM,2021.2.3,Win32,60.04563468,61b8f3437b89212fae0dfade
5,7.2157,space,8.5427,0,56,56,31,1,,,62349099af33a7e0ca9357f5,6437832ad581372e37b283e2,2023-04-13_05h21.24.660,PRaM,2021.2.3,Win32,60.04563468,61b8f3437b89212fae0dfade
3,3.451,space,1.6568,0,57,57,132,1,,,62349099af33a7e0ca9357f5,6437832ad581372e37b283e2,2023-04-13_05h21.24.660,PRaM,2021.2.3,Win32,60.04563468,61b8f3437b89212fae0dfade
1,4.8189,space,3.1809,0,58,58,103,1,,,62349099af33a7e0ca9357f5,6437832ad581372e37b283e2,2023-04-13_05h21.24.660,PRaM,2021.2.3,Win32,60.04563468,61b8f3437b89212fae0dfade
5,9.4012,space,11.2335,0,59,59,278,1,,,62349099af33a7e0ca9357f5,6437832ad581372e37b283e2,2023-04-13_05h21.24.660,PRaM,2021.2.3,Win32,60.04563468,61b8f3437b89212fae0dfade
1,2.9328,space,1.5319,0,60,60,322,1,,,62349099af33a7e0ca9357f5,6437832ad581372e37b283e2,2023-04-13_05h21.24.660,PRaM,2021.2.3,Win32,60.04563468,61b8f3437b89212fae0dfade
4,5.5216,space,4.0594,0,61,61,248,1,,,62349099af33a7e0ca9357f5,6437832ad581372e37b283e2,2023-04-13_05h21.24.660,PRaM,2021.2.3,Win32,60.04563468,61b8f3437b89212fae0dfade
4,10.028,space,8.3595,0,62,62,153,1,,,62349099af33a7e0ca9357f5,6437832ad581372e37b283e2,2023-04-13_05h21.24.660,PRaM,2021.2.3,Win32,60.04563468,61b8f3437b89212fae0dfade
3,2.7995,space,3.9557,0,63,63,82,1,,,62349099af33a7e0ca9357f5,6437832ad581372e37b283e2,2023-04-13_05h21.24.660,PRaM,2021.2.3,Win32,60.04563468,61b8f3437b89212fae0dfade
1,4.126,space,2.5033,0,64,64,284,1,,,62349099af33a7e0ca9357f5,6437832ad581372e37b283e2,2023-04-13_05h21.24.660,PRaM,2021.2.3,Win32,60.04563468,61b8f3437b89212fae0dfade
1,2.3907,space,1.6563,0,65,65,8,1,,,62349099af33a7e0ca9357f5,6437832ad581372e37b283e2,2023-04-13_05h21.24.660,PRaM,2021.2.3,Win32,60.04563468,61b8f3437b89212fae0dfade
1,2.6655,space,1.7659,0,66,66,107,1,,,62349099af33a7e0ca9357f5,6437832ad581372e37b283e2,2023-04-13_05h21.24.660,PRaM,2021.2.3,Win32,60.04563468,61b8f3437b89212fae0dfade
2,6.0031,space,4.255,0,67,67,141,1,,,62349099af33a7e0ca9357f5,6437832ad581372e37b283e2,2023-04-13_05h21.24.660,PRaM,2021.2.3,Win32,60.04563468,61b8f3437b89212fae0dfade
2,3.7828,space,1.9402,0,68,68,375,1,,,62349099af33a7e0ca9357f5,6437832ad581372e37b283e2,2023-04-13_05h21.24.660,PRaM,2021.2.3,Win32,60.04563468,61b8f3437b89212fae0dfade
1,1.8737,space,0.2224,0,69,69,289,1,,,62349099af33a7e0ca9357f5,6437832ad581372e37b283e2,2023-04-13_05h21.24.660,PRaM,2021.2.3,Win32,60.04563468,61b8f3437b89212fae0dfade
1,5.2033,space,3.4385,0,70,70,161,1,,,62349099af33a7e0ca9357f5,6437832ad581372e37b283e2,2023-04-13_05h21.24.660,PRaM,2021.2.3,Win32,60.04563468,61b8f3437b89212fae0dfade
5,6.0518,space,4.279,0,71,71,352,1,,,62349099af33a7e0ca9357f5,6437832ad581372e37b283e2,2023-04-13_05h21.24.660,PRaM,2021.2.3,Win32,60.04563468,61b8f3437b89212fae0dfade
3,3.7826,space,2.1199,0,72,72,308,1,,,62349099af33a7e0ca9357f5,6437832ad581372e37b283e2,2023-04-13_05h21.24.660,PRaM,2021.2.3,Win32,60.04563468,61b8f3437b89212fae0dfade
1,3.3851,space,2.7701,0,73,73,162,1,,,62349099af33a7e0ca9357f5,6437832ad581372e37b283e2,2023-04-13_05h21.24.660,PRaM,2021.2.3,Win32,60.04563468,61b8f3437b89212fae0dfade
6,7.2876,space,5.6277,0,74,74,187,1,,,62349099af33a7e0ca9357f5,6437832ad581372e37b283e2,2023-04-13_05h21.24.660,PRaM,2021.2.3,Win32,60.04563468,61b8f3437b89212fae0dfade
,,space,5.3767,0,75,75,131,1,,,62349099af33a7e0ca9357f5,6437832ad581372e37b283e2,2023-04-13_05h21.24.660,PRaM,2021.2.3,Win32,60.04563468,61b8f3437b89212fae0dfade
1,10.3178,space,10.1446,0,76,76,2,1,,,62349099af33a7e0ca9357f5,6437832ad581372e37b283e2,2023-04-13_05h21.24.660,PRaM,2021.2.3,Win32,60.04563468,61b8f3437b89212fae0dfade
5,11.7871,space,10.1605,0,77,77,307,1,,,62349099af33a7e0ca9357f5,6437832ad581372e37b283e2,2023-04-13_05h21.24.660,PRaM,2021.2.3,Win32,60.04563468,61b8f3437b89212fae0dfade
2,3.1814,space,1.6971,0,78,78,227,1,,,62349099af33a7e0ca9357f5,6437832ad581372e37b283e2,2023-04-13_05h21.24.660,PRaM,2021.2.3,Win32,60.04563468,61b8f3437b89212fae0dfade
4,6.2858,space,4.6385,0,79,79,202,1,,,62349099af33a7e0ca9357f5,6437832ad581372e37b283e2,2023-04-13_05h21.24.660,PRaM,2021.2.3,Win32,60.04563468,61b8f3437b89212fae0dfade
7,6.221,space,4.6885,0,80,80,159,1,,,62349099af33a7e0ca9357f5,6437832ad581372e37b283e2,2023-04-13_05h21.24.660,PRaM,2021.2.3,Win32,60.04563468,61b8f3437b89212fae0dfade
2,3.2245,space,1.5241,0,81,81,52,1,,,62349099af33a7e0ca9357f5,6437832ad581372e37b283e2,2023-04-13_05h21.24.660,PRaM,2021.2.3,Win32,60.04563468,61b8f3437b89212fae0dfade
5,5.7306,space,4.0952,0,82,82,269,1,,,62349099af33a7e0ca9357f5,6437832ad581372e37b283e2,2023-04-13_05h21.24.660,PRaM,2021.2.3,Win32,60.04563468,61b8f3437b89212fae0dfade
1,4.1423,space,2.6069,0,83,83,231,1,,,62349099af33a7e0ca9357f5,6437832ad581372e37b283e2,2023-04-13_05h21.24.660,PRaM,2021.2.3,Win32,60.04563468,61b8f3437b89212fae0dfade
2,11.9269,space,10.328,0,84,84,58,1,,,62349099af33a7e0ca9357f5,6437832ad581372e37b283e2,2023-04-13_05h21.24.660,PRaM,2021.2.3,Win32,60.04563468,61b8f3437b89212fae0dfade
2,5.1701,space,3.6043,0,85,85,36,1,,,62349099af33a7e0ca9357f5,6437832ad581372e37b283e2,2023-04-13_05h21.24.660,PRaM,2021.2.3,Win32,60.04563468,61b8f3437b89212fae0dfade
4,8.9135,space,9.6143,0,86,86,120,1,,,62349099af33a7e0ca9357f5,6437832ad581372e37b283e2,2023-04-13_05h21.24.660,PRaM,2021.2.3,Win32,60.04563468,61b8f3437b89212fae0dfade
3,3.2883,space,1.7611,0,87,87,324,1,,,62349099af33a7e0ca9357f5,6437832ad581372e37b283e2,2023-04-13_05h21.24.660,PRaM,2021.2.3,Win32,60.04563468,61b8f3437b89212fae0dfade
2,2.9079,space,1.5109,0,88,88,258,1,,,62349099af33a7e0ca9357f5,6437832ad581372e37b283e2,2023-04-13_05h21.24.660,PRaM,2021.2.3,Win32,60.04563468,61b8f3437b89212fae0dfade
2,3.0873,space,5.7058,0,89,89,236,1,,,62349099af33a7e0ca9357f5,6437832ad581372e37b283e2,2023-04-13_05h21.24.660,PRaM,2021.2.3,Win32,60.04563468,61b8f3437b89212fae0dfade
1,3.9782,space,2.4808,0,90,90,345,1,,,62349099af33a7e0ca9357f5,6437832ad581372e37b283e2,2023-04-13_05h21.24.660,PRaM,2021.2.3,Win32,60.04563468,61b8f3437b89212fae0dfade
4,5.427,space,3.8117,0,91,91,288,1,,,62349099af33a7e0ca9357f5,6437832ad581372e37b283e2,2023-04-13_05h21.24.660,PRaM,2021.2.3,Win32,60.04563468,61b8f3437b89212fae0dfade
2,2.7575,space,1.1478,0,92,92,39,1,,,62349099af33a7e0ca9357f5,6437832ad581372e37b283e2,2023-04-13_05h21.24.660,PRaM,2021.2.3,Win32,60.04563468,61b8f3437b89212fae0dfade
4,7.8987,space,6.2805,0,93,93,171,1,,,62349099af33a7e0ca9357f5,6437832ad581372e37b283e2,2023-04-13_05h21.24.660,PRaM,2021.2.3,Win32,60.04563468,61b8f3437b89212fae0dfade
1,2.7647,space,1.4693,0,94,94,138,1,,,62349099af33a7e0ca9357f5,6437832ad581372e37b283e2,2023-04-13_05h21.24.660,PRaM,2021.2.3,Win32,60.04563468,61b8f3437b89212fae0dfade
2,4.4424,space,2.8257,0,95,95,309,1,,,62349099af33a7e0ca9357f5,6437832ad581372e37b283e2,2023-04-13_05h21.24.660,PRaM,2021.2.3,Win32,60.04563468,61b8f3437b89212fae0dfade
8,11.0726,space,9.6432,0,96,96,17,1,,,62349099af33a7e0ca9357f5,6437832ad581372e37b283e2,2023-04-13_05h21.24.660,PRaM,2021.2.3,Win32,60.04563468,61b8f3437b89212fae0dfade
6,4.2341,space,3.2922,0,97,97,281,1,,,62349099af33a7e0ca9357f5,6437832ad581372e37b283e2,2023-04-13_05h21.24.660,PRaM,2021.2.3,Win32,60.04563468,61b8f3437b89212fae0dfade
2,6.0964,space,5.6959,0,98,98,165,1,,,62349099af33a7e0ca9357f5,6437832ad581372e37b283e2,2023-04-13_05h21.24.660,PRaM,2021.2.3,Win32,60.04563468,61b8f3437b89212fae0dfade
6,3.9498,space,7.244,0,99,99,75,1,,,62349099af33a7e0ca9357f5,6437832ad581372e37b283e2,2023-04-13_05h21.24.660,PRaM,2021.2.3,Win32,60.04563468,61b8f3437b89212fae0dfade
1,3.5497,space,1.9402,0,100,100,25,1,,,62349099af33a7e0ca9357f5,6437832ad581372e37b283e2,2023-04-13_05h21.24.660,PRaM,2021.2.3,Win32,60.04563468,61b8f3437b89212fae0dfade
1,2.4266,space,2.8404,0,101,101,41,1,,,62349099af33a7e0ca9357f5,6437832ad581372e37b283e2,2023-04-13_05h21.24.660,PRaM,2021.2.3,Win32,60.04563468,61b8f3437b89212fae0dfade
6,5.2861,space,7.6256,0,102,102,300,1,,,62349099af33a7e0ca9357f5,6437832ad581372e37b283e2,2023-04-13_05h21.24.660,PRaM,2021.2.3,Win32,60.04563468,61b8f3437b89212fae0dfade
1,9.875,space,8.275,0,103,103,188,1,,,62349099af33a7e0ca9357f5,6437832ad581372e37b283e2,2023-04-13_05h21.24.660,PRaM,2021.2.3,Win32,60.04563468,61b8f3437b89212fae0dfade
1,2.4022,space,2.6249,0,104,104,72,1,,,62349099af33a7e0ca9357f5,6437832ad581372e37b283e2,2023-04-13_05h21.24.660,PRaM,2021.2.3,Win32,60.04563468,61b8f3437b89212fae0dfade
1,1.9783,space,0.5532,0,105,105,257,1,,,62349099af33a7e0ca9357f5,6437832ad581372e37b283e2,2023-04-13_05h21.24.660,PRaM,2021.2.3,Win32,60.04563468,61b8f3437b89212fae0dfade
1,5.5286,space,4.172,0,106,106,332,1,,,62349099af33a7e0ca9357f5,6437832ad581372e37b283e2,2023-04-13_05h21.24.660,PRaM,2021.2.3,Win32,60.04563468,61b8f3437b89212fae0dfade
8,8.676,space,7.1407,0,107,107,320,1,,,62349099af33a7e0ca9357f5,6437832ad581372e37b283e2,2023-04-13_05h21.24.660,PRaM,2021.2.3,Win32,60.04563468,61b8f3437b89212fae0dfade
1,2.3767,space,0.8241,0,108,108,312,1,,,62349099af33a7e0ca9357f5,6437832ad581372e37b283e2,2023-04-13_05h21.24.660,PRaM,2021.2.3,Win32,60.04563468,61b8f3437b89212fae0dfade
1,4.0564,space,2.4695,0,109,109,46,1,,,62349099af33a7e0ca9357f5,6437832ad581372e37b283e2,2023-04-13_05h21.24.660,PRaM,2021.2.3,Win32,60.04563468,61b8f3437b89212fae0dfade
1,1.8229,space,1.218,0,110,110,252,1,,,62349099af33a7e0ca9357f5,6437832ad581372e37b283e2,2023-04-13_05h21.24.660,PRaM,2021.2.3,Win32,60.04563468,61b8f3437b89212fae0dfade
1,1.7824,space,0.2176,0,111,111,376,1,,,62349099af33a7e0ca9357f5,6437832ad581372e37b283e2,2023-04-13_05h21.24.660,PRaM,2021.2.3,Win32,60.04563468,61b8f3437b89212fae0dfade
7,7.2454,space,5.6078,0,112,112,174,1,,,62349099af33a7e0ca9357f5,6437832ad581372e37b283e2,2023-04-13_05h21.24.660,PRaM,2021.2.3,Win32,60.04563468,61b8f3437b89212fae0dfade
4,14.452,space,12.7948,0,113,113,151,1,,,62349099af33a7e0ca9357f5,6437832ad581372e37b283e2,2023-04-13_05h21.24.660,PRaM,2021.2.3,Win32,60.04563468,61b8f3437b89212fae0dfade
8,5.4842,space,7.1745,0,114,114,194,1,,,62349099af33a7e0ca9357f5,6437832ad581372e37b283e2,2023-04-13_05h21.24.660,PRaM,2021.2.3,Win32,60.04563468,61b8f3437b89212fae0dfade
3,5.8862,space,4.2742,0,115,115,88,1,,,62349099af33a7e0ca9357f5,6437832ad581372e37b283e2,2023-04-13_05h21.24.660,PRaM,2021.2.3,Win32,60.04563468,61b8f3437b89212fae0dfade
7,6.2491,space,4.6559,0,116,116,136,1,,,62349099af33a7e0ca9357f5,6437832ad581372e37b283e2,2023-04-13_05h21.24.660,PRaM,2021.2.3,Win32,60.04563468,61b8f3437b89212fae0dfade
6,4.5342,space,3.392,0,117,117,348,1,,,62349099af33a7e0ca9357f5,6437832ad581372e37b283e2,2023-04-13_05h21.24.660,PRaM,2021.2.3,Win32,60.04563468,61b8f3437b89212fae0dfade
1,5.4709,space,3.9774,0,118,118,364,1,,,62349099af33a7e0ca9357f5,6437832ad581372e37b283e2,2023-04-13_05h21.24.660,PRaM,2021.2.3,Win32,60.04563468,61b8f3437b89212fae0dfade
5,10.39,space,8.7811,0,119,119,230,1,,,62349099af33a7e0ca9357f5,6437832ad581372e37b283e2,2023-04-13_05h21.24.660,PRaM,2021.2.3,Win32,60.04563468,61b8f3437b89212fae0dfade
5,9.5234,space,8.1292,0,120,120,99,1,,,62349099af33a7e0ca9357f5,6437832ad581372e37b283e2,2023-04-13_05h21.24.660,PRaM,2021.2.3,Win32,60.04563468,61b8f3437b89212fae0dfade
3,5.6184,space,11.3294,0,121,121,271,1,,,62349099af33a7e0ca9357f5,6437832ad581372e37b283e2,2023-04-13_05h21.24.660,PRaM,2021.2.3,Win32,60.04563468,61b8f3437b89212fae0dfade
7,4.0674,space,2.4664,0,122,122,117,1,,,62349099af33a7e0ca9357f5,6437832ad581372e37b283e2,2023-04-13_05h21.24.660,PRaM,2021.2.3,Win32,60.04563468,61b8f3437b89212fae0dfade
2,3.4117,space,1.824,0,123,123,144,1,,,62349099af33a7e0ca9357f5,6437832ad581372e37b283e2,2023-04-13_05h21.24.660,PRaM,2021.2.3,Win32,60.04563468,61b8f3437b89212fae0dfade
1,1.88,space,0.2677,0,124,124,79,1,,,62349099af33a7e0ca9357f5,6437832ad581372e37b283e2,2023-04-13_05h21.24.660,PRaM,2021.2.3,Win32,60.04563468,61b8f3437b89212fae0dfade
6,12.0581,space,11.1617,0,125,125,180,1,,,62349099af33a7e0ca9357f5,6437832ad581372e37b283e2,2023-04-13_05h21.24.660,PRaM,2021.2.3,Win32,60.04563468,61b8f3437b89212fae0dfade
1,3.2069,space,2.0031,0,126,126,143,1,,,62349099af33a7e0ca9357f5,6437832ad581372e37b283e2,2023-04-13_05h21.24.660,PRaM,2021.2.3,Win32,60.04563468,61b8f3437b89212fae0dfade
3,5.5517,space,4.5393,0,127,127,6,1,,,62349099af33a7e0ca9357f5,6437832ad581372e37b283e2,2023-04-13_05h21.24.660,PRaM,2021.2.3,Win32,60.04563468,61b8f3437b89212fae0dfade
8,4.5429,space,4.3131,0,128,128,207,1,,,62349099af33a7e0ca9357f5,6437832ad581372e37b283e2,2023-04-13_05h21.24.660,PRaM,2021.2.3,Win32,60.04563468,61b8f3437b89212fae0dfade
6,3.7783,space,2.1383,0,129,129,177,1,,,62349099af33a7e0ca9357f5,6437832ad581372e37b283e2,2023-04-13_05h21.24.660,PRaM,2021.2.3,Win32,60.04563468,61b8f3437b89212fae0dfade
1,4.6519,space,4.3274,0,130,130,13,1,,,62349099af33a7e0ca9357f5,6437832ad581372e37b283e2,2023-04-13_05h21.24.660,PRaM,2021.2.3,Win32,60.04563468,61b8f3437b89212fae0dfade
6,4.2501,space,2.9726,0,131,131,19,1,,,62349099af33a7e0ca9357f5,6437832ad581372e37b283e2,2023-04-13_05h21.24.660,PRaM,2021.2.3,Win32,60.04563468,61b8f3437b89212fae0dfade
4,5.5754,space,4.0592,0,132,132,156,1,,,62349099af33a7e0ca9357f5,6437832ad581372e37b283e2,2023-04-13_05h21.24.660,PRaM,2021.2.3,Win32,60.04563468,61b8f3437b89212fae0dfade
5,5.8499,space,4.2379,0,133,133,74,1,,,62349099af33a7e0ca9357f5,6437832ad581372e37b283e2,2023-04-13_05h21.24.660,PRaM,2021.2.3,Win32,60.04563468,61b8f3437b89212fae0dfade
8,5.1628,space,4.6838,0,134,134,200,1,,,62349099af33a7e0ca9357f5,6437832ad581372e37b283e2,2023-04-13_05h21.24.660,PRaM,2021.2.3,Win32,60.04563468,61b8f3437b89212fae0dfade
1,9.1353,space,8.1321,0,135,135,150,1,,,62349099af33a7e0ca9357f5,6437832ad581372e37b283e2,2023-04-13_05h21.24.660,PRaM,2021.2.3,Win32,60.04563468,61b8f3437b89212fae0dfade
1,3.1621,space,1.8374,0,136,136,189,1,,,62349099af33a7e0ca9357f5,6437832ad581372e37b283e2,2023-04-13_05h21.24.660,PRaM,2021.2.3,Win32,60.04563468,61b8f3437b89212fae0dfade
1,2.1583,space,0.8902,0,137,137,247,1,,,62349099af33a7e0ca9357f5,6437832ad581372e37b283e2,2023-04-13_05h21.24.660,PRaM,2021.2.3,Win32,60.04563468,61b8f3437b89212fae0dfade
2,8.9412,space,7.9249,0,138,138,158,1,,,62349099af33a7e0ca9357f5,6437832ad581372e37b283e2,2023-04-13_05h21.24.660,PRaM,2021.2.3,Win32,60.04563468,61b8f3437b89212fae0dfade
2,4.4395,space,3.5215,0,139,139,313,1,,,62349099af33a7e0ca9357f5,6437832ad581372e37b283e2,2023-04-13_05h21.24.660,PRaM,2021.2.3,Win32,60.04563468,61b8f3437b89212fae0dfade
6,15.9312,space,14.2977,0,140,140,102,1,,,62349099af33a7e0ca9357f5,6437832ad581372e37b283e2,2023-04-13_05h21.24.660,PRaM,2021.2.3,Win32,60.04563468,61b8f3437b89212fae0dfade
5,3.8358,space,2.1592,0,141,141,314,1,,,62349099af33a7e0ca9357f5,6437832ad581372e37b283e2,2023-04-13_05h21.24.660,PRaM,2021.2.3,Win32,60.04563468,61b8f3437b89212fae0dfade
9,4.3474,space,2.9106,0,142,142,222,1,,,62349099af33a7e0ca9357f5,6437832ad581372e37b283e2,2023-04-13_05h21.24.660,PRaM,2021.2.3,Win32,60.04563468,61b8f3437b89212fae0dfade
2,9.632,space,8.3848,0,143,143,287,1,,,62349099af33a7e0ca9357f5,6437832ad581372e37b283e2,2023-04-13_05h21.24.660,PRaM,2021.2.3,Win32,60.04563468,61b8f3437b89212fae0dfade
2,6.2614,space,4.5421,0,144,144,265,1,,,62349099af33a7e0ca9357f5,6437832ad581372e37b283e2,2023-04-13_05h21.24.660,PRaM,2021.2.3,Win32,60.04563468,61b8f3437b89212fae0dfade
1,2.888,space,1.2859,0,145,145,286,1,,,62349099af33a7e0ca9357f5,6437832ad581372e37b283e2,2023-04-13_05h21.24.660,PRaM,2021.2.3,Win32,60.04563468,61b8f3437b89212fae0dfade
1,2.1297,space,0.4859,0,146,146,1,1,,,62349099af33a7e0ca9357f5,6437832ad581372e37b283e2,2023-04-13_05h21.24.660,PRaM,2021.2.3,Win32,60.04563468,61b8f3437b89212fae0dfade
1,3.1597,space,1.3863,0,147,147,206,1,,,62349099af33a7e0ca9357f5,6437832ad581372e37b283e2,2023-04-13_05h21.24.660,PRaM,2021.2.3,Win32,60.04563468,61b8f3437b89212fae0dfade
1,2.0595,space,0.4342,0,148,148,250,1,,,62349099af33a7e0ca9357f5,6437832ad581372e37b283e2,2023-04-13_05h21.24.660,PRaM,2021.2.3,Win32,60.04563468,61b8f3437b89212fae0dfade
1,2.0807,space,0.5188,0,149,149,218,1,,,62349099af33a7e0ca9357f5,6437832ad581372e37b283e2,2023-04-13_05h21.24.660,PRaM,2021.2.3,Win32,60.04563468,61b8f3437b89212fae0dfade
1,1.7253,space,0.1539,0,150,150,106,1,,,62349099af33a7e0ca9357f5,6437832ad581372e37b283e2,2023-04-13_05h21.24.660,PRaM,2021.2.3,Win32,60.04563468,61b8f3437b89212fae0dfade
1,4.0934,space,2.4359,0,151,151,306,1,,,62349099af33a7e0ca9357f5,6437832ad581372e37b283e2,2023-04-13_05h21.24.660,PRaM,2021.2.3,Win32,60.04563468,61b8f3437b89212fae0dfade
2,4.4174,space,2.8038,0,152,152,191,1,,,62349099af33a7e0ca9357f5,6437832ad581372e37b283e2,2023-04-13_05h21.24.660,PRaM,2021.2.3,Win32,60.04563468,61b8f3437b89212fae0dfade
3,4.2846,space,4.39,0,153,153,223,1,,,62349099af33a7e0ca9357f5,6437832ad581372e37b283e2,2023-04-13_05h21.24.660,PRaM,2021.2.3,Win32,60.04563468,61b8f3437b89212fae0dfade
2,3.2387,space,1.6034,0,154,154,342,1,,,62349099af33a7e0ca9357f5,6437832ad581372e37b283e2,2023-04-13_05h21.24.660,PRaM,2021.2.3,Win32,60.04563468,61b8f3437b89212fae0dfade
6,5.085,space,3.4924,0,155,155,319,1,,,62349099af33a7e0ca9357f5,6437832ad581372e37b283e2,2023-04-13_05h21.24.660,PRaM,2021.2.3,Win32,60.04563468,61b8f3437b89212fae0dfade
1,6.1352,space,4.5724,0,156,156,235,1,,,62349099af33a7e0ca9357f5,6437832ad581372e37b283e2,2023-04-13_05h21.24.660,PRaM,2021.2.3,Win32,60.04563468,61b8f3437b89212fae0dfade
1,2.5928,space,1.0164,0,157,157,50,1,,,62349099af33a7e0ca9357f5,6437832ad581372e37b283e2,2023-04-13_05h21.24.660,PRaM,2021.2.3,Win32,60.04563468,61b8f3437b89212fae0dfade
9,2.0197,space,0.7307,0,158,158,334,1,,,62349099af33a7e0ca9357f5,6437832ad581372e37b283e2,2023-04-13_05h21.24.660,PRaM,2021.2.3,Win32,60.04563468,61b8f3437b89212fae0dfade
1,4.7105,space,3.1379,0,159,159,360,1,,,62349099af33a7e0ca9357f5,6437832ad581372e37b283e2,2023-04-13_05h21.24.660,PRaM,2021.2.3,Win32,60.04563468,61b8f3437b89212fae0dfade
1,1.7928,space,0.2199,0,160,160,184,1,,,62349099af33a7e0ca9357f5,6437832ad581372e37b283e2,2023-04-13_05h21.24.660,PRaM,2021.2.3,Win32,60.04563468,61b8f3437b89212fae0dfade
1,1.8777,space,0.5689,0,161,161,303,1,,,62349099af33a7e0ca9357f5,6437832ad581372e37b283e2,2023-04-13_05h21.24.660,PRaM,2021.2.3,Win32,60.04563468,61b8f3437b89212fae0dfade
1,1.6265,space,0.124,0,162,162,27,1,,,62349099af33a7e0ca9357f5,6437832ad581372e37b283e2,2023-04-13_05h21.24.660,PRaM,2021.2.3,Win32,60.04563468,61b8f3437b89212fae0dfade
1,2.8941,space,1.8699,0,163,163,204,1,,,62349099af33a7e0ca9357f5,6437832ad581372e37b283e2,2023-04-13_05h21.24.660,PRaM,2021.2.3,Win32,60.04563468,61b8f3437b89212fae0dfade
1,5.249,space,3.689,0,164,164,92,1,,,62349099af33a7e0ca9357f5,6437832ad581372e37b283e2,2023-04-13_05h21.24.660,PRaM,2021.2.3,Win32,60.04563468,61b8f3437b89212fae0dfade
9,2.4887,space,0.9514,0,165,165,137,1,,,62349099af33a7e0ca9357f5,6437832ad581372e37b283e2,2023-04-13_05h21.24.660,PRaM,2021.2.3,Win32,60.04563468,61b8f3437b89212fae0dfade
8,5.6112,space,5.3725,0,166,166,135,1,,,62349099af33a7e0ca9357f5,6437832ad581372e37b283e2,2023-04-13_05h21.24.660,PRaM,2021.2.3,Win32,60.04563468,61b8f3437b89212fae0dfade
4,7.3043,space,5.693,0,167,167,368,1,,,62349099af33a7e0ca9357f5,6437832ad581372e37b283e2,2023-04-13_05h21.24.660,PRaM,2021.2.3,Win32,60.04563468,61b8f3437b89212fae0dfade
3,2.9935,space,1.3693,0,168,168,183,1,,,62349099af33a7e0ca9357f5,6437832ad581372e37b283e2,2023-04-13_05h21.24.660,PRaM,2021.2.3,Win32,60.04563468,61b8f3437b89212fae0dfade
1,2.3822,space,0.886,0,169,169,212,1,,,62349099af33a7e0ca9357f5,6437832ad581372e37b283e2,2023-04-13_05h21.24.660,PRaM,2021.2.3,Win32,60.04563468,61b8f3437b89212fae0dfade
1,5.8354,space,4.2064,0,170,170,344,1,,,62349099af33a7e0ca9357f5,6437832ad581372e37b283e2,2023-04-13_05h21.24.660,PRaM,2021.2.3,Win32,60.04563468,61b8f3437b89212fae0dfade
5,2.9586,space,2.9209,0,171,171,85,1,,,62349099af33a7e0ca9357f5,6437832ad581372e37b283e2,2023-04-13_05h21.24.660,PRaM,2021.2.3,Win32,60.04563468,61b8f3437b89212fae0dfade
3,8.5697,space,7.0403,0,172,172,296,1,,,62349099af33a7e0ca9357f5,6437832ad581372e37b283e2,2023-04-13_05h21.24.660,PRaM,2021.2.3,Win32,60.04563468,61b8f3437b89212fae0dfade
8,2.5611,space,2.7387,0,173,173,277,1,,,62349099af33a7e0ca9357f5,6437832ad581372e37b283e2,2023-04-13_05h21.24.660,PRaM,2021.2.3,Win32,60.04563468,61b8f3437b89212fae0dfade
1,2.8156,space,1.2216,0,174,174,95,1,,,62349099af33a7e0ca9357f5,6437832ad581372e37b283e2,2023-04-13_05h21.24.660,PRaM,2021.2.3,Win32,60.04563468,61b8f3437b89212fae0dfade
1,1.7928,space,7.1919,0,175,175,15,1,,,62349099af33a7e0ca9357f5,6437832ad581372e37b283e2,2023-04-13_05h21.24.660,PRaM,2021.2.3,Win32,60.04563468,61b8f3437b89212fae0dfade
6,5.4705,space,3.9666,0,176,176,340,1,,,62349099af33a7e0ca9357f5,6437832ad581372e37b283e2,2023-04-13_05h21.24.660,PRaM,2021.2.3,Win32,60.04563468,61b8f3437b89212fae0dfade
1,3.4109,space,1.8428,0,177,177,283,1,,,62349099af33a7e0ca9357f5,6437832ad581372e37b283e2,2023-04-13_05h21.24.660,PRaM,2021.2.3,Win32,60.04563468,61b8f3437b89212fae0dfade
1,1.5922,space,0.8916,0,178,178,251,1,,,62349099af33a7e0ca9357f5,6437832ad581372e37b283e2,2023-04-13_05h21.24.660,PRaM,2021.2.3,Win32,60.04563468,61b8f3437b89212fae0dfade
8,4.019,space,2.4325,0,179,179,337,1,,,62349099af33a7e0ca9357f5,6437832ad581372e37b283e2,2023-04-13_05h21.24.660,PRaM,2021.2.3,Win32,60.04563468,61b8f3437b89212fae0dfade
1,6.3789,space,5.1954,0,180,180,261,1,,,62349099af33a7e0ca9357f5,6437832ad581372e37b283e2,2023-04-13_05h21.24.660,PRaM,2021.2.3,Win32,60.04563468,61b8f3437b89212fae0dfade
6,5.237,space,3.7885,0,181,181,327,1,,,62349099af33a7e0ca9357f5,6437832ad581372e37b283e2,2023-04-13_05h21.24.660,PRaM,2021.2.3,Win32,60.04563468,61b8f3437b89212fae0dfade
3,3.5765,space,4.9057,0,182,182,100,1,,,62349099af33a7e0ca9357f5,6437832ad581372e37b283e2,2023-04-13_05h21.24.660,PRaM,2021.2.3,Win32,60.04563468,61b8f3437b89212fae0dfade
5,8.0858,space,9.3434,0,183,183,211,1,,,62349099af33a7e0ca9357f5,6437832ad581372e37b283e2,2023-04-13_05h21.24.660,PRaM,2021.2.3,Win32,60.04563468,61b8f3437b89212fae0dfade
1,2.6231,space,1.0801,0,184,184,54,1,,,62349099af33a7e0ca9357f5,6437832ad581372e37b283e2,2023-04-13_05h21.24.660,PRaM,2021.2.3,Win32,60.04563468,61b8f3437b89212fae0dfade
2,6.7557,space,7.3088,0,185,185,338,1,,,62349099af33a7e0ca9357f5,6437832ad581372e37b283e2,2023-04-13_05h21.24.660,PRaM,2021.2.3,Win32,60.04563468,61b8f3437b89212fae0dfade
6,3.2611,space,1.6364,0,186,186,350,1,,,62349099af33a7e0ca9357f5,6437832ad581372e37b283e2,2023-04-13_05h21.24.660,PRaM,2021.2.3,Win32,60.04563468,61b8f3437b89212fae0dfade
1,6.7692,space,5.4231,0,187,187,89,1,,,62349099af33a7e0ca9357f5,6437832ad581372e37b283e2,2023-04-13_05h21.24.660,PRaM,2021.2.3,Win32,60.04563468,61b8f3437b89212fae0dfade
4,3.9156,space,2.3416,0,188,188,205,1,,,62349099af33a7e0ca9357f5,6437832ad581372e37b283e2,2023-04-13_05h21.24.660,PRaM,2021.2.3,Win32,60.04563468,61b8f3437b89212fae0dfade
5,2.9264,space,1.2538,0,189,189,16,1,,,62349099af33a7e0ca9357f5,6437832ad581372e37b283e2,2023-04-13_05h21.24.660,PRaM,2021.2.3,Win32,60.04563468,61b8f3437b89212fae0dfade
1,2.0468,space,0.4847,0,190,190,71,1,,,62349099af33a7e0ca9357f5,6437832ad581372e37b283e2,2023-04-13_05h21.24.660,PRaM,2021.2.3,Win32,60.04563468,61b8f3437b89212fae0dfade
3,4.9336,space,3.3689,0,191,191,157,1,,,62349099af33a7e0ca9357f5,6437832ad581372e37b283e2,2023-04-13_05h21.24.660,PRaM,2021.2.3,Win32,60.04563468,61b8f3437b89212fae0dfade
8,3.2326,space,1.5388,0,192,192,363,1,,,62349099af33a7e0ca9357f5,6437832ad581372e37b283e2,2023-04-13_05h21.24.660,PRaM,2021.2.3,Win32,60.04563468,61b8f3437b89212fae0dfade
8,8.583,space,7.0428,0,193,193,226,1,,,62349099af33a7e0ca9357f5,6437832ad581372e37b283e2,2023-04-13_05h21.24.660,PRaM,2021.2.3,Win32,60.04563468,61b8f3437b89212fae0dfade
4,5.9449,space,6.2053,0,194,194,186,1,,,62349099af33a7e0ca9357f5,6437832ad581372e37b283e2,2023-04-13_05h21.24.660,PRaM,2021.2.3,Win32,60.04563468,61b8f3437b89212fae0dfade
7,6.912,space,5.7316,0,195,195,140,1,,,62349099af33a7e0ca9357f5,6437832ad581372e37b283e2,2023-04-13_05h21.24.660,PRaM,2021.2.3,Win32,60.04563468,61b8f3437b89212fae0dfade
4,4.6091,space,3.2871,0,196,196,240,1,,,62349099af33a7e0ca9357f5,6437832ad581372e37b283e2,2023-04-13_05h21.24.660,PRaM,2021.2.3,Win32,60.04563468,61b8f3437b89212fae0dfade
6,8.4127,space,6.8402,0,197,197,126,1,,,62349099af33a7e0ca9357f5,6437832ad581372e37b283e2,2023-04-13_05h21.24.660,PRaM,2021.2.3,Win32,60.04563468,61b8f3437b89212fae0dfade
9,6.9029,space,6.4765,0,198,198,134,1,,,62349099af33a7e0ca9357f5,6437832ad581372e37b283e2,2023-04-13_05h21.24.660,PRaM,2021.2.3,Win32,60.04563468,61b8f3437b89212fae0dfade
6,3.3101,space,1.6252,0,199,199,53,1,,,62349099af33a7e0ca9357f5,6437832ad581372e37b283e2,2023-04-13_05h21.24.660,PRaM,2021.2.3,Win32,60.04563468,61b8f3437b89212fae0dfade
7,11.8244,space,10.2569,0,200,200,335,1,,,62349099af33a7e0ca9357f5,6437832ad581372e37b283e2,2023-04-13_05h21.24.660,PRaM,2021.2.3,Win32,60.04563468,61b8f3437b89212fae0dfade
3,5.7348,space,4.1108,0,201,201,216,1,,,62349099af33a7e0ca9357f5,6437832ad581372e37b283e2,2023-04-13_05h21.24.660,PRaM,2021.2.3,Win32,60.04563468,61b8f3437b89212fae0dfade
6,3.8171,space,2.1178,0,202,202,328,1,,,62349099af33a7e0ca9357f5,6437832ad581372e37b283e2,2023-04-13_05h21.24.660,PRaM,2021.2.3,Win32,60.04563468,61b8f3437b89212fae0dfade
2,3.0163,space,1.248,0,203,203,369,1,,,62349099af33a7e0ca9357f5,6437832ad581372e37b283e2,2023-04-13_05h21.24.660,PRaM,2021.2.3,Win32,60.04563468,61b8f3437b89212fae0dfade
2,5.3417,space,3.7213,0,204,204,35,1,,,62349099af33a7e0ca9357f5,6437832ad581372e37b283e2,2023-04-13_05h21.24.660,PRaM,2021.2.3,Win32,60.04563468,61b8f3437b89212fae0dfade
6,10.566,space,9.1595,0,205,205,14,1,,,62349099af33a7e0ca9357f5,6437832ad581372e37b283e2,2023-04-13_05h21.24.660,PRaM,2021.2.3,Win32,60.04563468,61b8f3437b89212fae0dfade
6,6.4453,space,4.8546,0,206,206,225,1,,,62349099af33a7e0ca9357f5,6437832ad581372e37b283e2,2023-04-13_05h21.24.660,PRaM,2021.2.3,Win32,60.04563468,61b8f3437b89212fae0dfade
1,2.615,space,1.2546,0,207,207,122,1,,,62349099af33a7e0ca9357f5,6437832ad581372e37b283e2,2023-04-13_05h21.24.660,PRaM,2021.2.3,Win32,60.04563468,61b8f3437b89212fae0dfade
1,2.1091,space,0.4731,0,208,208,299,1,,,62349099af33a7e0ca9357f5,6437832ad581372e37b283e2,2023-04-13_05h21.24.660,PRaM,2021.2.3,Win32,60.04563468,61b8f3437b89212fae0dfade
3,8.5981,space,7.0252,0,209,209,179,1,,,62349099af33a7e0ca9357f5,6437832ad581372e37b283e2,2023-04-13_05h21.24.660,PRaM,2021.2.3,Win32,60.04563468,61b8f3437b89212fae0dfade
1,3.1133,space,1.6181,0,210,210,214,1,,,62349099af33a7e0ca9357f5,6437832ad581372e37b283e2,2023-04-13_05h21.24.660,PRaM,2021.2.3,Win32,60.04563468,61b8f3437b89212fae0dfade
3,14.3592,space,12.8215,0,211,211,62,1,,,62349099af33a7e0ca9357f5,6437832ad581372e37b283e2,2023-04-13_05h21.24.660,PRaM,2021.2.3,Win32,60.04563468,61b8f3437b89212fae0dfade
1,4.9419,space,3.3543,0,212,212,97,1,,,62349099af33a7e0ca9357f5,6437832ad581372e37b283e2,2023-04-13_05h21.24.660,PRaM,2021.2.3,Win32,60.04563468,61b8f3437b89212fae0dfade
9,2.1092,space,0.5382,0,213,213,323,1,,,62349099af33a7e0ca9357f5,6437832ad581372e37b283e2,2023-04-13_05h21.24.660,PRaM,2021.2.3,Win32,60.04563468,61b8f3437b89212fae0dfade
1,2.525,space,0.9845,0,214,214,245,1,,,62349099af33a7e0ca9357f5,6437832ad581372e37b283e2,2023-04-13_05h21.24.660,PRaM,2021.2.3,Win32,60.04563468,61b8f3437b89212fae0dfade
1,3.2334,space,1.6523,0,215,215,9,1,,,62349099af33a7e0ca9357f5,6437832ad581372e37b283e2,2023-04-13_05h21.24.660,PRaM,2021.2.3,Win32,60.04563468,61b8f3437b89212fae0dfade
9,3.216,space,1.7527,0,216,216,118,1,,,62349099af33a7e0ca9357f5,6437832ad581372e37b283e2,2023-04-13_05h21.24.660,PRaM,2021.2.3,Win32,60.04563468,61b8f3437b89212fae0dfade
7,5.2125,space,3.8918,0,217,217,84,1,,,62349099af33a7e0ca9357f5,6437832ad581372e37b283e2,2023-04-13_05h21.24.660,PRaM,2021.2.3,Win32,60.04563468,61b8f3437b89212fae0dfade
5,3.2447,space,1.7212,0,218,218,66,1,,,62349099af33a7e0ca9357f5,6437832ad581372e37b283e2,2023-04-13_05h21.24.660,PRaM,2021.2.3,Win32,60.04563468,61b8f3437b89212fae0dfade
4,8.2363,space,6.6094,0,219,219,154,1,,,62349099af33a7e0ca9357f5,6437832ad581372e37b283e2,2023-04-13_05h21.24.660,PRaM,2021.2.3,Win32,60.04563468,61b8f3437b89212fae0dfade
2,3.8954,space,3.4033,0,220,220,5,1,,,62349099af33a7e0ca9357f5,6437832ad581372e37b283e2,2023-04-13_05h21.24.660,PRaM,2021.2.3,Win32,60.04563468,61b8f3437b89212fae0dfade
1,2.7274,space,1.1354,0,221,221,10,1,,,62349099af33a7e0ca9357f5,6437832ad581372e37b283e2,2023-04-13_05h21.24.660,PRaM,2021.2.3,Win32,60.04563468,61b8f3437b89212fae0dfade
1,1.464,space,0.7589,0,222,222,210,1,,,62349099af33a7e0ca9357f5,6437832ad581372e37b283e2,2023-04-13_05h21.24.660,PRaM,2021.2.3,Win32,60.04563468,61b8f3437b89212fae0dfade
8,2.6766,space,1.4677,0,223,223,42,1,,,62349099af33a7e0ca9357f5,6437832ad581372e37b283e2,2023-04-13_05h21.24.660,PRaM,2021.2.3,Win32,60.04563468,61b8f3437b89212fae0dfade
2,6.3676,space,5.3222,0,224,224,243,1,,,62349099af33a7e0ca9357f5,6437832ad581372e37b283e2,2023-04-13_05h21.24.660,PRaM,2021.2.3,Win32,60.04563468,61b8f3437b89212fae0dfade
4,10.2399,space,9.0837,0,225,225,336,1,,,62349099af33a7e0ca9357f5,6437832ad581372e37b283e2,2023-04-13_05h21.24.660,PRaM,2021.2.3,Win32,60.04563468,61b8f3437b89212fae0dfade
1,4.8335,space,3.3703,0,226,226,233,1,,,62349099af33a7e0ca9357f5,6437832ad581372e37b283e2,2023-04-13_05h21.24.660,PRaM,2021.2.3,Win32,60.04563468,61b8f3437b89212fae0dfade
1,1.9278,space,0.3893,0,227,227,347,1,,,62349099af33a7e0ca9357f5,6437832ad581372e37b283e2,2023-04-13_05h21.24.660,PRaM,2021.2.3,Win32,60.04563468,61b8f3437b89212fae0dfade
6,10.4693,space,8.8593,0,228,228,213,1,,,62349099af33a7e0ca9357f5,6437832ad581372e37b283e2,2023-04-13_05h21.24.660,PRaM,2021.2.3,Win32,60.04563468,61b8f3437b89212fae0dfade
1,2.6009,space,0.9951,0,229,229,246,1,,,62349099af33a7e0ca9357f5,6437832ad581372e37b283e2,2023-04-13_05h21.24.660,PRaM,2021.2.3,Win32,60.04563468,61b8f3437b89212fae0dfade
1,1.6542,space,1.0021,0,230,230,26,1,,,62349099af33a7e0ca9357f5,6437832ad581372e37b283e2,2023-04-13_05h21.24.660,PRaM,2021.2.3,Win32,60.04563468,61b8f3437b89212fae0dfade
1,2.1424,space,0.5834,0,231,231,330,1,,,62349099af33a7e0ca9357f5,6437832ad581372e37b283e2,2023-04-13_05h21.24.660,PRaM,2021.2.3,Win32,60.04563468,61b8f3437b89212fae0dfade
1,1.4032,space,0.2831,0,232,232,315,1,,,62349099af33a7e0ca9357f5,6437832ad581372e37b283e2,2023-04-13_05h21.24.660,PRaM,2021.2.3,Win32,60.04563468,61b8f3437b89212fae0dfade
1,1.5926,space,0.6555,0,233,233,68,1,,,62349099af33a7e0ca9357f5,6437832ad581372e37b283e2,2023-04-13_05h21.24.660,PRaM,2021.2.3,Win32,60.04563468,61b8f3437b89212fae0dfade
1,2.8268,space,1.5533,0,234,234,78,1,,,62349099af33a7e0ca9357f5,6437832ad581372e37b283e2,2023-04-13_05h21.24.660,PRaM,2021.2.3,Win32,60.04563468,61b8f3437b89212fae0dfade
9,3.4403,space,1.7906,0,235,235,20,1,,,62349099af33a7e0ca9357f5,6437832ad581372e37b283e2,2023-04-13_05h21.24.660,PRaM,2021.2.3,Win32,60.04563468,61b8f3437b89212fae0dfade
1,2.8604,space,1.1361,0,236,236,56,1,,,62349099af33a7e0ca9357f5,6437832ad581372e37b283e2,2023-04-13_05h21.24.660,PRaM,2021.2.3,Win32,60.04563468,61b8f3437b89212fae0dfade
8,4.4938,space,2.8704,0,237,237,32,1,,,62349099af33a7e0ca9357f5,6437832ad581372e37b283e2,2023-04-13_05h21.24.660,PRaM,2021.2.3,Win32,60.04563468,61b8f3437b89212fae0dfade
4,5.1749,space,3.4874,0,238,238,367,1,,,62349099af33a7e0ca9357f5,6437832ad581372e37b283e2,2023-04-13_05h21.24.660,PRaM,2021.2.3,Win32,60.04563468,61b8f3437b89212fae0dfade
2,6.0528,space,4.6441,0,239,239,123,1,,,62349099af33a7e0ca9357f5,6437832ad581372e37b283e2,2023-04-13_05h21.24.660,PRaM,2021.2.3,Win32,60.04563468,61b8f3437b89212fae0dfade
4,5.4754,space,4.8723,0,240,240,112,1,,,62349099af33a7e0ca9357f5,6437832ad581372e37b283e2,2023-04-13_05h21.24.660,PRaM,2021.2.3,Win32,60.04563468,61b8f3437b89212fae0dfade
2,3.517,space,1.8228,0,241,241,254,1,,,62349099af33a7e0ca9357f5,6437832ad581372e37b283e2,2023-04-13_05h21.24.660,PRaM,2021.2.3,Win32,60.04563468,61b8f3437b89212fae0dfade
7,5.2614,space,3.6211,0,242,242,7,1,,,62349099af33a7e0ca9357f5,6437832ad581372e37b283e2,2023-04-13_05h21.24.660,PRaM,2021.2.3,Win32,60.04563468,61b8f3437b89212fae0dfade
4,3.6166,space,3.0414,0,243,243,4,1,,,62349099af33a7e0ca9357f5,6437832ad581372e37b283e2,2023-04-13_05h21.24.660,PRaM,2021.2.3,Win32,60.04563468,61b8f3437b89212fae0dfade
1,11.7105,space,10.1227,0,244,244,259,1,,,62349099af33a7e0ca9357f5,6437832ad581372e37b283e2,2023-04-13_05h21.24.660,PRaM,2021.2.3,Win32,60.04563468,61b8f3437b89212fae0dfade
1,3.575,space,1.9458,0,245,245,145,1,,,62349099af33a7e0ca9357f5,6437832ad581372e37b283e2,2023-04-13_05h21.24.660,PRaM,2021.2.3,Win32,60.04563468,61b8f3437b89212fae0dfade
2,2.9518,space,1.1782,0,246,246,256,1,,,62349099af33a7e0ca9357f5,6437832ad581372e37b283e2,2023-04-13_05h21.24.660,PRaM,2021.2.3,Win32,60.04563468,61b8f3437b89212fae0dfade
2,5.7531,space,5.7293,0,247,247,263,1,,,62349099af33a7e0ca9357f5,6437832ad581372e37b283e2,2023-04-13_05h21.24.660,PRaM,2021.2.3,Win32,60.04563468,61b8f3437b89212fae0dfade
9,2.4941,space,0.929,0,248,248,115,1,,,62349099af33a7e0ca9357f5,6437832ad581372e37b283e2,2023-04-13_05h21.24.660,PRaM,2021.2.3,Win32,60.04563468,61b8f3437b89212fae0dfade
1,5.4854,space,4.7386,0,249,249,268,1,,,62349099af33a7e0ca9357f5,6437832ad581372e37b283e2,2023-04-13_05h21.24.660,PRaM,2021.2.3,Win32,60.04563468,61b8f3437b89212fae0dfade
1,2.3467,space,0.7899,0,250,250,55,1,,,62349099af33a7e0ca9357f5,6437832ad581372e37b283e2,2023-04-13_05h21.24.660,PRaM,2021.2.3,Win32,60.04563468,61b8f3437b89212fae0dfade
3,3.332,space,1.6782,0,251,251,23,1,,,62349099af33a7e0ca9357f5,6437832ad581372e37b283e2,2023-04-13_05h21.24.660,PRaM,2021.2.3,Win32,60.04563468,61b8f3437b89212fae0dfade
2,3.4417,space,2.128,0,252,252,111,1,,,62349099af33a7e0ca9357f5,6437832ad581372e37b283e2,2023-04-13_05h21.24.660,PRaM,2021.2.3,Win32,60.04563468,61b8f3437b89212fae0dfade
2,6.7384,space,5.0647,0,253,253,274,1,,,62349099af33a7e0ca9357f5,6437832ad581372e37b283e2,2023-04-13_05h21.24.660,PRaM,2021.2.3,Win32,60.04563468,61b8f3437b89212fae0dfade
2,3.3696,space,3.1244,0,254,254,373,1,,,62349099af33a7e0ca9357f5,6437832ad581372e37b283e2,2023-04-13_05h21.24.660,PRaM,2021.2.3,Win32,60.04563468,61b8f3437b89212fae0dfade
1,1.4954,space,0.8053,0,255,255,374,1,,,62349099af33a7e0ca9357f5,6437832ad581372e37b283e2,2023-04-13_05h21.24.660,PRaM,2021.2.3,Win32,60.04563468,61b8f3437b89212fae0dfade
4,10.0159,space,8.3315,0,256,256,264,1,,,62349099af33a7e0ca9357f5,6437832ad581372e37b283e2,2023-04-13_05h21.24.660,PRaM,2021.2.3,Win32,60.04563468,61b8f3437b89212fae0dfade
1,2.3081,space,0.7355,0,257,257,293,1,,,62349099af33a7e0ca9357f5,6437832ad581372e37b283e2,2023-04-13_05h21.24.660,PRaM,2021.2.3,Win32,60.04563468,61b8f3437b89212fae0dfade
5,4.1746,space,2.5296,0,258,258,238,1,,,62349099af33a7e0ca9357f5,6437832ad581372e37b283e2,2023-04-13_05h21.24.660,PRaM,2021.2.3,Win32,60.04563468,61b8f3437b89212fae0dfade
3,7.7717,space,6.1941,0,259,259,273,1,,,62349099af33a7e0ca9357f5,6437832ad581372e37b283e2,2023-04-13_05h21.24.660,PRaM,2021.2.3,Win32,60.04563468,61b8f3437b89212fae0dfade
8,7.2355,space,5.723,0,260,260,221,1,,,62349099af33a7e0ca9357f5,6437832ad581372e37b283e2,2023-04-13_05h21.24.660,PRaM,2021.2.3,Win32,60.04563468,61b8f3437b89212fae0dfade
4,6.6618,space,5.0893,0,261,261,104,1,,,62349099af33a7e0ca9357f5,6437832ad581372e37b283e2,2023-04-13_05h21.24.660,PRaM,2021.2.3,Win32,60.04563468,61b8f3437b89212fae0dfade
9,6.4333,space,4.821,0,262,262,366,1,,,62349099af33a7e0ca9357f5,6437832ad581372e37b283e2,2023-04-13_05h21.24.660,PRaM,2021.2.3,Win32,60.04563468,61b8f3437b89212fae0dfade
3,18.2792,space,16.5832,0,263,263,242,1,,,62349099af33a7e0ca9357f5,6437832ad581372e37b283e2,2023-04-13_05h21.24.660,PRaM,2021.2.3,Win32,60.04563468,61b8f3437b89212fae0dfade
1,1.9651,space,0.72,0,264,264,170,1,,,62349099af33a7e0ca9357f5,6437832ad581372e37b283e2,2023-04-13_05h21.24.660,PRaM,2021.2.3,Win32,60.04563468,61b8f3437b89212fae0dfade
6,11.6586,space,10.0195,0,265,265,30,1,,,62349099af33a7e0ca9357f5,6437832ad581372e37b283e2,2023-04-13_05h21.24.660,PRaM,2021.2.3,Win32,60.04563468,61b8f3437b89212fae0dfade
2,7.314,space,7.03,0,266,266,152,1,,,62349099af33a7e0ca9357f5,6437832ad581372e37b283e2,2023-04-13_05h21.24.660,PRaM,2021.2.3,Win32,60.04563468,61b8f3437b89212fae0dfade
7,4.0298,space,2.7246,0,267,267,182,1,,,62349099af33a7e0ca9357f5,6437832ad581372e37b283e2,2023-04-13_05h21.24.660,PRaM,2021.2.3,Win32,60.04563468,61b8f3437b89212fae0dfade
2,3.9457,space,2.2878,0,268,268,44,1,,,62349099af33a7e0ca9357f5,6437832ad581372e37b283e2,2023-04-13_05h21.24.660,PRaM,2021.2.3,Win32,60.04563468,61b8f3437b89212fae0dfade
1,3.3358,space,1.7855,0,269,269,234,1,,,62349099af33a7e0ca9357f5,6437832ad581372e37b283e2,2023-04-13_05h21.24.660,PRaM,2021.2.3,Win32,60.04563468,61b8f3437b89212fae0dfade
3,5.55,space,3.9664,0,270,270,80,1,,,62349099af33a7e0ca9357f5,6437832ad581372e37b283e2,2023-04-13_05h21.24.660,PRaM,2021.2.3,Win32,60.04563468,61b8f3437b89212fae0dfade
6,3.3113,space,1.7531,0,271,271,59,1,,,62349099af33a7e0ca9357f5,6437832ad581372e37b283e2,2023-04-13_05h21.24.660,PRaM,2021.2.3,Win32,60.04563468,61b8f3437b89212fae0dfade
9,2.9748,space,1.4153,0,272,272,168,1,,,62349099af33a7e0ca9357f5,6437832ad581372e37b283e2,2023-04-13_05h21.24.660,PRaM,2021.2.3,Win32,60.04563468,61b8f3437b89212fae0dfade
1,8.3887,space,6.8067,0,273,273,149,1,,,62349099af33a7e0ca9357f5,6437832ad581372e37b283e2,2023-04-13_05h21.24.660,PRaM,2021.2.3,Win32,60.04563468,61b8f3437b89212fae0dfade
9,4.4348,space,2.8406,0,274,274,279,1,,,62349099af33a7e0ca9357f5,6437832ad581372e37b283e2,2023-04-13_05h21.24.660,PRaM,2021.2.3,Win32,60.04563468,61b8f3437b89212fae0dfade
6,4.1921,space,2.4903,0,275,275,301,1,,,62349099af33a7e0ca9357f5,6437832ad581372e37b283e2,2023-04-13_05h21.24.660,PRaM,2021.2.3,Win32,60.04563468,61b8f3437b89212fae0dfade
8,1.9314,space,0.4912,0,276,276,114,1,,,62349099af33a7e0ca9357f5,6437832ad581372e37b283e2,2023-04-13_05h21.24.660,PRaM,2021.2.3,Win32,60.04563468,61b8f3437b89212fae0dfade
2,2.4779,space,0.8714,0,277,277,365,1,,,62349099af33a7e0ca9357f5,6437832ad581372e37b283e2,2023-04-13_05h21.24.660,PRaM,2021.2.3,Win32,60.04563468,61b8f3437b89212fae0dfade
2,4.4168,space,2.7757,0,278,278,201,1,,,62349099af33a7e0ca9357f5,6437832ad581372e37b283e2,2023-04-13_05h21.24.660,PRaM,2021.2.3,Win32,60.04563468,61b8f3437b89212fae0dfade
3,2.5314,space,0.9199,0,279,279,255,1,,,62349099af33a7e0ca9357f5,6437832ad581372e37b283e2,2023-04-13_05h21.24.660,PRaM,2021.2.3,Win32,60.04563468,61b8f3437b89212fae0dfade
2,2.0642,space,0.4144,0,280,280,160,1,,,62349099af33a7e0ca9357f5,6437832ad581372e37b283e2,2023-04-13_05h21.24.660,PRaM,2021.2.3,Win32,60.04563468,61b8f3437b89212fae0dfade
5,4.6969,space,3.671,0,281,281,90,1,,,62349099af33a7e0ca9357f5,6437832ad581372e37b283e2,2023-04-13_05h21.24.660,PRaM,2021.2.3,Win32,60.04563468,61b8f3437b89212fae0dfade
2,3.5496,space,2.1613,0,282,282,244,1,,,62349099af33a7e0ca9357f5,6437832ad581372e37b283e2,2023-04-13_05h21.24.660,PRaM,2021.2.3,Win32,60.04563468,61b8f3437b89212fae0dfade
4,12.7445,space,11.1024,0,283,283,45,1,,,62349099af33a7e0ca9357f5,6437832ad581372e37b283e2,2023-04-13_05h21.24.660,PRaM,2021.2.3,Win32,60.04563468,61b8f3437b89212fae0dfade
4,8.3394,space,6.6954,0,284,284,93,1,,,62349099af33a7e0ca9357f5,6437832ad581372e37b283e2,2023-04-13_05h21.24.660,PRaM,2021.2.3,Win32,60.04563468,61b8f3437b89212fae0dfade
1,2.3949,space,0.8189,0,285,285,356,1,,,62349099af33a7e0ca9357f5,6437832ad581372e37b283e2,2023-04-13_05h21.24.660,PRaM,2021.2.3,Win32,60.04563468,61b8f3437b89212fae0dfade
1,1.6899,space,0.1277,0,286,286,125,1,,,62349099af33a7e0ca9357f5,6437832ad581372e37b283e2,2023-04-13_05h21.24.660,PRaM,2021.2.3,Win32,60.04563468,61b8f3437b89212fae0dfade
1,3.6415,space,2.2274,0,287,287,34,1,,,62349099af33a7e0ca9357f5,6437832ad581372e37b283e2,2023-04-13_05h21.24.660,PRaM,2021.2.3,Win32,60.04563468,61b8f3437b89212fae0dfade
9,2.645,space,1.0846,0,288,288,197,1,,,62349099af33a7e0ca9357f5,6437832ad581372e37b283e2,2023-04-13_05h21.24.660,PRaM,2021.2.3,Win32,60.04563468,61b8f3437b89212fae0dfade
2,5.2802,space,4.0986,0,289,289,349,1,,,62349099af33a7e0ca9357f5,6437832ad581372e37b283e2,2023-04-13_05h21.24.660,PRaM,2021.2.3,Win32,60.04563468,61b8f3437b89212fae0dfade
3,7.9126,space,6.2378,0,290,290,331,1,,,62349099af33a7e0ca9357f5,6437832ad581372e37b283e2,2023-04-13_05h21.24.660,PRaM,2021.2.3,Win32,60.04563468,61b8f3437b89212fae0dfade
2,3.1344,space,1.6084,0,291,291,311,1,,,62349099af33a7e0ca9357f5,6437832ad581372e37b283e2,2023-04-13_05h21.24.660,PRaM,2021.2.3,Win32,60.04563468,61b8f3437b89212fae0dfade
1,3.0999,space,2.1862,0,292,292,318,1,,,62349099af33a7e0ca9357f5,6437832ad581372e37b283e2,2023-04-13_05h21.24.660,PRaM,2021.2.3,Win32,60.04563468,61b8f3437b89212fae0dfade
1,2.2608,space,0.6617,0,293,293,65,1,,,62349099af33a7e0ca9357f5,6437832ad581372e37b283e2,2023-04-13_05h21.24.660,PRaM,2021.2.3,Win32,60.04563468,61b8f3437b89212fae0dfade
7,4.0377,space,2.374,0,294,294,370,1,,,62349099af33a7e0ca9357f5,6437832ad581372e37b283e2,2023-04-13_05h21.24.660,PRaM,2021.2.3,Win32,60.04563468,61b8f3437b89212fae0dfade
2,5.1039,space,3.3232,0,295,295,146,1,,,62349099af33a7e0ca9357f5,6437832ad581372e37b283e2,2023-04-13_05h21.24.660,PRaM,2021.2.3,Win32,60.04563468,61b8f3437b89212fae0dfade
2,3.3242,space,4.7717,0,296,296,110,1,,,62349099af33a7e0ca9357f5,6437832ad581372e37b283e2,2023-04-13_05h21.24.660,PRaM,2021.2.3,Win32,60.04563468,61b8f3437b89212fae0dfade
1,2.4535,space,0.9038,0,297,297,130,1,,,62349099af33a7e0ca9357f5,6437832ad581372e37b283e2,2023-04-13_05h21.24.660,PRaM,2021.2.3,Win32,60.04563468,61b8f3437b89212fae0dfade
1,1.5891,space,0.5183,0,298,298,229,1,,,62349099af33a7e0ca9357f5,6437832ad581372e37b283e2,2023-04-13_05h21.24.660,PRaM,2021.2.3,Win32,60.04563468,61b8f3437b89212fae0dfade
9,2.0764,space,0.4727,0,299,299,276,1,,,62349099af33a7e0ca9357f5,6437832ad581372e37b283e2,2023-04-13_05h21.24.660,PRaM,2021.2.3,Win32,60.04563468,61b8f3437b89212fae0dfade
1,2.9745,space,1.7056,0,300,300,176,1,,,62349099af33a7e0ca9357f5,6437832ad581372e37b283e2,2023-04-13_05h21.24.660,PRaM,2021.2.3,Win32,60.04563468,61b8f3437b89212fae0dfade
2,5.0558,space,3.4212,0,301,301,220,1,,,62349099af33a7e0ca9357f5,6437832ad581372e37b283e2,2023-04-13_05h21.24.660,PRaM,2021.2.3,Win32,60.04563468,61b8f3437b89212fae0dfade
1,2.4379,space,0.8058,0,302,302,267,1,,,62349099af33a7e0ca9357f5,6437832ad581372e37b283e2,2023-04-13_05h21.24.660,PRaM,2021.2.3,Win32,60.04563468,61b8f3437b89212fae0dfade
1,3.9036,space,2.8396,0,303,303,341,1,,,62349099af33a7e0ca9357f5,6437832ad581372e37b283e2,2023-04-13_05h21.24.660,PRaM,2021.2.3,Win32,60.04563468,61b8f3437b89212fae0dfade
1,2.7169,space,1.1233,0,304,304,358,1,,,62349099af33a7e0ca9357f5,6437832ad581372e37b283e2,2023-04-13_05h21.24.660,PRaM,2021.2.3,Win32,60.04563468,61b8f3437b89212fae0dfade
1,1.627,space,0.0193,0,305,305,129,1,,,62349099af33a7e0ca9357f5,6437832ad581372e37b283e2,2023-04-13_05h21.24.660,PRaM,2021.2.3,Win32,60.04563468,61b8f3437b89212fae0dfade
8,9.1736,space,7.6788,0,306,306,3,1,,,62349099af33a7e0ca9357f5,6437832ad581372e37b283e2,2023-04-13_05h21.24.660,PRaM,2021.2.3,Win32,60.04563468,61b8f3437b89212fae0dfade
1,2.5616,space,1.0407,0,307,307,237,1,,,62349099af33a7e0ca9357f5,6437832ad581372e37b283e2,2023-04-13_05h21.24.660,PRaM,2021.2.3,Win32,60.04563468,61b8f3437b89212fae0dfade
5,8.7128,space,6.9958,0,308,308,47,1,,,62349099af33a7e0ca9357f5,6437832ad581372e37b283e2,2023-04-13_05h21.24.660,PRaM,2021.2.3,Win32,60.04563468,61b8f3437b89212fae0dfade
4,4.1297,space,2.4612,0,309,309,40,1,,,62349099af33a7e0ca9357f5,6437832ad581372e37b283e2,2023-04-13_05h21.24.660,PRaM,2021.2.3,Win32,60.04563468,61b8f3437b89212fae0dfade
3,2.8112,space,1.4939,0,310,310,208,1,,,62349099af33a7e0ca9357f5,6437832ad581372e37b283e2,2023-04-13_05h21.24.660,PRaM,2021.2.3,Win32,60.04563468,61b8f3437b89212fae0dfade
2,2.3077,space,5.6906,0,311,311,290,1,,,62349099af33a7e0ca9357f5,6437832ad581372e37b283e2,2023-04-13_05h21.24.660,PRaM,2021.2.3,Win32,60.04563468,61b8f3437b89212fae0dfade
2,7.3723,space,7.25,0,312,312,355,1,,,62349099af33a7e0ca9357f5,6437832ad581372e37b283e2,2023-04-13_05h21.24.660,PRaM,2021.2.3,Win32,60.04563468,61b8f3437b89212fae0dfade
4,5.8536,space,4.1059,0,313,313,142,1,,,62349099af33a7e0ca9357f5,6437832ad581372e37b283e2,2023-04-13_05h21.24.660,PRaM,2021.2.3,Win32,60.04563468,61b8f3437b89212fae0dfade
9,5.004,space,6.0298,0,314,314,302,1,,,62349099af33a7e0ca9357f5,6437832ad581372e37b283e2,2023-04-13_05h21.24.660,PRaM,2021.2.3,Win32,60.04563468,61b8f3437b89212fae0dfade
5,4.633,space,2.8925,0,315,315,60,1,,,62349099af33a7e0ca9357f5,6437832ad581372e37b283e2,2023-04-13_05h21.24.660,PRaM,2021.2.3,Win32,60.04563468,61b8f3437b89212fae0dfade
1,2.6,space,0.9394,0,316,316,96,1,,,62349099af33a7e0ca9357f5,6437832ad581372e37b283e2,2023-04-13_05h21.24.660,PRaM,2021.2.3,Win32,60.04563468,61b8f3437b89212fae0dfade
1,1.3792,space,0.3177,0,317,317,262,1,,,62349099af33a7e0ca9357f5,6437832ad581372e37b283e2,2023-04-13_05h21.24.660,PRaM,2021.2.3,Win32,60.04563468,61b8f3437b89212fae0dfade
2,3.3153,space,1.6978,0,318,318,148,1,,,62349099af33a7e0ca9357f5,6437832ad581372e37b283e2,2023-04-13_05h21.24.660,PRaM,2021.2.3,Win32,60.04563468,61b8f3437b89212fae0dfade
2,6.0188,space,8.719,0,319,319,282,1,,,62349099af33a7e0ca9357f5,6437832ad581372e37b283e2,2023-04-13_05h21.24.660,PRaM,2021.2.3,Win32,60.04563468,61b8f3437b89212fae0dfade
7,5.7932,space,4.1423,0,320,320,83,1,,,62349099af33a7e0ca9357f5,6437832ad581372e37b283e2,2023-04-13_05h21.24.660,PRaM,2021.2.3,Win32,60.04563468,61b8f3437b89212fae0dfade
1,2.1606,space,0.4964,0,321,321,133,1,,,62349099af33a7e0ca9357f5,6437832ad581372e37b283e2,2023-04-13_05h21.24.660,PRaM,2021.2.3,Win32,60.04563468,61b8f3437b89212fae0dfade
1,1.3304,space,0.2341,0,322,322,272,1,,,62349099af33a7e0ca9357f5,6437832ad581372e37b283e2,2023-04-13_05h21.24.660,PRaM,2021.2.3,Win32,60.04563468,61b8f3437b89212fae0dfade
1,1.7322,space,0.0953,0,323,323,232,1,,,62349099af33a7e0ca9357f5,6437832ad581372e37b283e2,2023-04-13_05h21.24.660,PRaM,2021.2.3,Win32,60.04563468,61b8f3437b89212fae0dfade
7,5.7542,space,4.1213,0,324,324,192,1,,,62349099af33a7e0ca9357f5,6437832ad581372e37b283e2,2023-04-13_05h21.24.660,PRaM,2021.2.3,Win32,60.04563468,61b8f3437b89212fae0dfade
6,2.5344,space,1.1576,0,325,325,199,1,,,62349099af33a7e0ca9357f5,6437832ad581372e37b283e2,2023-04-13_05h21.24.660,PRaM,2021.2.3,Win32,60.04563468,61b8f3437b89212fae0dfade
2,4.3669,space,2.92,0,326,326,333,1,,,62349099af33a7e0ca9357f5,6437832ad581372e37b283e2,2023-04-13_05h21.24.660,PRaM,2021.2.3,Win32,60.04563468,61b8f3437b89212fae0dfade
2,4.0123,space,3.0415,0,327,327,37,1,,,62349099af33a7e0ca9357f5,6437832ad581372e37b283e2,2023-04-13_05h21.24.660,PRaM,2021.2.3,Win32,60.04563468,61b8f3437b89212fae0dfade
3,3.8689,space,2.2403,0,328,328,29,1,,,62349099af33a7e0ca9357f5,6437832ad581372e37b283e2,2023-04-13_05h21.24.660,PRaM,2021.2.3,Win32,60.04563468,61b8f3437b89212fae0dfade
2,2.2268,space,1.1894,0,329,329,193,1,,,62349099af33a7e0ca9357f5,6437832ad581372e37b283e2,2023-04-13_05h21.24.660,PRaM,2021.2.3,Win32,60.04563468,61b8f3437b89212fae0dfade
3,13.9799,space,12.1872,0,330,330,195,1,,,62349099af33a7e0ca9357f5,6437832ad581372e37b283e2,2023-04-13_05h21.24.660,PRaM,2021.2.3,Win32,60.04563468,61b8f3437b89212fae0dfade
1,2.2285,space,0.714,0,331,331,109,1,,,62349099af33a7e0ca9357f5,6437832ad581372e37b283e2,2023-04-13_05h21.24.660,PRaM,2021.2.3,Win32,60.04563468,61b8f3437b89212fae0dfade
2,7.2535,space,5.6094,0,332,332,69,1,,,62349099af33a7e0ca9357f5,6437832ad581372e37b283e2,2023-04-13_05h21.24.660,PRaM,2021.2.3,Win32,60.04563468,61b8f3437b89212fae0dfade
6,2.2267,space,0.5844,0,333,333,326,1,,,62349099af33a7e0ca9357f5,6437832ad581372e37b283e2,2023-04-13_05h21.24.660,PRaM,2021.2.3,Win32,60.04563468,61b8f3437b89212fae0dfade
6,2.9822,space,1.2894,0,334,334,166,1,,,62349099af33a7e0ca9357f5,6437832ad581372e37b283e2,2023-04-13_05h21.24.660,PRaM,2021.2.3,Win32,60.04563468,61b8f3437b89212fae0dfade
2,2.6065,space,0.9889,0,335,335,292,1,,,62349099af33a7e0ca9357f5,6437832ad581372e37b283e2,2023-04-13_05h21.24.660,PRaM,2021.2.3,Win32,60.04563468,61b8f3437b89212fae0dfade
2,2.0509,space,0.3723,0,336,336,228,1,,,62349099af33a7e0ca9357f5,6437832ad581372e37b283e2,2023-04-13_05h21.24.660,PRaM,2021.2.3,Win32,60.04563468,61b8f3437b89212fae0dfade
2,1.7726,space,1.1591,0,337,337,76,1,,,62349099af33a7e0ca9357f5,6437832ad581372e37b283e2,2023-04-13_05h21.24.660,PRaM,2021.2.3,Win32,60.04563468,61b8f3437b89212fae0dfade
2,5.8278,space,4.1996,0,338,338,116,1,,,62349099af33a7e0ca9357f5,6437832ad581372e37b283e2,2023-04-13_05h21.24.660,PRaM,2021.2.3,Win32,60.04563468,61b8f3437b89212fae0dfade
1,3.5436,space,1.9193,0,339,339,260,1,,,62349099af33a7e0ca9357f5,6437832ad581372e37b283e2,2023-04-13_05h21.24.660,PRaM,2021.2.3,Win32,60.04563468,61b8f3437b89212fae0dfade
2,3.3089,space,1.5775,0,340,340,163,1,,,62349099af33a7e0ca9357f5,6437832ad581372e37b283e2,2023-04-13_05h21.24.660,PRaM,2021.2.3,Win32,60.04563468,61b8f3437b89212fae0dfade
1,2.0908,space,0.5539,0,341,341,113,1,,,62349099af33a7e0ca9357f5,6437832ad581372e37b283e2,2023-04-13_05h21.24.660,PRaM,2021.2.3,Win32,60.04563468,61b8f3437b89212fae0dfade
4,7.6833,space,5.9353,0,342,342,86,1,,,62349099af33a7e0ca9357f5,6437832ad581372e37b283e2,2023-04-13_05h21.24.660,PRaM,2021.2.3,Win32,60.04563468,61b8f3437b89212fae0dfade
2,3.1007,space,1.5022,0,343,343,339,1,,,62349099af33a7e0ca9357f5,6437832ad581372e37b283e2,2023-04-13_05h21.24.660,PRaM,2021.2.3,Win32,60.04563468,61b8f3437b89212fae0dfade
2,2.2466,space,0.4887,0,344,344,294,1,,,62349099af33a7e0ca9357f5,6437832ad581372e37b283e2,2023-04-13_05h21.24.660,PRaM,2021.2.3,Win32,60.04563468,61b8f3437b89212fae0dfade
9,7.6795,space,10.1013,0,345,345,372,1,,,62349099af33a7e0ca9357f5,6437832ad581372e37b283e2,2023-04-13_05h21.24.660,PRaM,2021.2.3,Win32,60.04563468,61b8f3437b89212fae0dfade
7,7.4056,space,5.8646,0,346,346,147,1,,,62349099af33a7e0ca9357f5,6437832ad581372e37b283e2,2023-04-13_05h21.24.660,PRaM,2021.2.3,Win32,60.04563468,61b8f3437b89212fae0dfade
2,2.7761,space,0.9519,0,347,347,371,1,,,62349099af33a7e0ca9357f5,6437832ad581372e37b283e2,2023-04-13_05h21.24.660,PRaM,2021.2.3,Win32,60.04563468,61b8f3437b89212fae0dfade
9,4.415,space,2.672,0,348,348,325,1,,,62349099af33a7e0ca9357f5,6437832ad581372e37b283e2,2023-04-13_05h21.24.660,PRaM,2021.2.3,Win32,60.04563468,61b8f3437b89212fae0dfade
6,46.3749,space,45.1839,0,349,349,173,1,,,62349099af33a7e0ca9357f5,6437832ad581372e37b283e2,2023-04-13_05h21.24.660,PRaM,2021.2.3,Win32,60.04563468,61b8f3437b89212fae0dfade
6,7.732,space,6.0899,0,350,350,239,1,,,62349099af33a7e0ca9357f5,6437832ad581372e37b283e2,2023-04-13_05h21.24.660,PRaM,2021.2.3,Win32,60.04563468,61b8f3437b89212fae0dfade
1,1.8429,space,0.2386,0,351,351,108,1,,,62349099af33a7e0ca9357f5,6437832ad581372e37b283e2,2023-04-13_05h21.24.660,PRaM,2021.2.3,Win32,60.04563468,61b8f3437b89212fae0dfade
6,2.8746,space,1.1188,0,352,352,43,1,,,62349099af33a7e0ca9357f5,6437832ad581372e37b283e2,2023-04-13_05h21.24.660,PRaM,2021.2.3,Win32,60.04563468,61b8f3437b89212fae0dfade
1,2.115,space,0.4382,0,353,353,24,1,,,62349099af33a7e0ca9357f5,6437832ad581372e37b283e2,2023-04-13_05h21.24.660,PRaM,2021.2.3,Win32,60.04563468,61b8f3437b89212fae0dfade
5,5.5026,space,3.628,0,354,354,291,1,,,62349099af33a7e0ca9357f5,6437832ad581372e37b283e2,2023-04-13_05h21.24.660,PRaM,2021.2.3,Win32,60.04563468,61b8f3437b89212fae0dfade
1,1.8228,space,0.2221,0,355,355,266,1,,,62349099af33a7e0ca9357f5,6437832ad581372e37b283e2,2023-04-13_05h21.24.660,PRaM,2021.2.3,Win32,60.04563468,61b8f3437b89212fae0dfade
2,4.3129,space,2.5909,0,356,356,51,1,,,62349099af33a7e0ca9357f5,6437832ad581372e37b283e2,2023-04-13_05h21.24.660,PRaM,2021.2.3,Win32,60.04563468,61b8f3437b89212fae0dfade
1,2.6651,space,1.0269,0,357,357,249,1,,,62349099af33a7e0ca9357f5,6437832ad581372e37b283e2,2023-04-13_05h21.24.660,PRaM,2021.2.3,Win32,60.04563468,61b8f3437b89212fae0dfade
1,5.4123,space,4.8626,0,358,358,155,1,,,62349099af33a7e0ca9357f5,6437832ad581372e37b283e2,2023-04-13_05h21.24.660,PRaM,2021.2.3,Win32,60.04563468,61b8f3437b89212fae0dfade
1,1.8269,space,1.0931,0,359,359,357,1,,,62349099af33a7e0ca9357f5,6437832ad581372e37b283e2,2023-04-13_05h21.24.660,PRaM,2021.2.3,Win32,60.04563468,61b8f3437b89212fae0dfade
2,3.2453,space,1.5355,0,360,360,63,1,,,62349099af33a7e0ca9357f5,6437832ad581372e37b283e2,2023-04-13_05h21.24.660,PRaM,2021.2.3,Win32,60.04563468,61b8f3437b89212fae0dfade
1,1.7303,space,0.0415,0,361,361,275,1,,,62349099af33a7e0ca9357f5,6437832ad581372e37b283e2,2023-04-13_05h21.24.660,PRaM,2021.2.3,Win32,60.04563468,61b8f3437b89212fae0dfade
1,1.8348,space,0.1177,0,362,362,81,1,,,62349099af33a7e0ca9357f5,6437832ad581372e37b283e2,2023-04-13_05h21.24.660,PRaM,2021.2.3,Win32,60.04563468,61b8f3437b89212fae0dfade
7,2.3443,space,0.5391,0,363,363,196,1,,,62349099af33a7e0ca9357f5,6437832ad581372e37b283e2,2023-04-13_05h21.24.660,PRaM,2021.2.3,Win32,60.04563468,61b8f3437b89212fae0dfade
4,3.4954,space,1.7515,0,364,364,297,1,,,62349099af33a7e0ca9357f5,6437832ad581372e37b283e2,2023-04-13_05h21.24.660,PRaM,2021.2.3,Win32,60.04563468,61b8f3437b89212fae0dfade
1,2.4295,space,0.829,0,365,365,121,1,,,62349099af33a7e0ca9357f5,6437832ad581372e37b283e2,2023-04-13_05h21.24.660,PRaM,2021.2.3,Win32,60.04563468,61b8f3437b89212fae0dfade
4,5.2634,space,3.6893,0,366,366,209,1,,,62349099af33a7e0ca9357f5,6437832ad581372e37b283e2,2023-04-13_05h21.24.660,PRaM,2021.2.3,Win32,60.04563468,61b8f3437b89212fae0dfade
1,3.5774,space,1.9201,0,367,367,128,1,,,62349099af33a7e0ca9357f5,6437832ad581372e37b283e2,2023-04-13_05h21.24.660,PRaM,2021.2.3,Win32,60.04563468,61b8f3437b89212fae0dfade
5,47.3946,space,45.7469,0,368,368,198,1,,,62349099af33a7e0ca9357f5,6437832ad581372e37b283e2,2023-04-13_05h21.24.660,PRaM,2021.2.3,Win32,60.04563468,61b8f3437b89212fae0dfade
1,4.9417,space,5.3399,0,369,369,359,1,,,62349099af33a7e0ca9357f5,6437832ad581372e37b283e2,2023-04-13_05h21.24.660,PRaM,2021.2.3,Win32,60.04563468,61b8f3437b89212fae0dfade
1,15.5375,space,14.7901,0,370,370,310,1,,,62349099af33a7e0ca9357f5,6437832ad581372e37b283e2,2023-04-13_05h21.24.660,PRaM,2021.2.3,Win32,60.04563468,61b8f3437b89212fae0dfade
2,3.5951,space,1.9864,0,371,371,353,1,,,62349099af33a7e0ca9357f5,6437832ad581372e37b283e2,2023-04-13_05h21.24.660,PRaM,2021.2.3,Win32,60.04563468,61b8f3437b89212fae0dfade
2,5.2292,space,3.6095,0,372,372,21,1,,,62349099af33a7e0ca9357f5,6437832ad581372e37b283e2,2023-04-13_05h21.24.660,PRaM,2021.2.3,Win32,60.04563468,61b8f3437b89212fae0dfade
4,3.8843,space,2.0858,0,373,373,285,1,,,62349099af33a7e0ca9357f5,6437832ad581372e37b283e2,2023-04-13_05h21.24.660,PRaM,2021.2.3,Win32,60.04563468,61b8f3437b89212fae0dfade
2,5.2791,space,3.5943,0,374,374,219,1,,,62349099af33a7e0ca9357f5,6437832ad581372e37b283e2,2023-04-13_05h21.24.660,PRaM,2021.2.3,Win32,60.04563468,61b8f3437b89212fae0dfade
4,2.1432,space,2.0145,0,375,375,280,1,,,62349099af33a7e0ca9357f5,6437832ad581372e37b283e2,2023-04-13_05h21.24.660,PRaM,2021.2.3,Win32,60.04563468,61b8f3437b89212fae0dfade
2,4.8834,space,3.6495,0,376,376,164,1,,,62349099af33a7e0ca9357f5,6437832ad581372e37b283e2,2023-04-13_05h21.24.660,PRaM,2021.2.3,Win32,60.04563468,61b8f3437b89212fae0dfade
1,8.0879,space,6.3978,0,377,377,0,1,,,62349099af33a7e0ca9357f5,6437832ad581372e37b283e2,2023-04-13_05h21.24.660,PRaM,2021.2.3,Win32,60.04563468,61b8f3437b89212fae0dfade
