Rating.response,Rating.rt,EndTrial.keys,EndTrial.rt,trials.thisRepN,trials.thisTrialN,trials.thisN,trials.thisIndex,trials.ran,Pos1,Pos2,participant,session,date,expName,psychopyVersion,OS,frameRate,study_id
3,9.4339,space,8.6238,0,0,0,168,1,,,62cc1f77c32651ff9d35a471,6438a33c633416ac5039789a,2023-04-13_20h50.35.258,PRaM,2021.2.3,Win32,59.98080614,61b8f3437b89212fae0dfadf
1,3.5066,space,1.9575,0,1,1,330,1,,,62cc1f77c32651ff9d35a471,6438a33c633416ac5039789a,2023-04-13_20h50.35.258,PRaM,2021.2.3,Win32,59.98080614,61b8f3437b89212fae0dfadf
1,2.3173,space,0.71,0,2,2,220,1,,,62cc1f77c32651ff9d35a471,6438a33c633416ac5039789a,2023-04-13_20h50.35.258,PRaM,2021.2.3,Win32,59.98080614,61b8f3437b89212fae0dfadf
4,1.9194,space,0.3784,0,3,3,36,1,,,62cc1f77c32651ff9d35a471,6438a33c633416ac5039789a,2023-04-13_20h50.35.258,PRaM,2021.2.3,Win32,59.98080614,61b8f3437b89212fae0dfadf
8,1.9074,space,0.3477,0,4,4,114,1,,,62cc1f77c32651ff9d35a471,6438a33c633416ac5039789a,2023-04-13_20h50.35.258,PRaM,2021.2.3,Win32,59.98080614,61b8f3437b89212fae0dfadf
9,1.859,space,0.1713,0,5,5,323,1,,,62cc1f77c32651ff9d35a471,6438a33c633416ac5039789a,2023-04-13_20h50.35.258,PRaM,2021.2.3,Win32,59.98080614,61b8f3437b89212fae0dfadf
2,2.1536,space,0.5556,0,6,6,161,1,,,62cc1f77c32651ff9d35a471,6438a33c633416ac5039789a,2023-04-13_20h50.35.258,PRaM,2021.2.3,Win32,59.98080614,61b8f3437b89212fae0dfadf
3,39.1221,space,37.5387,0,7,7,286,1,,,62cc1f77c32651ff9d35a471,6438a33c633416ac5039789a,2023-04-13_20h50.35.258,PRaM,2021.2.3,Win32,59.98080614,61b8f3437b89212fae0dfadf
2,3.6625,space,2.0763,0,8,8,215,1,,,62cc1f77c32651ff9d35a471,6438a33c633416ac5039789a,2023-04-13_20h50.35.258,PRaM,2021.2.3,Win32,59.98080614,61b8f3437b89212fae0dfadf
1,3.3965,space,1.7926,0,9,9,58,1,,,62cc1f77c32651ff9d35a471,6438a33c633416ac5039789a,2023-04-13_20h50.35.258,PRaM,2021.2.3,Win32,59.98080614,61b8f3437b89212fae0dfadf
1,2.4885,space,0.6072,0,10,10,272,1,,,62cc1f77c32651ff9d35a471,6438a33c633416ac5039789a,2023-04-13_20h50.35.258,PRaM,2021.2.3,Win32,59.98080614,61b8f3437b89212fae0dfadf
6,2.4617,space,0.6068,0,11,11,47,1,,,62cc1f77c32651ff9d35a471,6438a33c633416ac5039789a,2023-04-13_20h50.35.258,PRaM,2021.2.3,Win32,59.98080614,61b8f3437b89212fae0dfadf
7,2.682,space,1.0062,0,12,12,197,1,,,62cc1f77c32651ff9d35a471,6438a33c633416ac5039789a,2023-04-13_20h50.35.258,PRaM,2021.2.3,Win32,59.98080614,61b8f3437b89212fae0dfadf
1,2.1991,space,0.4141,0,13,13,273,1,,,62cc1f77c32651ff9d35a471,6438a33c633416ac5039789a,2023-04-13_20h50.35.258,PRaM,2021.2.3,Win32,59.98080614,61b8f3437b89212fae0dfadf
3,9.6911,space,8.0222,0,14,14,33,1,,,62cc1f77c32651ff9d35a471,6438a33c633416ac5039789a,2023-04-13_20h50.35.258,PRaM,2021.2.3,Win32,59.98080614,61b8f3437b89212fae0dfadf
1,2.1048,space,0.2608,0,15,15,329,1,,,62cc1f77c32651ff9d35a471,6438a33c633416ac5039789a,2023-04-13_20h50.35.258,PRaM,2021.2.3,Win32,59.98080614,61b8f3437b89212fae0dfadf
7,2.2463,space,0.4968,0,16,16,134,1,,,62cc1f77c32651ff9d35a471,6438a33c633416ac5039789a,2023-04-13_20h50.35.258,PRaM,2021.2.3,Win32,59.98080614,61b8f3437b89212fae0dfadf
8,2.0048,space,0.164,0,17,17,186,1,,,62cc1f77c32651ff9d35a471,6438a33c633416ac5039789a,2023-04-13_20h50.35.258,PRaM,2021.2.3,Win32,59.98080614,61b8f3437b89212fae0dfadf
1,1.9526,space,0.1875,0,18,18,359,1,,,62cc1f77c32651ff9d35a471,6438a33c633416ac5039789a,2023-04-13_20h50.35.258,PRaM,2021.2.3,Win32,59.98080614,61b8f3437b89212fae0dfadf
7,1.757,space,0.0443,0,19,19,19,1,,,62cc1f77c32651ff9d35a471,6438a33c633416ac5039789a,2023-04-13_20h50.35.258,PRaM,2021.2.3,Win32,59.98080614,61b8f3437b89212fae0dfadf
7,1.5918,space,1.5701,0,20,20,357,1,,,62cc1f77c32651ff9d35a471,6438a33c633416ac5039789a,2023-04-13_20h50.35.258,PRaM,2021.2.3,Win32,59.98080614,61b8f3437b89212fae0dfadf
2,2.018,space,15.9572,0,21,21,99,1,,,62cc1f77c32651ff9d35a471,6438a33c633416ac5039789a,2023-04-13_20h50.35.258,PRaM,2021.2.3,Win32,59.98080614,61b8f3437b89212fae0dfadf
1,1.9552,space,0.8039,0,22,22,18,1,,,62cc1f77c32651ff9d35a471,6438a33c633416ac5039789a,2023-04-13_20h50.35.258,PRaM,2021.2.3,Win32,59.98080614,61b8f3437b89212fae0dfadf
6,1.4924,space,0.7649,0,23,23,117,1,,,62cc1f77c32651ff9d35a471,6438a33c633416ac5039789a,2023-04-13_20h50.35.258,PRaM,2021.2.3,Win32,59.98080614,61b8f3437b89212fae0dfadf
2,2.4117,space,0.8441,0,24,24,164,1,,,62cc1f77c32651ff9d35a471,6438a33c633416ac5039789a,2023-04-13_20h50.35.258,PRaM,2021.2.3,Win32,59.98080614,61b8f3437b89212fae0dfadf
2,2.2015,space,0.3388,0,25,25,353,1,,,62cc1f77c32651ff9d35a471,6438a33c633416ac5039789a,2023-04-13_20h50.35.258,PRaM,2021.2.3,Win32,59.98080614,61b8f3437b89212fae0dfadf
2,2.4284,space,0.5809,0,26,26,310,1,,,62cc1f77c32651ff9d35a471,6438a33c633416ac5039789a,2023-04-13_20h50.35.258,PRaM,2021.2.3,Win32,59.98080614,61b8f3437b89212fae0dfadf
1,2.3681,space,0.6772,0,27,27,209,1,,,62cc1f77c32651ff9d35a471,6438a33c633416ac5039789a,2023-04-13_20h50.35.258,PRaM,2021.2.3,Win32,59.98080614,61b8f3437b89212fae0dfadf
6,1.8424,space,0.009,0,28,28,311,1,,,62cc1f77c32651ff9d35a471,6438a33c633416ac5039789a,2023-04-13_20h50.35.258,PRaM,2021.2.3,Win32,59.98080614,61b8f3437b89212fae0dfadf
2,2.5401,space,0.7278,0,29,29,268,1,,,62cc1f77c32651ff9d35a471,6438a33c633416ac5039789a,2023-04-13_20h50.35.258,PRaM,2021.2.3,Win32,59.98080614,61b8f3437b89212fae0dfadf
7,1.6917,space,0.7234,0,30,30,370,1,,,62cc1f77c32651ff9d35a471,6438a33c633416ac5039789a,2023-04-13_20h50.35.258,PRaM,2021.2.3,Win32,59.98080614,61b8f3437b89212fae0dfadf
2,1.8713,space,0.3016,0,31,31,139,1,,,62cc1f77c32651ff9d35a471,6438a33c633416ac5039789a,2023-04-13_20h50.35.258,PRaM,2021.2.3,Win32,59.98080614,61b8f3437b89212fae0dfadf
3,1.6761,space,0.6958,0,32,32,222,1,,,62cc1f77c32651ff9d35a471,6438a33c633416ac5039789a,2023-04-13_20h50.35.258,PRaM,2021.2.3,Win32,59.98080614,61b8f3437b89212fae0dfadf
3,2.1253,space,0.5214,0,33,33,377,1,,,62cc1f77c32651ff9d35a471,6438a33c633416ac5039789a,2023-04-13_20h50.35.258,PRaM,2021.2.3,Win32,59.98080614,61b8f3437b89212fae0dfadf
6,3.5587,space,1.7686,0,34,34,125,1,,,62cc1f77c32651ff9d35a471,6438a33c633416ac5039789a,2023-04-13_20h50.35.258,PRaM,2021.2.3,Win32,59.98080614,61b8f3437b89212fae0dfadf
8,1.5848,space,0.1186,0,35,35,253,1,,,62cc1f77c32651ff9d35a471,6438a33c633416ac5039789a,2023-04-13_20h50.35.258,PRaM,2021.2.3,Win32,59.98080614,61b8f3437b89212fae0dfadf
6,1.6066,space,0.0172,0,36,36,228,1,,,62cc1f77c32651ff9d35a471,6438a33c633416ac5039789a,2023-04-13_20h50.35.258,PRaM,2021.2.3,Win32,59.98080614,61b8f3437b89212fae0dfadf
4,1.3196,space,0.3912,0,37,37,243,1,,,62cc1f77c32651ff9d35a471,6438a33c633416ac5039789a,2023-04-13_20h50.35.258,PRaM,2021.2.3,Win32,59.98080614,61b8f3437b89212fae0dfadf
5,2.8053,space,1.2552,0,38,38,62,1,,,62cc1f77c32651ff9d35a471,6438a33c633416ac5039789a,2023-04-13_20h50.35.258,PRaM,2021.2.3,Win32,59.98080614,61b8f3437b89212fae0dfadf
,,space,6.7505,0,39,39,127,1,,,62cc1f77c32651ff9d35a471,6438a33c633416ac5039789a,2023-04-13_20h50.35.258,PRaM,2021.2.3,Win32,59.98080614,61b8f3437b89212fae0dfadf
2,1.9689,space,0.4697,0,40,40,224,1,,,62cc1f77c32651ff9d35a471,6438a33c633416ac5039789a,2023-04-13_20h50.35.258,PRaM,2021.2.3,Win32,59.98080614,61b8f3437b89212fae0dfadf
6,28.9348,space,27.2928,0,41,41,44,1,,,62cc1f77c32651ff9d35a471,6438a33c633416ac5039789a,2023-04-13_20h50.35.258,PRaM,2021.2.3,Win32,59.98080614,61b8f3437b89212fae0dfadf
3,4.0637,space,2.4245,0,42,42,229,1,,,62cc1f77c32651ff9d35a471,6438a33c633416ac5039789a,2023-04-13_20h50.35.258,PRaM,2021.2.3,Win32,59.98080614,61b8f3437b89212fae0dfadf
7,3.9376,space,2.3114,0,43,43,187,1,,,62cc1f77c32651ff9d35a471,6438a33c633416ac5039789a,2023-04-13_20h50.35.258,PRaM,2021.2.3,Win32,59.98080614,61b8f3437b89212fae0dfadf
2,1.7482,space,0.6981,0,44,44,298,1,,,62cc1f77c32651ff9d35a471,6438a33c633416ac5039789a,2023-04-13_20h50.35.258,PRaM,2021.2.3,Win32,59.98080614,61b8f3437b89212fae0dfadf
3,2.7746,space,1.1242,0,45,45,199,1,,,62cc1f77c32651ff9d35a471,6438a33c633416ac5039789a,2023-04-13_20h50.35.258,PRaM,2021.2.3,Win32,59.98080614,61b8f3437b89212fae0dfadf
1,3.8791,space,2.1921,0,46,46,374,1,,,62cc1f77c32651ff9d35a471,6438a33c633416ac5039789a,2023-04-13_20h50.35.258,PRaM,2021.2.3,Win32,59.98080614,61b8f3437b89212fae0dfadf
3,2.0867,space,0.4323,0,47,47,146,1,,,62cc1f77c32651ff9d35a471,6438a33c633416ac5039789a,2023-04-13_20h50.35.258,PRaM,2021.2.3,Win32,59.98080614,61b8f3437b89212fae0dfadf
1,2.7388,space,0.8372,0,48,48,109,1,,,62cc1f77c32651ff9d35a471,6438a33c633416ac5039789a,2023-04-13_20h50.35.258,PRaM,2021.2.3,Win32,59.98080614,61b8f3437b89212fae0dfadf
1,2.3375,space,0.4589,0,49,49,338,1,,,62cc1f77c32651ff9d35a471,6438a33c633416ac5039789a,2023-04-13_20h50.35.258,PRaM,2021.2.3,Win32,59.98080614,61b8f3437b89212fae0dfadf
1,1.8515,space,0.9038,0,50,50,35,1,,,62cc1f77c32651ff9d35a471,6438a33c633416ac5039789a,2023-04-13_20h50.35.258,PRaM,2021.2.3,Win32,59.98080614,61b8f3437b89212fae0dfadf
3,1.7019,space,0.4514,0,51,51,312,1,,,62cc1f77c32651ff9d35a471,6438a33c633416ac5039789a,2023-04-13_20h50.35.258,PRaM,2021.2.3,Win32,59.98080614,61b8f3437b89212fae0dfadf
7,2.3639,space,0.6704,0,52,52,255,1,,,62cc1f77c32651ff9d35a471,6438a33c633416ac5039789a,2023-04-13_20h50.35.258,PRaM,2021.2.3,Win32,59.98080614,61b8f3437b89212fae0dfadf
3,2.5028,space,0.8665,0,53,53,262,1,,,62cc1f77c32651ff9d35a471,6438a33c633416ac5039789a,2023-04-13_20h50.35.258,PRaM,2021.2.3,Win32,59.98080614,61b8f3437b89212fae0dfadf
7,2.2419,space,0.6676,0,54,54,140,1,,,62cc1f77c32651ff9d35a471,6438a33c633416ac5039789a,2023-04-13_20h50.35.258,PRaM,2021.2.3,Win32,59.98080614,61b8f3437b89212fae0dfadf
1,2.187,space,0.4858,0,55,55,68,1,,,62cc1f77c32651ff9d35a471,6438a33c633416ac5039789a,2023-04-13_20h50.35.258,PRaM,2021.2.3,Win32,59.98080614,61b8f3437b89212fae0dfadf
7,2.0875,space,0.3532,0,56,56,60,1,,,62cc1f77c32651ff9d35a471,6438a33c633416ac5039789a,2023-04-13_20h50.35.258,PRaM,2021.2.3,Win32,59.98080614,61b8f3437b89212fae0dfadf
1,3.5159,space,2.0255,0,57,57,63,1,,,62cc1f77c32651ff9d35a471,6438a33c633416ac5039789a,2023-04-13_20h50.35.258,PRaM,2021.2.3,Win32,59.98080614,61b8f3437b89212fae0dfadf
1,2.4541,space,0.7849,0,58,58,251,1,,,62cc1f77c32651ff9d35a471,6438a33c633416ac5039789a,2023-04-13_20h50.35.258,PRaM,2021.2.3,Win32,59.98080614,61b8f3437b89212fae0dfadf
8,2.1294,space,0.5923,0,59,59,337,1,,,62cc1f77c32651ff9d35a471,6438a33c633416ac5039789a,2023-04-13_20h50.35.258,PRaM,2021.2.3,Win32,59.98080614,61b8f3437b89212fae0dfadf
9,2.2581,space,0.6392,0,60,60,17,1,,,62cc1f77c32651ff9d35a471,6438a33c633416ac5039789a,2023-04-13_20h50.35.258,PRaM,2021.2.3,Win32,59.98080614,61b8f3437b89212fae0dfadf
1,1.7754,space,0.1491,0,61,61,225,1,,,62cc1f77c32651ff9d35a471,6438a33c633416ac5039789a,2023-04-13_20h50.35.258,PRaM,2021.2.3,Win32,59.98080614,61b8f3437b89212fae0dfadf
1,2.4151,space,0.7345,0,62,62,34,1,,,62cc1f77c32651ff9d35a471,6438a33c633416ac5039789a,2023-04-13_20h50.35.258,PRaM,2021.2.3,Win32,59.98080614,61b8f3437b89212fae0dfadf
3,1.8018,space,0.1211,0,63,63,106,1,,,62cc1f77c32651ff9d35a471,6438a33c633416ac5039789a,2023-04-13_20h50.35.258,PRaM,2021.2.3,Win32,59.98080614,61b8f3437b89212fae0dfadf
4,2.4677,space,0.8352,0,64,64,322,1,,,62cc1f77c32651ff9d35a471,6438a33c633416ac5039789a,2023-04-13_20h50.35.258,PRaM,2021.2.3,Win32,59.98080614,61b8f3437b89212fae0dfadf
6,2.1492,space,0.4182,0,65,65,284,1,,,62cc1f77c32651ff9d35a471,6438a33c633416ac5039789a,2023-04-13_20h50.35.258,PRaM,2021.2.3,Win32,59.98080614,61b8f3437b89212fae0dfadf
9,2.7747,space,1.1105,0,66,66,352,1,,,62cc1f77c32651ff9d35a471,6438a33c633416ac5039789a,2023-04-13_20h50.35.258,PRaM,2021.2.3,Win32,59.98080614,61b8f3437b89212fae0dfadf
1,3.7036,space,2.0315,0,67,67,256,1,,,62cc1f77c32651ff9d35a471,6438a33c633416ac5039789a,2023-04-13_20h50.35.258,PRaM,2021.2.3,Win32,59.98080614,61b8f3437b89212fae0dfadf
1,2.2121,space,0.5198,0,68,68,309,1,,,62cc1f77c32651ff9d35a471,6438a33c633416ac5039789a,2023-04-13_20h50.35.258,PRaM,2021.2.3,Win32,59.98080614,61b8f3437b89212fae0dfadf
1,2.3519,space,0.6971,0,69,69,15,1,,,62cc1f77c32651ff9d35a471,6438a33c633416ac5039789a,2023-04-13_20h50.35.258,PRaM,2021.2.3,Win32,59.98080614,61b8f3437b89212fae0dfadf
7,2.3307,space,0.6523,0,70,70,42,1,,,62cc1f77c32651ff9d35a471,6438a33c633416ac5039789a,2023-04-13_20h50.35.258,PRaM,2021.2.3,Win32,59.98080614,61b8f3437b89212fae0dfadf
7,1.782,space,0.0893,0,71,71,201,1,,,62cc1f77c32651ff9d35a471,6438a33c633416ac5039789a,2023-04-13_20h50.35.258,PRaM,2021.2.3,Win32,59.98080614,61b8f3437b89212fae0dfadf
5,2.3829,space,0.7247,0,72,72,120,1,,,62cc1f77c32651ff9d35a471,6438a33c633416ac5039789a,2023-04-13_20h50.35.258,PRaM,2021.2.3,Win32,59.98080614,61b8f3437b89212fae0dfadf
8,1.9393,space,0.2798,0,73,73,43,1,,,62cc1f77c32651ff9d35a471,6438a33c633416ac5039789a,2023-04-13_20h50.35.258,PRaM,2021.2.3,Win32,59.98080614,61b8f3437b89212fae0dfadf
2,2.0984,space,0.5174,0,74,74,87,1,,,62cc1f77c32651ff9d35a471,6438a33c633416ac5039789a,2023-04-13_20h50.35.258,PRaM,2021.2.3,Win32,59.98080614,61b8f3437b89212fae0dfadf
2,1.7744,space,0.0549,0,75,75,266,1,,,62cc1f77c32651ff9d35a471,6438a33c633416ac5039789a,2023-04-13_20h50.35.258,PRaM,2021.2.3,Win32,59.98080614,61b8f3437b89212fae0dfadf
6,1.8274,space,0.6199,0,76,76,7,1,,,62cc1f77c32651ff9d35a471,6438a33c633416ac5039789a,2023-04-13_20h50.35.258,PRaM,2021.2.3,Win32,59.98080614,61b8f3437b89212fae0dfadf
7,1.036,space,0.1117,0,77,77,260,1,,,62cc1f77c32651ff9d35a471,6438a33c633416ac5039789a,2023-04-13_20h50.35.258,PRaM,2021.2.3,Win32,59.98080614,61b8f3437b89212fae0dfadf
5,2.9099,space,1.236,0,78,78,261,1,,,62cc1f77c32651ff9d35a471,6438a33c633416ac5039789a,2023-04-13_20h50.35.258,PRaM,2021.2.3,Win32,59.98080614,61b8f3437b89212fae0dfadf
9,1.9746,space,0.2756,0,79,79,66,1,,,62cc1f77c32651ff9d35a471,6438a33c633416ac5039789a,2023-04-13_20h50.35.258,PRaM,2021.2.3,Win32,59.98080614,61b8f3437b89212fae0dfadf
1,2.6578,space,1.0637,0,80,80,78,1,,,62cc1f77c32651ff9d35a471,6438a33c633416ac5039789a,2023-04-13_20h50.35.258,PRaM,2021.2.3,Win32,59.98080614,61b8f3437b89212fae0dfadf
3,27.6911,space,26.1505,0,81,81,77,1,,,62cc1f77c32651ff9d35a471,6438a33c633416ac5039789a,2023-04-13_20h50.35.258,PRaM,2021.2.3,Win32,59.98080614,61b8f3437b89212fae0dfadf
1,2.4537,space,0.7506,0,82,82,138,1,,,62cc1f77c32651ff9d35a471,6438a33c633416ac5039789a,2023-04-13_20h50.35.258,PRaM,2021.2.3,Win32,59.98080614,61b8f3437b89212fae0dfadf
1,1.9063,space,0.0393,0,83,83,111,1,,,62cc1f77c32651ff9d35a471,6438a33c633416ac5039789a,2023-04-13_20h50.35.258,PRaM,2021.2.3,Win32,59.98080614,61b8f3437b89212fae0dfadf
1,2.532,space,0.8635,0,84,84,45,1,,,62cc1f77c32651ff9d35a471,6438a33c633416ac5039789a,2023-04-13_20h50.35.258,PRaM,2021.2.3,Win32,59.98080614,61b8f3437b89212fae0dfadf
6,2.1597,space,0.4924,0,85,85,93,1,,,62cc1f77c32651ff9d35a471,6438a33c633416ac5039789a,2023-04-13_20h50.35.258,PRaM,2021.2.3,Win32,59.98080614,61b8f3437b89212fae0dfadf
7,2.0421,space,0.3609,0,86,86,180,1,,,62cc1f77c32651ff9d35a471,6438a33c633416ac5039789a,2023-04-13_20h50.35.258,PRaM,2021.2.3,Win32,59.98080614,61b8f3437b89212fae0dfadf
1,1.8122,space,0.1209,0,87,87,234,1,,,62cc1f77c32651ff9d35a471,6438a33c633416ac5039789a,2023-04-13_20h50.35.258,PRaM,2021.2.3,Win32,59.98080614,61b8f3437b89212fae0dfadf
1,2.1735,space,0.4837,0,88,88,86,1,,,62cc1f77c32651ff9d35a471,6438a33c633416ac5039789a,2023-04-13_20h50.35.258,PRaM,2021.2.3,Win32,59.98080614,61b8f3437b89212fae0dfadf
1,1.8596,space,0.1581,0,89,89,278,1,,,62cc1f77c32651ff9d35a471,6438a33c633416ac5039789a,2023-04-13_20h50.35.258,PRaM,2021.2.3,Win32,59.98080614,61b8f3437b89212fae0dfadf
1,2.0542,space,0.4213,0,90,90,130,1,,,62cc1f77c32651ff9d35a471,6438a33c633416ac5039789a,2023-04-13_20h50.35.258,PRaM,2021.2.3,Win32,59.98080614,61b8f3437b89212fae0dfadf
1,1.9151,space,0.2461,0,91,91,368,1,,,62cc1f77c32651ff9d35a471,6438a33c633416ac5039789a,2023-04-13_20h50.35.258,PRaM,2021.2.3,Win32,59.98080614,61b8f3437b89212fae0dfadf
2,2.052,space,0.341,0,92,92,9,1,,,62cc1f77c32651ff9d35a471,6438a33c633416ac5039789a,2023-04-13_20h50.35.258,PRaM,2021.2.3,Win32,59.98080614,61b8f3437b89212fae0dfadf
1,1.8276,space,0.1269,0,93,93,41,1,,,62cc1f77c32651ff9d35a471,6438a33c633416ac5039789a,2023-04-13_20h50.35.258,PRaM,2021.2.3,Win32,59.98080614,61b8f3437b89212fae0dfadf
3,2.072,space,0.3446,0,94,94,254,1,,,62cc1f77c32651ff9d35a471,6438a33c633416ac5039789a,2023-04-13_20h50.35.258,PRaM,2021.2.3,Win32,59.98080614,61b8f3437b89212fae0dfadf
6,3.1393,space,1.4665,0,95,95,80,1,,,62cc1f77c32651ff9d35a471,6438a33c633416ac5039789a,2023-04-13_20h50.35.258,PRaM,2021.2.3,Win32,59.98080614,61b8f3437b89212fae0dfadf
7,4.3689,space,2.6779,0,96,96,178,1,,,62cc1f77c32651ff9d35a471,6438a33c633416ac5039789a,2023-04-13_20h50.35.258,PRaM,2021.2.3,Win32,59.98080614,61b8f3437b89212fae0dfadf
9,1.4649,space,0.3795,0,97,97,336,1,,,62cc1f77c32651ff9d35a471,6438a33c633416ac5039789a,2023-04-13_20h50.35.258,PRaM,2021.2.3,Win32,59.98080614,61b8f3437b89212fae0dfadf
7,1.5707,space,0.4443,0,98,98,326,1,,,62cc1f77c32651ff9d35a471,6438a33c633416ac5039789a,2023-04-13_20h50.35.258,PRaM,2021.2.3,Win32,59.98080614,61b8f3437b89212fae0dfadf
7,3.0388,space,1.3764,0,99,99,23,1,,,62cc1f77c32651ff9d35a471,6438a33c633416ac5039789a,2023-04-13_20h50.35.258,PRaM,2021.2.3,Win32,59.98080614,61b8f3437b89212fae0dfadf
8,1.5355,space,0.5767,0,100,100,355,1,,,62cc1f77c32651ff9d35a471,6438a33c633416ac5039789a,2023-04-13_20h50.35.258,PRaM,2021.2.3,Win32,59.98080614,61b8f3437b89212fae0dfadf
7,1.8065,space,0.1226,0,101,101,121,1,,,62cc1f77c32651ff9d35a471,6438a33c633416ac5039789a,2023-04-13_20h50.35.258,PRaM,2021.2.3,Win32,59.98080614,61b8f3437b89212fae0dfadf
4,3.7695,space,2.0494,0,102,102,189,1,,,62cc1f77c32651ff9d35a471,6438a33c633416ac5039789a,2023-04-13_20h50.35.258,PRaM,2021.2.3,Win32,59.98080614,61b8f3437b89212fae0dfadf
1,2.3486,space,0.625,0,103,103,28,1,,,62cc1f77c32651ff9d35a471,6438a33c633416ac5039789a,2023-04-13_20h50.35.258,PRaM,2021.2.3,Win32,59.98080614,61b8f3437b89212fae0dfadf
1,1.5768,space,0.424,0,104,104,214,1,,,62cc1f77c32651ff9d35a471,6438a33c633416ac5039789a,2023-04-13_20h50.35.258,PRaM,2021.2.3,Win32,59.98080614,61b8f3437b89212fae0dfadf
4,1.5855,space,0.2293,0,105,105,269,1,,,62cc1f77c32651ff9d35a471,6438a33c633416ac5039789a,2023-04-13_20h50.35.258,PRaM,2021.2.3,Win32,59.98080614,61b8f3437b89212fae0dfadf
2,1.4315,space,0.1855,0,106,106,217,1,,,62cc1f77c32651ff9d35a471,6438a33c633416ac5039789a,2023-04-13_20h50.35.258,PRaM,2021.2.3,Win32,59.98080614,61b8f3437b89212fae0dfadf
8,2.526,space,0.8734,0,107,107,207,1,,,62cc1f77c32651ff9d35a471,6438a33c633416ac5039789a,2023-04-13_20h50.35.258,PRaM,2021.2.3,Win32,59.98080614,61b8f3437b89212fae0dfadf
9,1.8419,space,0.2549,0,108,108,304,1,,,62cc1f77c32651ff9d35a471,6438a33c633416ac5039789a,2023-04-13_20h50.35.258,PRaM,2021.2.3,Win32,59.98080614,61b8f3437b89212fae0dfadf
2,1.8592,space,0.1584,0,109,109,360,1,,,62cc1f77c32651ff9d35a471,6438a33c633416ac5039789a,2023-04-13_20h50.35.258,PRaM,2021.2.3,Win32,59.98080614,61b8f3437b89212fae0dfadf
1,65.2802,space,63.9738,0,110,110,211,1,,,62cc1f77c32651ff9d35a471,6438a33c633416ac5039789a,2023-04-13_20h50.35.258,PRaM,2021.2.3,Win32,59.98080614,61b8f3437b89212fae0dfadf
1,1.9556,space,0.2788,0,111,111,49,1,,,62cc1f77c32651ff9d35a471,6438a33c633416ac5039789a,2023-04-13_20h50.35.258,PRaM,2021.2.3,Win32,59.98080614,61b8f3437b89212fae0dfadf
1,2.4238,space,0.7122,0,112,112,100,1,,,62cc1f77c32651ff9d35a471,6438a33c633416ac5039789a,2023-04-13_20h50.35.258,PRaM,2021.2.3,Win32,59.98080614,61b8f3437b89212fae0dfadf
1,1.6947,space,0.0614,0,113,113,157,1,,,62cc1f77c32651ff9d35a471,6438a33c633416ac5039789a,2023-04-13_20h50.35.258,PRaM,2021.2.3,Win32,59.98080614,61b8f3437b89212fae0dfadf
1,1.4301,space,0.4265,0,114,114,149,1,,,62cc1f77c32651ff9d35a471,6438a33c633416ac5039789a,2023-04-13_20h50.35.258,PRaM,2021.2.3,Win32,59.98080614,61b8f3437b89212fae0dfadf
2,2.3088,space,0.6474,0,115,115,204,1,,,62cc1f77c32651ff9d35a471,6438a33c633416ac5039789a,2023-04-13_20h50.35.258,PRaM,2021.2.3,Win32,59.98080614,61b8f3437b89212fae0dfadf
6,1.8625,space,0.1341,0,116,116,154,1,,,62cc1f77c32651ff9d35a471,6438a33c633416ac5039789a,2023-04-13_20h50.35.258,PRaM,2021.2.3,Win32,59.98080614,61b8f3437b89212fae0dfadf
2,1.8029,space,0.0797,0,117,117,345,1,,,62cc1f77c32651ff9d35a471,6438a33c633416ac5039789a,2023-04-13_20h50.35.258,PRaM,2021.2.3,Win32,59.98080614,61b8f3437b89212fae0dfadf
6,11.5684,space,10.1089,0,118,118,104,1,,,62cc1f77c32651ff9d35a471,6438a33c633416ac5039789a,2023-04-13_20h50.35.258,PRaM,2021.2.3,Win32,59.98080614,61b8f3437b89212fae0dfadf
2,1.7653,space,0.0939,0,119,119,176,1,,,62cc1f77c32651ff9d35a471,6438a33c633416ac5039789a,2023-04-13_20h50.35.258,PRaM,2021.2.3,Win32,59.98080614,61b8f3437b89212fae0dfadf
1,1.9201,space,0.2203,0,120,120,124,1,,,62cc1f77c32651ff9d35a471,6438a33c633416ac5039789a,2023-04-13_20h50.35.258,PRaM,2021.2.3,Win32,59.98080614,61b8f3437b89212fae0dfadf
1,2.0724,space,0.3604,0,121,121,70,1,,,62cc1f77c32651ff9d35a471,6438a33c633416ac5039789a,2023-04-13_20h50.35.258,PRaM,2021.2.3,Win32,59.98080614,61b8f3437b89212fae0dfadf
3,1.7086,space,0.5146,0,122,122,328,1,,,62cc1f77c32651ff9d35a471,6438a33c633416ac5039789a,2023-04-13_20h50.35.258,PRaM,2021.2.3,Win32,59.98080614,61b8f3437b89212fae0dfadf
1,1.9436,space,0.2448,0,123,123,373,1,,,62cc1f77c32651ff9d35a471,6438a33c633416ac5039789a,2023-04-13_20h50.35.258,PRaM,2021.2.3,Win32,59.98080614,61b8f3437b89212fae0dfadf
8,2.3464,space,0.7799,0,124,124,72,1,,,62cc1f77c32651ff9d35a471,6438a33c633416ac5039789a,2023-04-13_20h50.35.258,PRaM,2021.2.3,Win32,59.98080614,61b8f3437b89212fae0dfadf
6,1.3618,space,0.186,0,125,125,128,1,,,62cc1f77c32651ff9d35a471,6438a33c633416ac5039789a,2023-04-13_20h50.35.258,PRaM,2021.2.3,Win32,59.98080614,61b8f3437b89212fae0dfadf
9,1.5495,space,0.3782,0,126,126,145,1,,,62cc1f77c32651ff9d35a471,6438a33c633416ac5039789a,2023-04-13_20h50.35.258,PRaM,2021.2.3,Win32,59.98080614,61b8f3437b89212fae0dfadf
7,1.5126,space,0.3317,0,127,127,32,1,,,62cc1f77c32651ff9d35a471,6438a33c633416ac5039789a,2023-04-13_20h50.35.258,PRaM,2021.2.3,Win32,59.98080614,61b8f3437b89212fae0dfadf
2,9.7022,space,8.8949,0,128,128,317,1,,,62cc1f77c32651ff9d35a471,6438a33c633416ac5039789a,2023-04-13_20h50.35.258,PRaM,2021.2.3,Win32,59.98080614,61b8f3437b89212fae0dfadf
1,2.5037,space,0.8839,0,129,129,177,1,,,62cc1f77c32651ff9d35a471,6438a33c633416ac5039789a,2023-04-13_20h50.35.258,PRaM,2021.2.3,Win32,59.98080614,61b8f3437b89212fae0dfadf
9,1.9601,space,0.31,0,130,130,276,1,,,62cc1f77c32651ff9d35a471,6438a33c633416ac5039789a,2023-04-13_20h50.35.258,PRaM,2021.2.3,Win32,59.98080614,61b8f3437b89212fae0dfadf
3,1.5799,space,0.4493,0,131,131,81,1,,,62cc1f77c32651ff9d35a471,6438a33c633416ac5039789a,2023-04-13_20h50.35.258,PRaM,2021.2.3,Win32,59.98080614,61b8f3437b89212fae0dfadf
1,2.4357,space,0.7734,0,132,132,148,1,,,62cc1f77c32651ff9d35a471,6438a33c633416ac5039789a,2023-04-13_20h50.35.258,PRaM,2021.2.3,Win32,59.98080614,61b8f3437b89212fae0dfadf
7,2.334,space,0.5888,0,133,133,349,1,,,62cc1f77c32651ff9d35a471,6438a33c633416ac5039789a,2023-04-13_20h50.35.258,PRaM,2021.2.3,Win32,59.98080614,61b8f3437b89212fae0dfadf
9,1.9196,space,0.268,0,134,134,4,1,,,62cc1f77c32651ff9d35a471,6438a33c633416ac5039789a,2023-04-13_20h50.35.258,PRaM,2021.2.3,Win32,59.98080614,61b8f3437b89212fae0dfadf
1,1.8991,space,0.2581,0,135,135,342,1,,,62cc1f77c32651ff9d35a471,6438a33c633416ac5039789a,2023-04-13_20h50.35.258,PRaM,2021.2.3,Win32,59.98080614,61b8f3437b89212fae0dfadf
2,2.733,space,1.0228,0,136,136,280,1,,,62cc1f77c32651ff9d35a471,6438a33c633416ac5039789a,2023-04-13_20h50.35.258,PRaM,2021.2.3,Win32,59.98080614,61b8f3437b89212fae0dfadf
5,1.7485,space,0.0931,0,137,137,376,1,,,62cc1f77c32651ff9d35a471,6438a33c633416ac5039789a,2023-04-13_20h50.35.258,PRaM,2021.2.3,Win32,59.98080614,61b8f3437b89212fae0dfadf
1,2.2887,space,0.6345,0,138,138,375,1,,,62cc1f77c32651ff9d35a471,6438a33c633416ac5039789a,2023-04-13_20h50.35.258,PRaM,2021.2.3,Win32,59.98080614,61b8f3437b89212fae0dfadf
1,13.9517,space,13.5441,0,139,139,160,1,,,62cc1f77c32651ff9d35a471,6438a33c633416ac5039789a,2023-04-13_20h50.35.258,PRaM,2021.2.3,Win32,59.98080614,61b8f3437b89212fae0dfadf
6,1.77,space,0.1678,0,140,140,69,1,,,62cc1f77c32651ff9d35a471,6438a33c633416ac5039789a,2023-04-13_20h50.35.258,PRaM,2021.2.3,Win32,59.98080614,61b8f3437b89212fae0dfadf
7,1.3742,space,0.3462,0,141,141,3,1,,,62cc1f77c32651ff9d35a471,6438a33c633416ac5039789a,2023-04-13_20h50.35.258,PRaM,2021.2.3,Win32,59.98080614,61b8f3437b89212fae0dfadf
1,1.7922,space,0.0912,0,142,142,198,1,,,62cc1f77c32651ff9d35a471,6438a33c633416ac5039789a,2023-04-13_20h50.35.258,PRaM,2021.2.3,Win32,59.98080614,61b8f3437b89212fae0dfadf
2,2.2105,space,0.4465,0,143,143,240,1,,,62cc1f77c32651ff9d35a471,6438a33c633416ac5039789a,2023-04-13_20h50.35.258,PRaM,2021.2.3,Win32,59.98080614,61b8f3437b89212fae0dfadf
5,2.684,space,1.0038,0,144,144,362,1,,,62cc1f77c32651ff9d35a471,6438a33c633416ac5039789a,2023-04-13_20h50.35.258,PRaM,2021.2.3,Win32,59.98080614,61b8f3437b89212fae0dfadf
7,1.5607,space,0.5234,0,145,145,294,1,,,62cc1f77c32651ff9d35a471,6438a33c633416ac5039789a,2023-04-13_20h50.35.258,PRaM,2021.2.3,Win32,59.98080614,61b8f3437b89212fae0dfadf
3,2.2181,space,0.5708,0,146,146,25,1,,,62cc1f77c32651ff9d35a471,6438a33c633416ac5039789a,2023-04-13_20h50.35.258,PRaM,2021.2.3,Win32,59.98080614,61b8f3437b89212fae0dfadf
4,2.3339,space,0.6696,0,147,147,192,1,,,62cc1f77c32651ff9d35a471,6438a33c633416ac5039789a,2023-04-13_20h50.35.258,PRaM,2021.2.3,Win32,59.98080614,61b8f3437b89212fae0dfadf
8,1.7469,space,0.0903,0,148,148,16,1,,,62cc1f77c32651ff9d35a471,6438a33c633416ac5039789a,2023-04-13_20h50.35.258,PRaM,2021.2.3,Win32,59.98080614,61b8f3437b89212fae0dfadf
6,1.9302,space,0.2297,0,149,149,46,1,,,62cc1f77c32651ff9d35a471,6438a33c633416ac5039789a,2023-04-13_20h50.35.258,PRaM,2021.2.3,Win32,59.98080614,61b8f3437b89212fae0dfadf
8,1.5401,space,0.5246,0,150,150,181,1,,,62cc1f77c32651ff9d35a471,6438a33c633416ac5039789a,2023-04-13_20h50.35.258,PRaM,2021.2.3,Win32,59.98080614,61b8f3437b89212fae0dfadf
1,2.0885,space,0.4471,0,151,151,108,1,,,62cc1f77c32651ff9d35a471,6438a33c633416ac5039789a,2023-04-13_20h50.35.258,PRaM,2021.2.3,Win32,59.98080614,61b8f3437b89212fae0dfadf
3,1.7805,space,0.0366,0,152,152,52,1,,,62cc1f77c32651ff9d35a471,6438a33c633416ac5039789a,2023-04-13_20h50.35.258,PRaM,2021.2.3,Win32,59.98080614,61b8f3437b89212fae0dfadf
8,1.7965,space,0.129,0,153,153,131,1,,,62cc1f77c32651ff9d35a471,6438a33c633416ac5039789a,2023-04-13_20h50.35.258,PRaM,2021.2.3,Win32,59.98080614,61b8f3437b89212fae0dfadf
3,1.6485,space,0.4048,0,154,154,318,1,,,62cc1f77c32651ff9d35a471,6438a33c633416ac5039789a,2023-04-13_20h50.35.258,PRaM,2021.2.3,Win32,59.98080614,61b8f3437b89212fae0dfadf
3,1.7127,space,0.0681,0,155,155,219,1,,,62cc1f77c32651ff9d35a471,6438a33c633416ac5039789a,2023-04-13_20h50.35.258,PRaM,2021.2.3,Win32,59.98080614,61b8f3437b89212fae0dfadf
4,1.8102,space,0.0876,0,156,156,213,1,,,62cc1f77c32651ff9d35a471,6438a33c633416ac5039789a,2023-04-13_20h50.35.258,PRaM,2021.2.3,Win32,59.98080614,61b8f3437b89212fae0dfadf
1,2.1761,space,0.4838,0,157,157,346,1,,,62cc1f77c32651ff9d35a471,6438a33c633416ac5039789a,2023-04-13_20h50.35.258,PRaM,2021.2.3,Win32,59.98080614,61b8f3437b89212fae0dfadf
2,1.7511,space,0.1185,0,158,158,105,1,,,62cc1f77c32651ff9d35a471,6438a33c633416ac5039789a,2023-04-13_20h50.35.258,PRaM,2021.2.3,Win32,59.98080614,61b8f3437b89212fae0dfadf
3,8.7512,space,8.1219,0,159,159,174,1,,,62cc1f77c32651ff9d35a471,6438a33c633416ac5039789a,2023-04-13_20h50.35.258,PRaM,2021.2.3,Win32,59.98080614,61b8f3437b89212fae0dfadf
1,2.3242,space,0.5865,0,160,160,339,1,,,62cc1f77c32651ff9d35a471,6438a33c633416ac5039789a,2023-04-13_20h50.35.258,PRaM,2021.2.3,Win32,59.98080614,61b8f3437b89212fae0dfadf
6,1.6572,space,0.0271,0,161,161,203,1,,,62cc1f77c32651ff9d35a471,6438a33c633416ac5039789a,2023-04-13_20h50.35.258,PRaM,2021.2.3,Win32,59.98080614,61b8f3437b89212fae0dfadf
6,12.795,space,11.3281,0,162,162,305,1,,,62cc1f77c32651ff9d35a471,6438a33c633416ac5039789a,2023-04-13_20h50.35.258,PRaM,2021.2.3,Win32,59.98080614,61b8f3437b89212fae0dfadf
1,2.2801,space,0.6045,0,163,163,135,1,,,62cc1f77c32651ff9d35a471,6438a33c633416ac5039789a,2023-04-13_20h50.35.258,PRaM,2021.2.3,Win32,59.98080614,61b8f3437b89212fae0dfadf
3,0.6965,space,0.2601,0,164,164,291,1,,,62cc1f77c32651ff9d35a471,6438a33c633416ac5039789a,2023-04-13_20h50.35.258,PRaM,2021.2.3,Win32,59.98080614,61b8f3437b89212fae0dfadf
2,257.6404,space,257.6047,0,165,165,152,1,,,62cc1f77c32651ff9d35a471,6438a33c633416ac5039789a,2023-04-13_20h50.35.258,PRaM,2021.2.3,Win32,59.98080614,61b8f3437b89212fae0dfadf
3,2.0183,space,0.3229,0,166,166,158,1,,,62cc1f77c32651ff9d35a471,6438a33c633416ac5039789a,2023-04-13_20h50.35.258,PRaM,2021.2.3,Win32,59.98080614,61b8f3437b89212fae0dfadf
2,1.3215,space,0.2054,0,167,167,107,1,,,62cc1f77c32651ff9d35a471,6438a33c633416ac5039789a,2023-04-13_20h50.35.258,PRaM,2021.2.3,Win32,59.98080614,61b8f3437b89212fae0dfadf
3,1.7719,space,0.0602,0,168,168,313,1,,,62cc1f77c32651ff9d35a471,6438a33c633416ac5039789a,2023-04-13_20h50.35.258,PRaM,2021.2.3,Win32,59.98080614,61b8f3437b89212fae0dfadf
3,1.2275,space,0.5369,0,169,169,223,1,,,62cc1f77c32651ff9d35a471,6438a33c633416ac5039789a,2023-04-13_20h50.35.258,PRaM,2021.2.3,Win32,59.98080614,61b8f3437b89212fae0dfadf
7,1.566,space,0.3501,0,170,170,101,1,,,62cc1f77c32651ff9d35a471,6438a33c633416ac5039789a,2023-04-13_20h50.35.258,PRaM,2021.2.3,Win32,59.98080614,61b8f3437b89212fae0dfadf
1,1.9627,space,0.2839,0,171,171,97,1,,,62cc1f77c32651ff9d35a471,6438a33c633416ac5039789a,2023-04-13_20h50.35.258,PRaM,2021.2.3,Win32,59.98080614,61b8f3437b89212fae0dfadf
3,1.1559,space,0.6072,0,172,172,142,1,,,62cc1f77c32651ff9d35a471,6438a33c633416ac5039789a,2023-04-13_20h50.35.258,PRaM,2021.2.3,Win32,59.98080614,61b8f3437b89212fae0dfadf
2,3.3086,space,1.6704,0,173,173,241,1,,,62cc1f77c32651ff9d35a471,6438a33c633416ac5039789a,2023-04-13_20h50.35.258,PRaM,2021.2.3,Win32,59.98080614,61b8f3437b89212fae0dfadf
3,1.8216,space,0.1864,0,174,174,27,1,,,62cc1f77c32651ff9d35a471,6438a33c633416ac5039789a,2023-04-13_20h50.35.258,PRaM,2021.2.3,Win32,59.98080614,61b8f3437b89212fae0dfadf
4,1.7717,space,0.122,0,175,175,279,1,,,62cc1f77c32651ff9d35a471,6438a33c633416ac5039789a,2023-04-13_20h50.35.258,PRaM,2021.2.3,Win32,59.98080614,61b8f3437b89212fae0dfadf
1,5.6042,space,4.0168,0,176,176,245,1,,,62cc1f77c32651ff9d35a471,6438a33c633416ac5039789a,2023-04-13_20h50.35.258,PRaM,2021.2.3,Win32,59.98080614,61b8f3437b89212fae0dfadf
4,1.7545,space,0.0751,0,177,177,126,1,,,62cc1f77c32651ff9d35a471,6438a33c633416ac5039789a,2023-04-13_20h50.35.258,PRaM,2021.2.3,Win32,59.98080614,61b8f3437b89212fae0dfadf
2,2.196,space,0.5111,0,178,178,193,1,,,62cc1f77c32651ff9d35a471,6438a33c633416ac5039789a,2023-04-13_20h50.35.258,PRaM,2021.2.3,Win32,59.98080614,61b8f3437b89212fae0dfadf
7,1.4886,space,0.3382,0,179,179,267,1,,,62cc1f77c32651ff9d35a471,6438a33c633416ac5039789a,2023-04-13_20h50.35.258,PRaM,2021.2.3,Win32,59.98080614,61b8f3437b89212fae0dfadf
6,1.4793,space,0.3834,0,180,180,301,1,,,62cc1f77c32651ff9d35a471,6438a33c633416ac5039789a,2023-04-13_20h50.35.258,PRaM,2021.2.3,Win32,59.98080614,61b8f3437b89212fae0dfadf
1,164.6495,space,163.5086,0,181,181,172,1,,,62cc1f77c32651ff9d35a471,6438a33c633416ac5039789a,2023-04-13_20h50.35.258,PRaM,2021.2.3,Win32,59.98080614,61b8f3437b89212fae0dfadf
2,2.4961,space,0.6673,0,182,182,334,1,,,62cc1f77c32651ff9d35a471,6438a33c633416ac5039789a,2023-04-13_20h50.35.258,PRaM,2021.2.3,Win32,59.98080614,61b8f3437b89212fae0dfadf
3,1.0653,space,0.6794,0,183,183,206,1,,,62cc1f77c32651ff9d35a471,6438a33c633416ac5039789a,2023-04-13_20h50.35.258,PRaM,2021.2.3,Win32,59.98080614,61b8f3437b89212fae0dfadf
2,1.8462,space,0.1821,0,184,184,48,1,,,62cc1f77c32651ff9d35a471,6438a33c633416ac5039789a,2023-04-13_20h50.35.258,PRaM,2021.2.3,Win32,59.98080614,61b8f3437b89212fae0dfadf
3,1.8323,space,0.0105,0,185,185,371,1,,,62cc1f77c32651ff9d35a471,6438a33c633416ac5039789a,2023-04-13_20h50.35.258,PRaM,2021.2.3,Win32,59.98080614,61b8f3437b89212fae0dfadf
6,1.5238,space,0.3538,0,186,186,327,1,,,62cc1f77c32651ff9d35a471,6438a33c633416ac5039789a,2023-04-13_20h50.35.258,PRaM,2021.2.3,Win32,59.98080614,61b8f3437b89212fae0dfadf
8,1.4761,space,0.2979,0,187,187,136,1,,,62cc1f77c32651ff9d35a471,6438a33c633416ac5039789a,2023-04-13_20h50.35.258,PRaM,2021.2.3,Win32,59.98080614,61b8f3437b89212fae0dfadf
6,2.0578,space,0.3686,0,188,188,118,1,,,62cc1f77c32651ff9d35a471,6438a33c633416ac5039789a,2023-04-13_20h50.35.258,PRaM,2021.2.3,Win32,59.98080614,61b8f3437b89212fae0dfadf
1,3.1073,space,1.4003,0,189,189,308,1,,,62cc1f77c32651ff9d35a471,6438a33c633416ac5039789a,2023-04-13_20h50.35.258,PRaM,2021.2.3,Win32,59.98080614,61b8f3437b89212fae0dfadf
7,1.5288,space,0.3042,0,190,190,344,1,,,62cc1f77c32651ff9d35a471,6438a33c633416ac5039789a,2023-04-13_20h50.35.258,PRaM,2021.2.3,Win32,59.98080614,61b8f3437b89212fae0dfadf
3,18.7226,space,1.472,0,191,191,274,1,,,62cc1f77c32651ff9d35a471,6438a33c633416ac5039789a,2023-04-13_20h50.35.258,PRaM,2021.2.3,Win32,59.98080614,61b8f3437b89212fae0dfadf
3,1.4204,space,0.1788,0,192,192,235,1,,,62cc1f77c32651ff9d35a471,6438a33c633416ac5039789a,2023-04-13_20h50.35.258,PRaM,2021.2.3,Win32,59.98080614,61b8f3437b89212fae0dfadf
9,2.3574,space,0.6689,0,193,193,282,1,,,62cc1f77c32651ff9d35a471,6438a33c633416ac5039789a,2023-04-13_20h50.35.258,PRaM,2021.2.3,Win32,59.98080614,61b8f3437b89212fae0dfadf
6,1.3695,space,0.1404,0,194,194,37,1,,,62cc1f77c32651ff9d35a471,6438a33c633416ac5039789a,2023-04-13_20h50.35.258,PRaM,2021.2.3,Win32,59.98080614,61b8f3437b89212fae0dfadf
4,0.691,space,0.2074,0,195,195,150,1,,,62cc1f77c32651ff9d35a471,6438a33c633416ac5039789a,2023-04-13_20h50.35.258,PRaM,2021.2.3,Win32,59.98080614,61b8f3437b89212fae0dfadf
3,0.7857,space,0.8466,0,196,196,196,1,,,62cc1f77c32651ff9d35a471,6438a33c633416ac5039789a,2023-04-13_20h50.35.258,PRaM,2021.2.3,Win32,59.98080614,61b8f3437b89212fae0dfadf
1,2.4579,space,0.7485,0,197,197,289,1,,,62cc1f77c32651ff9d35a471,6438a33c633416ac5039789a,2023-04-13_20h50.35.258,PRaM,2021.2.3,Win32,59.98080614,61b8f3437b89212fae0dfadf
1,1.0116,space,0.2131,0,198,198,147,1,,,62cc1f77c32651ff9d35a471,6438a33c633416ac5039789a,2023-04-13_20h50.35.258,PRaM,2021.2.3,Win32,59.98080614,61b8f3437b89212fae0dfadf
1,1.6974,space,0.6358,0,199,199,2,1,,,62cc1f77c32651ff9d35a471,6438a33c633416ac5039789a,2023-04-13_20h50.35.258,PRaM,2021.2.3,Win32,59.98080614,61b8f3437b89212fae0dfadf
5,2.8157,space,1.1701,0,200,200,259,1,,,62cc1f77c32651ff9d35a471,6438a33c633416ac5039789a,2023-04-13_20h50.35.258,PRaM,2021.2.3,Win32,59.98080614,61b8f3437b89212fae0dfadf
2,2.0956,space,0.6743,0,201,201,356,1,,,62cc1f77c32651ff9d35a471,6438a33c633416ac5039789a,2023-04-13_20h50.35.258,PRaM,2021.2.3,Win32,59.98080614,61b8f3437b89212fae0dfadf
9,2.5355,space,0.8692,0,202,202,12,1,,,62cc1f77c32651ff9d35a471,6438a33c633416ac5039789a,2023-04-13_20h50.35.258,PRaM,2021.2.3,Win32,59.98080614,61b8f3437b89212fae0dfadf
4,2.9117,space,1.2167,0,203,203,202,1,,,62cc1f77c32651ff9d35a471,6438a33c633416ac5039789a,2023-04-13_20h50.35.258,PRaM,2021.2.3,Win32,59.98080614,61b8f3437b89212fae0dfadf
6,2.2539,space,0.5917,0,204,204,61,1,,,62cc1f77c32651ff9d35a471,6438a33c633416ac5039789a,2023-04-13_20h50.35.258,PRaM,2021.2.3,Win32,59.98080614,61b8f3437b89212fae0dfadf
6,1.7702,space,0.0967,0,205,205,239,1,,,62cc1f77c32651ff9d35a471,6438a33c633416ac5039789a,2023-04-13_20h50.35.258,PRaM,2021.2.3,Win32,59.98080614,61b8f3437b89212fae0dfadf
2,1.9954,space,0.2443,0,206,206,232,1,,,62cc1f77c32651ff9d35a471,6438a33c633416ac5039789a,2023-04-13_20h50.35.258,PRaM,2021.2.3,Win32,59.98080614,61b8f3437b89212fae0dfadf
9,2.0157,space,0.3379,0,207,207,53,1,,,62cc1f77c32651ff9d35a471,6438a33c633416ac5039789a,2023-04-13_20h50.35.258,PRaM,2021.2.3,Win32,59.98080614,61b8f3437b89212fae0dfadf
8,1.2131,space,0.0401,0,208,208,348,1,,,62cc1f77c32651ff9d35a471,6438a33c633416ac5039789a,2023-04-13_20h50.35.258,PRaM,2021.2.3,Win32,59.98080614,61b8f3437b89212fae0dfadf
3,1.7066,space,0.041,0,209,209,233,1,,,62cc1f77c32651ff9d35a471,6438a33c633416ac5039789a,2023-04-13_20h50.35.258,PRaM,2021.2.3,Win32,59.98080614,61b8f3437b89212fae0dfadf
3,0.9898,space,0.4172,0,210,210,92,1,,,62cc1f77c32651ff9d35a471,6438a33c633416ac5039789a,2023-04-13_20h50.35.258,PRaM,2021.2.3,Win32,59.98080614,61b8f3437b89212fae0dfadf
2,0.9751,space,0.3501,0,211,211,182,1,,,62cc1f77c32651ff9d35a471,6438a33c633416ac5039789a,2023-04-13_20h50.35.258,PRaM,2021.2.3,Win32,59.98080614,61b8f3437b89212fae0dfadf
3,19.9029,space,3.1991,0,212,212,283,1,,,62cc1f77c32651ff9d35a471,6438a33c633416ac5039789a,2023-04-13_20h50.35.258,PRaM,2021.2.3,Win32,59.98080614,61b8f3437b89212fae0dfadf
7,1.4055,space,0.1669,0,213,213,325,1,,,62cc1f77c32651ff9d35a471,6438a33c633416ac5039789a,2023-04-13_20h50.35.258,PRaM,2021.2.3,Win32,59.98080614,61b8f3437b89212fae0dfadf
7,0.8986,space,0.3243,0,214,214,153,1,,,62cc1f77c32651ff9d35a471,6438a33c633416ac5039789a,2023-04-13_20h50.35.258,PRaM,2021.2.3,Win32,59.98080614,61b8f3437b89212fae0dfadf
3,1.1627,space,0.4501,0,215,215,324,1,,,62cc1f77c32651ff9d35a471,6438a33c633416ac5039789a,2023-04-13_20h50.35.258,PRaM,2021.2.3,Win32,59.98080614,61b8f3437b89212fae0dfadf
7,1.6387,space,0.0196,0,216,216,190,1,,,62cc1f77c32651ff9d35a471,6438a33c633416ac5039789a,2023-04-13_20h50.35.258,PRaM,2021.2.3,Win32,59.98080614,61b8f3437b89212fae0dfadf
6,0.9763,space,0.4737,0,217,217,226,1,,,62cc1f77c32651ff9d35a471,6438a33c633416ac5039789a,2023-04-13_20h50.35.258,PRaM,2021.2.3,Win32,59.98080614,61b8f3437b89212fae0dfadf
8,1.705,space,0.0781,0,218,218,307,1,,,62cc1f77c32651ff9d35a471,6438a33c633416ac5039789a,2023-04-13_20h50.35.258,PRaM,2021.2.3,Win32,59.98080614,61b8f3437b89212fae0dfadf
7,2.7723,space,1.1225,0,219,219,195,1,,,62cc1f77c32651ff9d35a471,6438a33c633416ac5039789a,2023-04-13_20h50.35.258,PRaM,2021.2.3,Win32,59.98080614,61b8f3437b89212fae0dfadf
8,1.5383,space,0.3726,0,220,220,200,1,,,62cc1f77c32651ff9d35a471,6438a33c633416ac5039789a,2023-04-13_20h50.35.258,PRaM,2021.2.3,Win32,59.98080614,61b8f3437b89212fae0dfadf
8,3.014,space,1.3334,0,221,221,74,1,,,62cc1f77c32651ff9d35a471,6438a33c633416ac5039789a,2023-04-13_20h50.35.258,PRaM,2021.2.3,Win32,59.98080614,61b8f3437b89212fae0dfadf
2,1.8979,space,0.239,0,222,222,155,1,,,62cc1f77c32651ff9d35a471,6438a33c633416ac5039789a,2023-04-13_20h50.35.258,PRaM,2021.2.3,Win32,59.98080614,61b8f3437b89212fae0dfadf
7,2.1216,space,0.4844,0,223,223,110,1,,,62cc1f77c32651ff9d35a471,6438a33c633416ac5039789a,2023-04-13_20h50.35.258,PRaM,2021.2.3,Win32,59.98080614,61b8f3437b89212fae0dfadf
1,1.8967,space,0.272,0,224,224,113,1,,,62cc1f77c32651ff9d35a471,6438a33c633416ac5039789a,2023-04-13_20h50.35.258,PRaM,2021.2.3,Win32,59.98080614,61b8f3437b89212fae0dfadf
1,2.1964,space,0.5766,0,225,225,347,1,,,62cc1f77c32651ff9d35a471,6438a33c633416ac5039789a,2023-04-13_20h50.35.258,PRaM,2021.2.3,Win32,59.98080614,61b8f3437b89212fae0dfadf
1,1.7321,space,0.0881,0,226,226,242,1,,,62cc1f77c32651ff9d35a471,6438a33c633416ac5039789a,2023-04-13_20h50.35.258,PRaM,2021.2.3,Win32,59.98080614,61b8f3437b89212fae0dfadf
1,2.1909,space,0.6503,0,227,227,151,1,,,62cc1f77c32651ff9d35a471,6438a33c633416ac5039789a,2023-04-13_20h50.35.258,PRaM,2021.2.3,Win32,59.98080614,61b8f3437b89212fae0dfadf
1,1.5604,space,0.3252,0,228,228,314,1,,,62cc1f77c32651ff9d35a471,6438a33c633416ac5039789a,2023-04-13_20h50.35.258,PRaM,2021.2.3,Win32,59.98080614,61b8f3437b89212fae0dfadf
2,2.0267,space,0.4393,0,229,229,188,1,,,62cc1f77c32651ff9d35a471,6438a33c633416ac5039789a,2023-04-13_20h50.35.258,PRaM,2021.2.3,Win32,59.98080614,61b8f3437b89212fae0dfadf
3,82.2429,space,80.8662,0,230,230,238,1,,,62cc1f77c32651ff9d35a471,6438a33c633416ac5039789a,2023-04-13_20h50.35.258,PRaM,2021.2.3,Win32,59.98080614,61b8f3437b89212fae0dfadf
5,1.8201,space,0.0393,0,231,231,56,1,,,62cc1f77c32651ff9d35a471,6438a33c633416ac5039789a,2023-04-13_20h50.35.258,PRaM,2021.2.3,Win32,59.98080614,61b8f3437b89212fae0dfadf
8,2.2708,space,0.6504,0,232,232,335,1,,,62cc1f77c32651ff9d35a471,6438a33c633416ac5039789a,2023-04-13_20h50.35.258,PRaM,2021.2.3,Win32,59.98080614,61b8f3437b89212fae0dfadf
6,2.1204,space,0.5112,0,233,233,246,1,,,62cc1f77c32651ff9d35a471,6438a33c633416ac5039789a,2023-04-13_20h50.35.258,PRaM,2021.2.3,Win32,59.98080614,61b8f3437b89212fae0dfadf
6,1.1265,space,0.0258,0,234,234,79,1,,,62cc1f77c32651ff9d35a471,6438a33c633416ac5039789a,2023-04-13_20h50.35.258,PRaM,2021.2.3,Win32,59.98080614,61b8f3437b89212fae0dfadf
7,1.4806,space,0.4505,0,235,235,159,1,,,62cc1f77c32651ff9d35a471,6438a33c633416ac5039789a,2023-04-13_20h50.35.258,PRaM,2021.2.3,Win32,59.98080614,61b8f3437b89212fae0dfadf
8,1.4705,space,0.4169,0,236,236,175,1,,,62cc1f77c32651ff9d35a471,6438a33c633416ac5039789a,2023-04-13_20h50.35.258,PRaM,2021.2.3,Win32,59.98080614,61b8f3437b89212fae0dfadf
8,1.721,space,0.1232,0,237,237,115,1,,,62cc1f77c32651ff9d35a471,6438a33c633416ac5039789a,2023-04-13_20h50.35.258,PRaM,2021.2.3,Win32,59.98080614,61b8f3437b89212fae0dfadf
1,3.8761,space,2.1837,0,238,238,8,1,,,62cc1f77c32651ff9d35a471,6438a33c633416ac5039789a,2023-04-13_20h50.35.258,PRaM,2021.2.3,Win32,59.98080614,61b8f3437b89212fae0dfadf
6,1.6096,space,0.4539,0,239,239,218,1,,,62cc1f77c32651ff9d35a471,6438a33c633416ac5039789a,2023-04-13_20h50.35.258,PRaM,2021.2.3,Win32,59.98080614,61b8f3437b89212fae0dfadf
8,1.6378,space,0.0582,0,240,240,40,1,,,62cc1f77c32651ff9d35a471,6438a33c633416ac5039789a,2023-04-13_20h50.35.258,PRaM,2021.2.3,Win32,59.98080614,61b8f3437b89212fae0dfadf
8,1.33,space,0.25,0,241,241,248,1,,,62cc1f77c32651ff9d35a471,6438a33c633416ac5039789a,2023-04-13_20h50.35.258,PRaM,2021.2.3,Win32,59.98080614,61b8f3437b89212fae0dfadf
3,1.8386,space,0.1663,0,242,242,341,1,,,62cc1f77c32651ff9d35a471,6438a33c633416ac5039789a,2023-04-13_20h50.35.258,PRaM,2021.2.3,Win32,59.98080614,61b8f3437b89212fae0dfadf
7,1.8815,space,0.2366,0,243,243,6,1,,,62cc1f77c32651ff9d35a471,6438a33c633416ac5039789a,2023-04-13_20h50.35.258,PRaM,2021.2.3,Win32,59.98080614,61b8f3437b89212fae0dfadf
9,1.4708,space,0.3542,0,244,244,333,1,,,62cc1f77c32651ff9d35a471,6438a33c633416ac5039789a,2023-04-13_20h50.35.258,PRaM,2021.2.3,Win32,59.98080614,61b8f3437b89212fae0dfadf
7,1.8318,space,0.2022,0,245,245,208,1,,,62cc1f77c32651ff9d35a471,6438a33c633416ac5039789a,2023-04-13_20h50.35.258,PRaM,2021.2.3,Win32,59.98080614,61b8f3437b89212fae0dfadf
8,1.4702,space,0.3503,0,246,246,173,1,,,62cc1f77c32651ff9d35a471,6438a33c633416ac5039789a,2023-04-13_20h50.35.258,PRaM,2021.2.3,Win32,59.98080614,61b8f3437b89212fae0dfadf
3,1.708,space,0.1176,0,247,247,265,1,,,62cc1f77c32651ff9d35a471,6438a33c633416ac5039789a,2023-04-13_20h50.35.258,PRaM,2021.2.3,Win32,59.98080614,61b8f3437b89212fae0dfadf
8,1.5632,space,0.4212,0,248,248,170,1,,,62cc1f77c32651ff9d35a471,6438a33c633416ac5039789a,2023-04-13_20h50.35.258,PRaM,2021.2.3,Win32,59.98080614,61b8f3437b89212fae0dfadf
2,1.8477,space,0.1721,0,249,249,263,1,,,62cc1f77c32651ff9d35a471,6438a33c633416ac5039789a,2023-04-13_20h50.35.258,PRaM,2021.2.3,Win32,59.98080614,61b8f3437b89212fae0dfadf
6,1.6357,space,0.4907,0,250,250,296,1,,,62cc1f77c32651ff9d35a471,6438a33c633416ac5039789a,2023-04-13_20h50.35.258,PRaM,2021.2.3,Win32,59.98080614,61b8f3437b89212fae0dfadf
8,1.2986,space,0.1678,0,251,251,364,1,,,62cc1f77c32651ff9d35a471,6438a33c633416ac5039789a,2023-04-13_20h50.35.258,PRaM,2021.2.3,Win32,59.98080614,61b8f3437b89212fae0dfadf
8,1.5066,space,0.368,0,252,252,316,1,,,62cc1f77c32651ff9d35a471,6438a33c633416ac5039789a,2023-04-13_20h50.35.258,PRaM,2021.2.3,Win32,59.98080614,61b8f3437b89212fae0dfadf
7,1.132,space,0.3998,0,253,253,137,1,,,62cc1f77c32651ff9d35a471,6438a33c633416ac5039789a,2023-04-13_20h50.35.258,PRaM,2021.2.3,Win32,59.98080614,61b8f3437b89212fae0dfadf
7,6.715,space,5.9842,0,254,254,290,1,,,62cc1f77c32651ff9d35a471,6438a33c633416ac5039789a,2023-04-13_20h50.35.258,PRaM,2021.2.3,Win32,59.98080614,61b8f3437b89212fae0dfadf
6,1.0543,space,0.2549,0,255,255,165,1,,,62cc1f77c32651ff9d35a471,6438a33c633416ac5039789a,2023-04-13_20h50.35.258,PRaM,2021.2.3,Win32,59.98080614,61b8f3437b89212fae0dfadf
8,0.9217,space,0.0847,0,256,256,237,1,,,62cc1f77c32651ff9d35a471,6438a33c633416ac5039789a,2023-04-13_20h50.35.258,PRaM,2021.2.3,Win32,59.98080614,61b8f3437b89212fae0dfadf
6,0.8374,space,0.0842,0,257,257,59,1,,,62cc1f77c32651ff9d35a471,6438a33c633416ac5039789a,2023-04-13_20h50.35.258,PRaM,2021.2.3,Win32,59.98080614,61b8f3437b89212fae0dfadf
4,1.014,space,0.1872,0,258,258,365,1,,,62cc1f77c32651ff9d35a471,6438a33c633416ac5039789a,2023-04-13_20h50.35.258,PRaM,2021.2.3,Win32,59.98080614,61b8f3437b89212fae0dfadf
2,5.546,space,3.8351,0,259,259,169,1,,,62cc1f77c32651ff9d35a471,6438a33c633416ac5039789a,2023-04-13_20h50.35.258,PRaM,2021.2.3,Win32,59.98080614,61b8f3437b89212fae0dfadf
7,1.0919,space,0.2997,0,260,260,179,1,,,62cc1f77c32651ff9d35a471,6438a33c633416ac5039789a,2023-04-13_20h50.35.258,PRaM,2021.2.3,Win32,59.98080614,61b8f3437b89212fae0dfadf
3,3.6145,space,1.9664,0,261,261,167,1,,,62cc1f77c32651ff9d35a471,6438a33c633416ac5039789a,2023-04-13_20h50.35.258,PRaM,2021.2.3,Win32,59.98080614,61b8f3437b89212fae0dfadf
5,1.1111,space,0.0282,0,262,262,51,1,,,62cc1f77c32651ff9d35a471,6438a33c633416ac5039789a,2023-04-13_20h50.35.258,PRaM,2021.2.3,Win32,59.98080614,61b8f3437b89212fae0dfadf
8,1.4204,space,0.2518,0,263,263,250,1,,,62cc1f77c32651ff9d35a471,6438a33c633416ac5039789a,2023-04-13_20h50.35.258,PRaM,2021.2.3,Win32,59.98080614,61b8f3437b89212fae0dfadf
7,0.9033,space,0.3684,0,264,264,244,1,,,62cc1f77c32651ff9d35a471,6438a33c633416ac5039789a,2023-04-13_20h50.35.258,PRaM,2021.2.3,Win32,59.98080614,61b8f3437b89212fae0dfadf
3,1.4403,space,0.2557,0,265,265,306,1,,,62cc1f77c32651ff9d35a471,6438a33c633416ac5039789a,2023-04-13_20h50.35.258,PRaM,2021.2.3,Win32,59.98080614,61b8f3437b89212fae0dfadf
5,1.1103,space,0.1005,0,266,266,297,1,,,62cc1f77c32651ff9d35a471,6438a33c633416ac5039789a,2023-04-13_20h50.35.258,PRaM,2021.2.3,Win32,59.98080614,61b8f3437b89212fae0dfadf
7,1.3068,space,0.2836,0,267,267,295,1,,,62cc1f77c32651ff9d35a471,6438a33c633416ac5039789a,2023-04-13_20h50.35.258,PRaM,2021.2.3,Win32,59.98080614,61b8f3437b89212fae0dfadf
3,1.0752,space,0.1329,0,268,268,5,1,,,62cc1f77c32651ff9d35a471,6438a33c633416ac5039789a,2023-04-13_20h50.35.258,PRaM,2021.2.3,Win32,59.98080614,61b8f3437b89212fae0dfadf
,,space,3.2198,0,269,269,141,1,,,62cc1f77c32651ff9d35a471,6438a33c633416ac5039789a,2023-04-13_20h50.35.258,PRaM,2021.2.3,Win32,59.98080614,61b8f3437b89212fae0dfadf
5,0.906,space,0.5875,0,270,270,372,1,,,62cc1f77c32651ff9d35a471,6438a33c633416ac5039789a,2023-04-13_20h50.35.258,PRaM,2021.2.3,Win32,59.98080614,61b8f3437b89212fae0dfadf
7,0.9288,space,0.6031,0,271,271,183,1,,,62cc1f77c32651ff9d35a471,6438a33c633416ac5039789a,2023-04-13_20h50.35.258,PRaM,2021.2.3,Win32,59.98080614,61b8f3437b89212fae0dfadf
3,1.5724,space,0.6671,0,272,272,185,1,,,62cc1f77c32651ff9d35a471,6438a33c633416ac5039789a,2023-04-13_20h50.35.258,PRaM,2021.2.3,Win32,59.98080614,61b8f3437b89212fae0dfadf
3,1.8702,space,0.4169,0,273,273,31,1,,,62cc1f77c32651ff9d35a471,6438a33c633416ac5039789a,2023-04-13_20h50.35.258,PRaM,2021.2.3,Win32,59.98080614,61b8f3437b89212fae0dfadf
1,2.0042,space,0.3738,0,274,274,247,1,,,62cc1f77c32651ff9d35a471,6438a33c633416ac5039789a,2023-04-13_20h50.35.258,PRaM,2021.2.3,Win32,59.98080614,61b8f3437b89212fae0dfadf
8,2.2212,space,0.5824,0,275,275,102,1,,,62cc1f77c32651ff9d35a471,6438a33c633416ac5039789a,2023-04-13_20h50.35.258,PRaM,2021.2.3,Win32,59.98080614,61b8f3437b89212fae0dfadf
7,1.39,space,0.4172,0,276,276,166,1,,,62cc1f77c32651ff9d35a471,6438a33c633416ac5039789a,2023-04-13_20h50.35.258,PRaM,2021.2.3,Win32,59.98080614,61b8f3437b89212fae0dfadf
3,1.7633,space,0.1171,0,277,277,354,1,,,62cc1f77c32651ff9d35a471,6438a33c633416ac5039789a,2023-04-13_20h50.35.258,PRaM,2021.2.3,Win32,59.98080614,61b8f3437b89212fae0dfadf
3,1.1431,space,0.173,0,278,278,221,1,,,62cc1f77c32651ff9d35a471,6438a33c633416ac5039789a,2023-04-13_20h50.35.258,PRaM,2021.2.3,Win32,59.98080614,61b8f3437b89212fae0dfadf
6,3.1721,space,1.5894,0,279,279,369,1,,,62cc1f77c32651ff9d35a471,6438a33c633416ac5039789a,2023-04-13_20h50.35.258,PRaM,2021.2.3,Win32,59.98080614,61b8f3437b89212fae0dfadf
8,2.0775,space,0.4051,0,280,280,85,1,,,62cc1f77c32651ff9d35a471,6438a33c633416ac5039789a,2023-04-13_20h50.35.258,PRaM,2021.2.3,Win32,59.98080614,61b8f3437b89212fae0dfadf
4,2.2876,space,0.6761,0,281,281,257,1,,,62cc1f77c32651ff9d35a471,6438a33c633416ac5039789a,2023-04-13_20h50.35.258,PRaM,2021.2.3,Win32,59.98080614,61b8f3437b89212fae0dfadf
5,2.2179,space,0.5445,0,282,282,258,1,,,62cc1f77c32651ff9d35a471,6438a33c633416ac5039789a,2023-04-13_20h50.35.258,PRaM,2021.2.3,Win32,59.98080614,61b8f3437b89212fae0dfadf
2,1.9561,space,0.3136,0,283,283,171,1,,,62cc1f77c32651ff9d35a471,6438a33c633416ac5039789a,2023-04-13_20h50.35.258,PRaM,2021.2.3,Win32,59.98080614,61b8f3437b89212fae0dfadf
3,71.9313,space,70.7445,0,284,284,230,1,,,62cc1f77c32651ff9d35a471,6438a33c633416ac5039789a,2023-04-13_20h50.35.258,PRaM,2021.2.3,Win32,59.98080614,61b8f3437b89212fae0dfadf
5,1.385,space,0.2338,0,285,285,194,1,,,62cc1f77c32651ff9d35a471,6438a33c633416ac5039789a,2023-04-13_20h50.35.258,PRaM,2021.2.3,Win32,59.98080614,61b8f3437b89212fae0dfadf
4,2.1552,space,0.5336,0,286,286,103,1,,,62cc1f77c32651ff9d35a471,6438a33c633416ac5039789a,2023-04-13_20h50.35.258,PRaM,2021.2.3,Win32,59.98080614,61b8f3437b89212fae0dfadf
2,1.9393,space,0.3252,0,287,287,95,1,,,62cc1f77c32651ff9d35a471,6438a33c633416ac5039789a,2023-04-13_20h50.35.258,PRaM,2021.2.3,Win32,59.98080614,61b8f3437b89212fae0dfadf
2,1.3876,space,0.2875,0,288,288,270,1,,,62cc1f77c32651ff9d35a471,6438a33c633416ac5039789a,2023-04-13_20h50.35.258,PRaM,2021.2.3,Win32,59.98080614,61b8f3437b89212fae0dfadf
2,1.8646,space,0.4189,0,289,289,119,1,,,62cc1f77c32651ff9d35a471,6438a33c633416ac5039789a,2023-04-13_20h50.35.258,PRaM,2021.2.3,Win32,59.98080614,61b8f3437b89212fae0dfadf
1,2.6221,space,0.981,0,290,290,303,1,,,62cc1f77c32651ff9d35a471,6438a33c633416ac5039789a,2023-04-13_20h50.35.258,PRaM,2021.2.3,Win32,59.98080614,61b8f3437b89212fae0dfadf
1,2.21,space,0.5242,0,291,291,236,1,,,62cc1f77c32651ff9d35a471,6438a33c633416ac5039789a,2023-04-13_20h50.35.258,PRaM,2021.2.3,Win32,59.98080614,61b8f3437b89212fae0dfadf
1,1.9084,space,0.9876,0,292,292,212,1,,,62cc1f77c32651ff9d35a471,6438a33c633416ac5039789a,2023-04-13_20h50.35.258,PRaM,2021.2.3,Win32,59.98080614,61b8f3437b89212fae0dfadf
1,2.766,space,1.1869,0,293,293,288,1,,,62cc1f77c32651ff9d35a471,6438a33c633416ac5039789a,2023-04-13_20h50.35.258,PRaM,2021.2.3,Win32,59.98080614,61b8f3437b89212fae0dfadf
1,1.4554,space,0.3504,0,294,294,84,1,,,62cc1f77c32651ff9d35a471,6438a33c633416ac5039789a,2023-04-13_20h50.35.258,PRaM,2021.2.3,Win32,59.98080614,61b8f3437b89212fae0dfadf
1,3.0966,space,2.9387,0,295,295,96,1,,,62cc1f77c32651ff9d35a471,6438a33c633416ac5039789a,2023-04-13_20h50.35.258,PRaM,2021.2.3,Win32,59.98080614,61b8f3437b89212fae0dfadf
1,1.8047,space,0.2448,0,296,296,73,1,,,62cc1f77c32651ff9d35a471,6438a33c633416ac5039789a,2023-04-13_20h50.35.258,PRaM,2021.2.3,Win32,59.98080614,61b8f3437b89212fae0dfadf
1,1.8768,space,0.3062,0,297,297,10,1,,,62cc1f77c32651ff9d35a471,6438a33c633416ac5039789a,2023-04-13_20h50.35.258,PRaM,2021.2.3,Win32,59.98080614,61b8f3437b89212fae0dfadf
5,1.7494,space,0.0004,0,298,298,0,1,,,62cc1f77c32651ff9d35a471,6438a33c633416ac5039789a,2023-04-13_20h50.35.258,PRaM,2021.2.3,Win32,59.98080614,61b8f3437b89212fae0dfadf
2,1.8911,space,0.2362,0,299,299,133,1,,,62cc1f77c32651ff9d35a471,6438a33c633416ac5039789a,2023-04-13_20h50.35.258,PRaM,2021.2.3,Win32,59.98080614,61b8f3437b89212fae0dfadf
8,1.7216,space,0.0671,0,300,300,285,1,,,62cc1f77c32651ff9d35a471,6438a33c633416ac5039789a,2023-04-13_20h50.35.258,PRaM,2021.2.3,Win32,59.98080614,61b8f3437b89212fae0dfadf
2,1.6155,space,0.0217,0,301,301,13,1,,,62cc1f77c32651ff9d35a471,6438a33c633416ac5039789a,2023-04-13_20h50.35.258,PRaM,2021.2.3,Win32,59.98080614,61b8f3437b89212fae0dfadf
1,2.7248,space,1.1703,0,302,302,82,1,,,62cc1f77c32651ff9d35a471,6438a33c633416ac5039789a,2023-04-13_20h50.35.258,PRaM,2021.2.3,Win32,59.98080614,61b8f3437b89212fae0dfadf
7,2.5424,space,0.9413,0,303,303,281,1,,,62cc1f77c32651ff9d35a471,6438a33c633416ac5039789a,2023-04-13_20h50.35.258,PRaM,2021.2.3,Win32,59.98080614,61b8f3437b89212fae0dfadf
2,1.9747,space,0.3669,0,304,304,315,1,,,62cc1f77c32651ff9d35a471,6438a33c633416ac5039789a,2023-04-13_20h50.35.258,PRaM,2021.2.3,Win32,59.98080614,61b8f3437b89212fae0dfadf
1,2.0289,space,0.48,0,305,305,332,1,,,62cc1f77c32651ff9d35a471,6438a33c633416ac5039789a,2023-04-13_20h50.35.258,PRaM,2021.2.3,Win32,59.98080614,61b8f3437b89212fae0dfadf
1,1.3098,space,0.3517,0,306,306,22,1,,,62cc1f77c32651ff9d35a471,6438a33c633416ac5039789a,2023-04-13_20h50.35.258,PRaM,2021.2.3,Win32,59.98080614,61b8f3437b89212fae0dfadf
1,1.5712,space,0.036,0,307,307,302,1,,,62cc1f77c32651ff9d35a471,6438a33c633416ac5039789a,2023-04-13_20h50.35.258,PRaM,2021.2.3,Win32,59.98080614,61b8f3437b89212fae0dfadf
1,1.4548,space,108.917,0,308,308,361,1,,,62cc1f77c32651ff9d35a471,6438a33c633416ac5039789a,2023-04-13_20h50.35.258,PRaM,2021.2.3,Win32,59.98080614,61b8f3437b89212fae0dfadf
2,1.4347,space,0.7689,0,309,309,24,1,,,62cc1f77c32651ff9d35a471,6438a33c633416ac5039789a,2023-04-13_20h50.35.258,PRaM,2021.2.3,Win32,59.98080614,61b8f3437b89212fae0dfadf
3,4.1383,space,2.6068,0,310,310,94,1,,,62cc1f77c32651ff9d35a471,6438a33c633416ac5039789a,2023-04-13_20h50.35.258,PRaM,2021.2.3,Win32,59.98080614,61b8f3437b89212fae0dfadf
2,1.4902,space,0.3224,0,311,311,299,1,,,62cc1f77c32651ff9d35a471,6438a33c633416ac5039789a,2023-04-13_20h50.35.258,PRaM,2021.2.3,Win32,59.98080614,61b8f3437b89212fae0dfadf
3,1.6755,space,0.0279,0,312,312,116,1,,,62cc1f77c32651ff9d35a471,6438a33c633416ac5039789a,2023-04-13_20h50.35.258,PRaM,2021.2.3,Win32,59.98080614,61b8f3437b89212fae0dfadf
7,2.2681,space,0.641,0,313,313,88,1,,,62cc1f77c32651ff9d35a471,6438a33c633416ac5039789a,2023-04-13_20h50.35.258,PRaM,2021.2.3,Win32,59.98080614,61b8f3437b89212fae0dfadf
2,1.9906,space,0.3612,0,314,314,275,1,,,62cc1f77c32651ff9d35a471,6438a33c633416ac5039789a,2023-04-13_20h50.35.258,PRaM,2021.2.3,Win32,59.98080614,61b8f3437b89212fae0dfadf
2,42.7211,space,3.0818,0,315,315,320,1,,,62cc1f77c32651ff9d35a471,6438a33c633416ac5039789a,2023-04-13_20h50.35.258,PRaM,2021.2.3,Win32,59.98080614,61b8f3437b89212fae0dfadf
8,2.0389,space,0.4337,0,316,316,319,1,,,62cc1f77c32651ff9d35a471,6438a33c633416ac5039789a,2023-04-13_20h50.35.258,PRaM,2021.2.3,Win32,59.98080614,61b8f3437b89212fae0dfadf
9,2.9258,space,1.3663,0,317,317,29,1,,,62cc1f77c32651ff9d35a471,6438a33c633416ac5039789a,2023-04-13_20h50.35.258,PRaM,2021.2.3,Win32,59.98080614,61b8f3437b89212fae0dfadf
7,1.1227,space,0.0524,0,318,318,76,1,,,62cc1f77c32651ff9d35a471,6438a33c633416ac5039789a,2023-04-13_20h50.35.258,PRaM,2021.2.3,Win32,59.98080614,61b8f3437b89212fae0dfadf
3,1.7332,space,0.1156,0,319,319,367,1,,,62cc1f77c32651ff9d35a471,6438a33c633416ac5039789a,2023-04-13_20h50.35.258,PRaM,2021.2.3,Win32,59.98080614,61b8f3437b89212fae0dfadf
7,1.6419,space,0.4336,0,320,320,122,1,,,62cc1f77c32651ff9d35a471,6438a33c633416ac5039789a,2023-04-13_20h50.35.258,PRaM,2021.2.3,Win32,59.98080614,61b8f3437b89212fae0dfadf
1,1.9046,space,0.3181,0,321,321,184,1,,,62cc1f77c32651ff9d35a471,6438a33c633416ac5039789a,2023-04-13_20h50.35.258,PRaM,2021.2.3,Win32,59.98080614,61b8f3437b89212fae0dfadf
7,1.5909,space,0.4336,0,322,322,144,1,,,62cc1f77c32651ff9d35a471,6438a33c633416ac5039789a,2023-04-13_20h50.35.258,PRaM,2021.2.3,Win32,59.98080614,61b8f3437b89212fae0dfadf
8,1.6079,space,0.0045,0,323,323,277,1,,,62cc1f77c32651ff9d35a471,6438a33c633416ac5039789a,2023-04-13_20h50.35.258,PRaM,2021.2.3,Win32,59.98080614,61b8f3437b89212fae0dfadf
7,1.6718,space,0.1004,0,324,324,162,1,,,62cc1f77c32651ff9d35a471,6438a33c633416ac5039789a,2023-04-13_20h50.35.258,PRaM,2021.2.3,Win32,59.98080614,61b8f3437b89212fae0dfadf
1,2.4966,space,0.8937,0,325,325,216,1,,,62cc1f77c32651ff9d35a471,6438a33c633416ac5039789a,2023-04-13_20h50.35.258,PRaM,2021.2.3,Win32,59.98080614,61b8f3437b89212fae0dfadf
1,1.6947,space,0.0581,0,326,326,112,1,,,62cc1f77c32651ff9d35a471,6438a33c633416ac5039789a,2023-04-13_20h50.35.258,PRaM,2021.2.3,Win32,59.98080614,61b8f3437b89212fae0dfadf
8,1.9974,space,0.7006,0,327,327,55,1,,,62cc1f77c32651ff9d35a471,6438a33c633416ac5039789a,2023-04-13_20h50.35.258,PRaM,2021.2.3,Win32,59.98080614,61b8f3437b89212fae0dfadf
1,1.5348,space,0.0418,0,328,328,129,1,,,62cc1f77c32651ff9d35a471,6438a33c633416ac5039789a,2023-04-13_20h50.35.258,PRaM,2021.2.3,Win32,59.98080614,61b8f3437b89212fae0dfadf
9,1.5927,space,0.2142,0,329,329,358,1,,,62cc1f77c32651ff9d35a471,6438a33c633416ac5039789a,2023-04-13_20h50.35.258,PRaM,2021.2.3,Win32,59.98080614,61b8f3437b89212fae0dfadf
3,2.5765,space,0.9153,0,330,330,293,1,,,62cc1f77c32651ff9d35a471,6438a33c633416ac5039789a,2023-04-13_20h50.35.258,PRaM,2021.2.3,Win32,59.98080614,61b8f3437b89212fae0dfadf
1,1.849,space,0.1846,0,331,331,287,1,,,62cc1f77c32651ff9d35a471,6438a33c633416ac5039789a,2023-04-13_20h50.35.258,PRaM,2021.2.3,Win32,59.98080614,61b8f3437b89212fae0dfadf
7,1.8592,space,0.2091,0,332,332,26,1,,,62cc1f77c32651ff9d35a471,6438a33c633416ac5039789a,2023-04-13_20h50.35.258,PRaM,2021.2.3,Win32,59.98080614,61b8f3437b89212fae0dfadf
7,1.1929,space,0.1115,0,333,333,75,1,,,62cc1f77c32651ff9d35a471,6438a33c633416ac5039789a,2023-04-13_20h50.35.258,PRaM,2021.2.3,Win32,59.98080614,61b8f3437b89212fae0dfadf
8,1.3428,space,0.0585,0,334,334,366,1,,,62cc1f77c32651ff9d35a471,6438a33c633416ac5039789a,2023-04-13_20h50.35.258,PRaM,2021.2.3,Win32,59.98080614,61b8f3437b89212fae0dfadf
1,2.4384,space,0.8167,0,335,335,65,1,,,62cc1f77c32651ff9d35a471,6438a33c633416ac5039789a,2023-04-13_20h50.35.258,PRaM,2021.2.3,Win32,59.98080614,61b8f3437b89212fae0dfadf
7,2.616,space,1.0058,0,336,336,123,1,,,62cc1f77c32651ff9d35a471,6438a33c633416ac5039789a,2023-04-13_20h50.35.258,PRaM,2021.2.3,Win32,59.98080614,61b8f3437b89212fae0dfadf
9,2.3318,space,0.6509,0,337,337,14,1,,,62cc1f77c32651ff9d35a471,6438a33c633416ac5039789a,2023-04-13_20h50.35.258,PRaM,2021.2.3,Win32,59.98080614,61b8f3437b89212fae0dfadf
1,1.7415,space,0.1306,0,338,338,156,1,,,62cc1f77c32651ff9d35a471,6438a33c633416ac5039789a,2023-04-13_20h50.35.258,PRaM,2021.2.3,Win32,59.98080614,61b8f3437b89212fae0dfadf
8,1.7249,space,0.1093,0,339,339,331,1,,,62cc1f77c32651ff9d35a471,6438a33c633416ac5039789a,2023-04-13_20h50.35.258,PRaM,2021.2.3,Win32,59.98080614,61b8f3437b89212fae0dfadf
7,2.4442,space,0.775,0,340,340,38,1,,,62cc1f77c32651ff9d35a471,6438a33c633416ac5039789a,2023-04-13_20h50.35.258,PRaM,2021.2.3,Win32,59.98080614,61b8f3437b89212fae0dfadf
7,1.2603,space,0.128,0,341,341,351,1,,,62cc1f77c32651ff9d35a471,6438a33c633416ac5039789a,2023-04-13_20h50.35.258,PRaM,2021.2.3,Win32,59.98080614,61b8f3437b89212fae0dfadf
1,1.6287,space,0.4404,0,342,342,91,1,,,62cc1f77c32651ff9d35a471,6438a33c633416ac5039789a,2023-04-13_20h50.35.258,PRaM,2021.2.3,Win32,59.98080614,61b8f3437b89212fae0dfadf
7,2.5049,space,0.8898,0,343,343,90,1,,,62cc1f77c32651ff9d35a471,6438a33c633416ac5039789a,2023-04-13_20h50.35.258,PRaM,2021.2.3,Win32,59.98080614,61b8f3437b89212fae0dfadf
2,2.2191,space,0.5672,0,344,344,210,1,,,62cc1f77c32651ff9d35a471,6438a33c633416ac5039789a,2023-04-13_20h50.35.258,PRaM,2021.2.3,Win32,59.98080614,61b8f3437b89212fae0dfadf
8,2.0348,space,0.4433,0,345,345,30,1,,,62cc1f77c32651ff9d35a471,6438a33c633416ac5039789a,2023-04-13_20h50.35.258,PRaM,2021.2.3,Win32,59.98080614,61b8f3437b89212fae0dfadf
2,2.4475,space,0.8151,0,346,346,89,1,,,62cc1f77c32651ff9d35a471,6438a33c633416ac5039789a,2023-04-13_20h50.35.258,PRaM,2021.2.3,Win32,59.98080614,61b8f3437b89212fae0dfadf
7,2.1052,space,0.3821,0,347,347,98,1,,,62cc1f77c32651ff9d35a471,6438a33c633416ac5039789a,2023-04-13_20h50.35.258,PRaM,2021.2.3,Win32,59.98080614,61b8f3437b89212fae0dfadf
6,2.0042,space,0.3343,0,348,348,20,1,,,62cc1f77c32651ff9d35a471,6438a33c633416ac5039789a,2023-04-13_20h50.35.258,PRaM,2021.2.3,Win32,59.98080614,61b8f3437b89212fae0dfadf
1,2.6654,space,1.1071,0,349,349,67,1,,,62cc1f77c32651ff9d35a471,6438a33c633416ac5039789a,2023-04-13_20h50.35.258,PRaM,2021.2.3,Win32,59.98080614,61b8f3437b89212fae0dfadf
1,4.1433,space,2.4212,0,350,350,249,1,,,62cc1f77c32651ff9d35a471,6438a33c633416ac5039789a,2023-04-13_20h50.35.258,PRaM,2021.2.3,Win32,59.98080614,61b8f3437b89212fae0dfadf
8,1.6063,space,0.3483,0,351,351,264,1,,,62cc1f77c32651ff9d35a471,6438a33c633416ac5039789a,2023-04-13_20h50.35.258,PRaM,2021.2.3,Win32,59.98080614,61b8f3437b89212fae0dfadf
2,1.7142,space,0.0688,0,352,352,50,1,,,62cc1f77c32651ff9d35a471,6438a33c633416ac5039789a,2023-04-13_20h50.35.258,PRaM,2021.2.3,Win32,59.98080614,61b8f3437b89212fae0dfadf
2,1.0046,space,0.8092,0,353,353,191,1,,,62cc1f77c32651ff9d35a471,6438a33c633416ac5039789a,2023-04-13_20h50.35.258,PRaM,2021.2.3,Win32,59.98080614,61b8f3437b89212fae0dfadf
1,1.7436,space,0.1484,0,354,354,1,1,,,62cc1f77c32651ff9d35a471,6438a33c633416ac5039789a,2023-04-13_20h50.35.258,PRaM,2021.2.3,Win32,59.98080614,61b8f3437b89212fae0dfadf
1,1.6937,space,0.209,0,355,355,39,1,,,62cc1f77c32651ff9d35a471,6438a33c633416ac5039789a,2023-04-13_20h50.35.258,PRaM,2021.2.3,Win32,59.98080614,61b8f3437b89212fae0dfadf
1,2.508,space,0.9435,0,356,356,292,1,,,62cc1f77c32651ff9d35a471,6438a33c633416ac5039789a,2023-04-13_20h50.35.258,PRaM,2021.2.3,Win32,59.98080614,61b8f3437b89212fae0dfadf
1,1.9466,space,0.3844,0,357,357,64,1,,,62cc1f77c32651ff9d35a471,6438a33c633416ac5039789a,2023-04-13_20h50.35.258,PRaM,2021.2.3,Win32,59.98080614,61b8f3437b89212fae0dfadf
1,1.9165,space,0.3012,0,358,358,271,1,,,62cc1f77c32651ff9d35a471,6438a33c633416ac5039789a,2023-04-13_20h50.35.258,PRaM,2021.2.3,Win32,59.98080614,61b8f3437b89212fae0dfadf
9,1.8919,space,0.2444,0,359,359,132,1,,,62cc1f77c32651ff9d35a471,6438a33c633416ac5039789a,2023-04-13_20h50.35.258,PRaM,2021.2.3,Win32,59.98080614,61b8f3437b89212fae0dfadf
1,2.5754,space,0.9663,0,360,360,11,1,,,62cc1f77c32651ff9d35a471,6438a33c633416ac5039789a,2023-04-13_20h50.35.258,PRaM,2021.2.3,Win32,59.98080614,61b8f3437b89212fae0dfadf
1,2.3583,space,0.7837,0,361,361,300,1,,,62cc1f77c32651ff9d35a471,6438a33c633416ac5039789a,2023-04-13_20h50.35.258,PRaM,2021.2.3,Win32,59.98080614,61b8f3437b89212fae0dfadf
1,1.7833,space,0.2272,0,362,362,227,1,,,62cc1f77c32651ff9d35a471,6438a33c633416ac5039789a,2023-04-13_20h50.35.258,PRaM,2021.2.3,Win32,59.98080614,61b8f3437b89212fae0dfadf
1,1.7794,space,0.1055,0,363,363,321,1,,,62cc1f77c32651ff9d35a471,6438a33c633416ac5039789a,2023-04-13_20h50.35.258,PRaM,2021.2.3,Win32,59.98080614,61b8f3437b89212fae0dfadf
8,2.3551,space,0.7391,0,364,364,54,1,,,62cc1f77c32651ff9d35a471,6438a33c633416ac5039789a,2023-04-13_20h50.35.258,PRaM,2021.2.3,Win32,59.98080614,61b8f3437b89212fae0dfadf
8,1.5407,space,0.4149,0,365,365,252,1,,,62cc1f77c32651ff9d35a471,6438a33c633416ac5039789a,2023-04-13_20h50.35.258,PRaM,2021.2.3,Win32,59.98080614,61b8f3437b89212fae0dfadf
3,1.6159,space,0.3998,0,366,366,57,1,,,62cc1f77c32651ff9d35a471,6438a33c633416ac5039789a,2023-04-13_20h50.35.258,PRaM,2021.2.3,Win32,59.98080614,61b8f3437b89212fae0dfadf
7,1.8188,space,0.1991,0,367,367,340,1,,,62cc1f77c32651ff9d35a471,6438a33c633416ac5039789a,2023-04-13_20h50.35.258,PRaM,2021.2.3,Win32,59.98080614,61b8f3437b89212fae0dfadf
3,1.7387,space,0.1087,0,368,368,163,1,,,62cc1f77c32651ff9d35a471,6438a33c633416ac5039789a,2023-04-13_20h50.35.258,PRaM,2021.2.3,Win32,59.98080614,61b8f3437b89212fae0dfadf
6,1.6374,space,0.4324,0,369,369,205,1,,,62cc1f77c32651ff9d35a471,6438a33c633416ac5039789a,2023-04-13_20h50.35.258,PRaM,2021.2.3,Win32,59.98080614,61b8f3437b89212fae0dfadf
8,1.7213,space,0.1249,0,370,370,71,1,,,62cc1f77c32651ff9d35a471,6438a33c633416ac5039789a,2023-04-13_20h50.35.258,PRaM,2021.2.3,Win32,59.98080614,61b8f3437b89212fae0dfadf
9,1.5791,space,0.4076,0,371,371,143,1,,,62cc1f77c32651ff9d35a471,6438a33c633416ac5039789a,2023-04-13_20h50.35.258,PRaM,2021.2.3,Win32,59.98080614,61b8f3437b89212fae0dfadf
7,1.5038,space,0.2943,0,372,372,231,1,,,62cc1f77c32651ff9d35a471,6438a33c633416ac5039789a,2023-04-13_20h50.35.258,PRaM,2021.2.3,Win32,59.98080614,61b8f3437b89212fae0dfadf
8,1.4163,space,0.1542,0,373,373,350,1,,,62cc1f77c32651ff9d35a471,6438a33c633416ac5039789a,2023-04-13_20h50.35.258,PRaM,2021.2.3,Win32,59.98080614,61b8f3437b89212fae0dfadf
3,1.5102,space,0.3649,0,374,374,21,1,,,62cc1f77c32651ff9d35a471,6438a33c633416ac5039789a,2023-04-13_20h50.35.258,PRaM,2021.2.3,Win32,59.98080614,61b8f3437b89212fae0dfadf
3,2.1324,space,0.445,0,375,375,83,1,,,62cc1f77c32651ff9d35a471,6438a33c633416ac5039789a,2023-04-13_20h50.35.258,PRaM,2021.2.3,Win32,59.98080614,61b8f3437b89212fae0dfadf
7,2.3209,space,0.6409,0,376,376,343,1,,,62cc1f77c32651ff9d35a471,6438a33c633416ac5039789a,2023-04-13_20h50.35.258,PRaM,2021.2.3,Win32,59.98080614,61b8f3437b89212fae0dfadf
6,6.3325,space,5.0244,0,377,377,363,1,,,62cc1f77c32651ff9d35a471,6438a33c633416ac5039789a,2023-04-13_20h50.35.258,PRaM,2021.2.3,Win32,59.98080614,61b8f3437b89212fae0dfadf
