Rating.response,Rating.rt,EndTrial.keys,EndTrial.rt,trials.thisRepN,trials.thisTrialN,trials.thisN,trials.thisIndex,trials.ran,Pos1,Pos2,participant,session,date,expName,psychopyVersion,OS,frameRate,study_id
7,19.12,space,19.7382,0,0,0,75,1,,,62da562ad9942a440f6986c9,643773099deb637e8358b231,2023-04-13_04h21.32.672,PRaM,2021.2.3,Win32,59.94844434,61b8f3437b89212fae0dfade
7,17.5029,space,19.3279,0,1,1,328,1,,,62da562ad9942a440f6986c9,643773099deb637e8358b231,2023-04-13_04h21.32.672,PRaM,2021.2.3,Win32,59.94844434,61b8f3437b89212fae0dfade
6,10.9275,space,15.4876,0,2,2,363,1,,,62da562ad9942a440f6986c9,643773099deb637e8358b231,2023-04-13_04h21.32.672,PRaM,2021.2.3,Win32,59.94844434,61b8f3437b89212fae0dfade
3,10.6635,space,11.5383,0,3,3,169,1,,,62da562ad9942a440f6986c9,643773099deb637e8358b231,2023-04-13_04h21.32.672,PRaM,2021.2.3,Win32,59.94844434,61b8f3437b89212fae0dfade
2,11.8774,space,14.3991,0,4,4,214,1,,,62da562ad9942a440f6986c9,643773099deb637e8358b231,2023-04-13_04h21.32.672,PRaM,2021.2.3,Win32,59.94844434,61b8f3437b89212fae0dfade
6,6.5871,space,8.6467,0,5,5,68,1,,,62da562ad9942a440f6986c9,643773099deb637e8358b231,2023-04-13_04h21.32.672,PRaM,2021.2.3,Win32,59.94844434,61b8f3437b89212fae0dfade
3,20.7188,space,20.466,0,6,6,311,1,,,62da562ad9942a440f6986c9,643773099deb637e8358b231,2023-04-13_04h21.32.672,PRaM,2021.2.3,Win32,59.94844434,61b8f3437b89212fae0dfade
6,25.3106,space,24.4579,0,7,7,270,1,,,62da562ad9942a440f6986c9,643773099deb637e8358b231,2023-04-13_04h21.32.672,PRaM,2021.2.3,Win32,59.94844434,61b8f3437b89212fae0dfade
6,14.3336,space,13.0427,0,8,8,239,1,,,62da562ad9942a440f6986c9,643773099deb637e8358b231,2023-04-13_04h21.32.672,PRaM,2021.2.3,Win32,59.94844434,61b8f3437b89212fae0dfade
2,15.546,space,14.5244,0,9,9,36,1,,,62da562ad9942a440f6986c9,643773099deb637e8358b231,2023-04-13_04h21.32.672,PRaM,2021.2.3,Win32,59.94844434,61b8f3437b89212fae0dfade
8,6.8351,space,5.9481,0,10,10,192,1,,,62da562ad9942a440f6986c9,643773099deb637e8358b231,2023-04-13_04h21.32.672,PRaM,2021.2.3,Win32,59.94844434,61b8f3437b89212fae0dfade
2,12.497,space,11.3428,0,11,11,78,1,,,62da562ad9942a440f6986c9,643773099deb637e8358b231,2023-04-13_04h21.32.672,PRaM,2021.2.3,Win32,59.94844434,61b8f3437b89212fae0dfade
5,6.2118,space,5.8626,0,12,12,96,1,,,62da562ad9942a440f6986c9,643773099deb637e8358b231,2023-04-13_04h21.32.672,PRaM,2021.2.3,Win32,59.94844434,61b8f3437b89212fae0dfade
1,13.6699,space,12.8557,0,13,13,354,1,,,62da562ad9942a440f6986c9,643773099deb637e8358b231,2023-04-13_04h21.32.672,PRaM,2021.2.3,Win32,59.94844434,61b8f3437b89212fae0dfade
6,14.4051,space,14.5153,0,14,14,211,1,,,62da562ad9942a440f6986c9,643773099deb637e8358b231,2023-04-13_04h21.32.672,PRaM,2021.2.3,Win32,59.94844434,61b8f3437b89212fae0dfade
2,12.1002,space,11.7602,0,15,15,286,1,,,62da562ad9942a440f6986c9,643773099deb637e8358b231,2023-04-13_04h21.32.672,PRaM,2021.2.3,Win32,59.94844434,61b8f3437b89212fae0dfade
9,8.3025,space,10.7853,0,16,16,208,1,,,62da562ad9942a440f6986c9,643773099deb637e8358b231,2023-04-13_04h21.32.672,PRaM,2021.2.3,Win32,59.94844434,61b8f3437b89212fae0dfade
1,8.3737,space,7.4322,0,17,17,206,1,,,62da562ad9942a440f6986c9,643773099deb637e8358b231,2023-04-13_04h21.32.672,PRaM,2021.2.3,Win32,59.94844434,61b8f3437b89212fae0dfade
5,10.5688,space,9.639,0,18,18,72,1,,,62da562ad9942a440f6986c9,643773099deb637e8358b231,2023-04-13_04h21.32.672,PRaM,2021.2.3,Win32,59.94844434,61b8f3437b89212fae0dfade
3,17.4322,space,16.6783,0,19,19,123,1,,,62da562ad9942a440f6986c9,643773099deb637e8358b231,2023-04-13_04h21.32.672,PRaM,2021.2.3,Win32,59.94844434,61b8f3437b89212fae0dfade
8,5.0202,space,8.1412,0,20,20,3,1,,,62da562ad9942a440f6986c9,643773099deb637e8358b231,2023-04-13_04h21.32.672,PRaM,2021.2.3,Win32,59.94844434,61b8f3437b89212fae0dfade
8,5.4857,space,4.4194,0,21,21,209,1,,,62da562ad9942a440f6986c9,643773099deb637e8358b231,2023-04-13_04h21.32.672,PRaM,2021.2.3,Win32,59.94844434,61b8f3437b89212fae0dfade
8,7.4046,space,6.2859,0,22,22,186,1,,,62da562ad9942a440f6986c9,643773099deb637e8358b231,2023-04-13_04h21.32.672,PRaM,2021.2.3,Win32,59.94844434,61b8f3437b89212fae0dfade
7,11.4504,space,10.1136,0,23,23,112,1,,,62da562ad9942a440f6986c9,643773099deb637e8358b231,2023-04-13_04h21.32.672,PRaM,2021.2.3,Win32,59.94844434,61b8f3437b89212fae0dfade
5,9.9952,space,11.4793,0,24,24,346,1,,,62da562ad9942a440f6986c9,643773099deb637e8358b231,2023-04-13_04h21.32.672,PRaM,2021.2.3,Win32,59.94844434,61b8f3437b89212fae0dfade
2,7.3371,space,8.838,0,25,25,55,1,,,62da562ad9942a440f6986c9,643773099deb637e8358b231,2023-04-13_04h21.32.672,PRaM,2021.2.3,Win32,59.94844434,61b8f3437b89212fae0dfade
7,11.0056,space,13.3088,0,26,26,242,1,,,62da562ad9942a440f6986c9,643773099deb637e8358b231,2023-04-13_04h21.32.672,PRaM,2021.2.3,Win32,59.94844434,61b8f3437b89212fae0dfade
2,7.7153,space,9.3732,0,27,27,13,1,,,62da562ad9942a440f6986c9,643773099deb637e8358b231,2023-04-13_04h21.32.672,PRaM,2021.2.3,Win32,59.94844434,61b8f3437b89212fae0dfade
2,6.5597,space,5.5201,0,28,28,23,1,,,62da562ad9942a440f6986c9,643773099deb637e8358b231,2023-04-13_04h21.32.672,PRaM,2021.2.3,Win32,59.94844434,61b8f3437b89212fae0dfade
3,6.2782,space,5.2292,0,29,29,308,1,,,62da562ad9942a440f6986c9,643773099deb637e8358b231,2023-04-13_04h21.32.672,PRaM,2021.2.3,Win32,59.94844434,61b8f3437b89212fae0dfade
2,6.2787,space,5.7323,0,30,30,161,1,,,62da562ad9942a440f6986c9,643773099deb637e8358b231,2023-04-13_04h21.32.672,PRaM,2021.2.3,Win32,59.94844434,61b8f3437b89212fae0dfade
9,4.7647,space,7.5642,0,31,31,323,1,,,62da562ad9942a440f6986c9,643773099deb637e8358b231,2023-04-13_04h21.32.672,PRaM,2021.2.3,Win32,59.94844434,61b8f3437b89212fae0dfade
1,7.7355,space,8.9912,0,32,32,113,1,,,62da562ad9942a440f6986c9,643773099deb637e8358b231,2023-04-13_04h21.32.672,PRaM,2021.2.3,Win32,59.94844434,61b8f3437b89212fae0dfade
2,6.634,space,5.4316,0,33,33,229,1,,,62da562ad9942a440f6986c9,643773099deb637e8358b231,2023-04-13_04h21.32.672,PRaM,2021.2.3,Win32,59.94844434,61b8f3437b89212fae0dfade
1,7.4892,space,8.3849,0,34,34,35,1,,,62da562ad9942a440f6986c9,643773099deb637e8358b231,2023-04-13_04h21.32.672,PRaM,2021.2.3,Win32,59.94844434,61b8f3437b89212fae0dfade
6,10.3337,space,10.2087,0,35,35,180,1,,,62da562ad9942a440f6986c9,643773099deb637e8358b231,2023-04-13_04h21.32.672,PRaM,2021.2.3,Win32,59.94844434,61b8f3437b89212fae0dfade
2,4.6434,space,3.3385,0,36,36,343,1,,,62da562ad9942a440f6986c9,643773099deb637e8358b231,2023-04-13_04h21.32.672,PRaM,2021.2.3,Win32,59.94844434,61b8f3437b89212fae0dfade
5,11.61,space,10.8769,0,37,37,268,1,,,62da562ad9942a440f6986c9,643773099deb637e8358b231,2023-04-13_04h21.32.672,PRaM,2021.2.3,Win32,59.94844434,61b8f3437b89212fae0dfade
4,8.4547,space,7.2732,0,38,38,151,1,,,62da562ad9942a440f6986c9,643773099deb637e8358b231,2023-04-13_04h21.32.672,PRaM,2021.2.3,Win32,59.94844434,61b8f3437b89212fae0dfade
6,6.6701,space,7.7342,0,39,39,141,1,,,62da562ad9942a440f6986c9,643773099deb637e8358b231,2023-04-13_04h21.32.672,PRaM,2021.2.3,Win32,59.94844434,61b8f3437b89212fae0dfade
3,8.1442,space,9.1617,0,40,40,190,1,,,62da562ad9942a440f6986c9,643773099deb637e8358b231,2023-04-13_04h21.32.672,PRaM,2021.2.3,Win32,59.94844434,61b8f3437b89212fae0dfade
3,10.0327,space,8.9929,0,41,41,218,1,,,62da562ad9942a440f6986c9,643773099deb637e8358b231,2023-04-13_04h21.32.672,PRaM,2021.2.3,Win32,59.94844434,61b8f3437b89212fae0dfade
4,8.0834,space,7.358,0,42,42,213,1,,,62da562ad9942a440f6986c9,643773099deb637e8358b231,2023-04-13_04h21.32.672,PRaM,2021.2.3,Win32,59.94844434,61b8f3437b89212fae0dfade
2,24.7976,space,23.767,0,43,43,210,1,,,62da562ad9942a440f6986c9,643773099deb637e8358b231,2023-04-13_04h21.32.672,PRaM,2021.2.3,Win32,59.94844434,61b8f3437b89212fae0dfade
2,5.8627,space,4.6762,0,44,44,79,1,,,62da562ad9942a440f6986c9,643773099deb637e8358b231,2023-04-13_04h21.32.672,PRaM,2021.2.3,Win32,59.94844434,61b8f3437b89212fae0dfade
7,7.0852,space,6.2152,0,45,45,166,1,,,62da562ad9942a440f6986c9,643773099deb637e8358b231,2023-04-13_04h21.32.672,PRaM,2021.2.3,Win32,59.94844434,61b8f3437b89212fae0dfade
5,7.0353,space,9.8805,0,46,46,9,1,,,62da562ad9942a440f6986c9,643773099deb637e8358b231,2023-04-13_04h21.32.672,PRaM,2021.2.3,Win32,59.94844434,61b8f3437b89212fae0dfade
6,5.2376,space,4.5164,0,47,47,6,1,,,62da562ad9942a440f6986c9,643773099deb637e8358b231,2023-04-13_04h21.32.672,PRaM,2021.2.3,Win32,59.94844434,61b8f3437b89212fae0dfade
3,14.7405,space,13.846,0,48,48,337,1,,,62da562ad9942a440f6986c9,643773099deb637e8358b231,2023-04-13_04h21.32.672,PRaM,2021.2.3,Win32,59.94844434,61b8f3437b89212fae0dfade
7,10.4464,space,12.263,0,49,49,74,1,,,62da562ad9942a440f6986c9,643773099deb637e8358b231,2023-04-13_04h21.32.672,PRaM,2021.2.3,Win32,59.94844434,61b8f3437b89212fae0dfade
6,4.5198,space,6.465,0,50,50,344,1,,,62da562ad9942a440f6986c9,643773099deb637e8358b231,2023-04-13_04h21.32.672,PRaM,2021.2.3,Win32,59.94844434,61b8f3437b89212fae0dfade
4,4.2255,space,4.0475,0,51,51,224,1,,,62da562ad9942a440f6986c9,643773099deb637e8358b231,2023-04-13_04h21.32.672,PRaM,2021.2.3,Win32,59.94844434,61b8f3437b89212fae0dfade
5,5.598,space,4.5538,0,52,52,57,1,,,62da562ad9942a440f6986c9,643773099deb637e8358b231,2023-04-13_04h21.32.672,PRaM,2021.2.3,Win32,59.94844434,61b8f3437b89212fae0dfade
5,9.9432,space,8.9136,0,53,53,133,1,,,62da562ad9942a440f6986c9,643773099deb637e8358b231,2023-04-13_04h21.32.672,PRaM,2021.2.3,Win32,59.94844434,61b8f3437b89212fae0dfade
5,11.0374,space,9.7246,0,54,54,368,1,,,62da562ad9942a440f6986c9,643773099deb637e8358b231,2023-04-13_04h21.32.672,PRaM,2021.2.3,Win32,59.94844434,61b8f3437b89212fae0dfade
3,7.3116,space,6.199,0,55,55,82,1,,,62da562ad9942a440f6986c9,643773099deb637e8358b231,2023-04-13_04h21.32.672,PRaM,2021.2.3,Win32,59.94844434,61b8f3437b89212fae0dfade
9,6.5542,space,9.2048,0,56,56,277,1,,,62da562ad9942a440f6986c9,643773099deb637e8358b231,2023-04-13_04h21.32.672,PRaM,2021.2.3,Win32,59.94844434,61b8f3437b89212fae0dfade
8,6.1166,space,7.0567,0,57,57,80,1,,,62da562ad9942a440f6986c9,643773099deb637e8358b231,2023-04-13_04h21.32.672,PRaM,2021.2.3,Win32,59.94844434,61b8f3437b89212fae0dfade
8,7.108,space,6.2223,0,58,58,147,1,,,62da562ad9942a440f6986c9,643773099deb637e8358b231,2023-04-13_04h21.32.672,PRaM,2021.2.3,Win32,59.94844434,61b8f3437b89212fae0dfade
7,12.7735,space,11.7981,0,59,59,140,1,,,62da562ad9942a440f6986c9,643773099deb637e8358b231,2023-04-13_04h21.32.672,PRaM,2021.2.3,Win32,59.94844434,61b8f3437b89212fae0dfade
8,3.5924,space,3.5473,0,60,60,325,1,,,62da562ad9942a440f6986c9,643773099deb637e8358b231,2023-04-13_04h21.32.672,PRaM,2021.2.3,Win32,59.94844434,61b8f3437b89212fae0dfade
7,5.7782,space,4.7373,0,61,61,313,1,,,62da562ad9942a440f6986c9,643773099deb637e8358b231,2023-04-13_04h21.32.672,PRaM,2021.2.3,Win32,59.94844434,61b8f3437b89212fae0dfade
4,4.5659,space,5.4086,0,62,62,217,1,,,62da562ad9942a440f6986c9,643773099deb637e8358b231,2023-04-13_04h21.32.672,PRaM,2021.2.3,Win32,59.94844434,61b8f3437b89212fae0dfade
2,3.381,space,3.304,0,63,63,146,1,,,62da562ad9942a440f6986c9,643773099deb637e8358b231,2023-04-13_04h21.32.672,PRaM,2021.2.3,Win32,59.94844434,61b8f3437b89212fae0dfade
7,3.703,space,2.7958,0,64,64,118,1,,,62da562ad9942a440f6986c9,643773099deb637e8358b231,2023-04-13_04h21.32.672,PRaM,2021.2.3,Win32,59.94844434,61b8f3437b89212fae0dfade
8,4.2977,space,3.1829,0,65,65,335,1,,,62da562ad9942a440f6986c9,643773099deb637e8358b231,2023-04-13_04h21.32.672,PRaM,2021.2.3,Win32,59.94844434,61b8f3437b89212fae0dfade
3,6.0447,space,4.5916,0,66,66,128,1,,,62da562ad9942a440f6986c9,643773099deb637e8358b231,2023-04-13_04h21.32.672,PRaM,2021.2.3,Win32,59.94844434,61b8f3437b89212fae0dfade
8,3.6154,space,2.5224,0,67,67,269,1,,,62da562ad9942a440f6986c9,643773099deb637e8358b231,2023-04-13_04h21.32.672,PRaM,2021.2.3,Win32,59.94844434,61b8f3437b89212fae0dfade
5,7.7218,space,6.4676,0,68,68,171,1,,,62da562ad9942a440f6986c9,643773099deb637e8358b231,2023-04-13_04h21.32.672,PRaM,2021.2.3,Win32,59.94844434,61b8f3437b89212fae0dfade
2,6.9248,space,5.9341,0,69,69,359,1,,,62da562ad9942a440f6986c9,643773099deb637e8358b231,2023-04-13_04h21.32.672,PRaM,2021.2.3,Win32,59.94844434,61b8f3437b89212fae0dfade
3,9.2233,space,8.0953,0,70,70,353,1,,,62da562ad9942a440f6986c9,643773099deb637e8358b231,2023-04-13_04h21.32.672,PRaM,2021.2.3,Win32,59.94844434,61b8f3437b89212fae0dfade
5,9.6744,space,8.4163,0,71,71,317,1,,,62da562ad9942a440f6986c9,643773099deb637e8358b231,2023-04-13_04h21.32.672,PRaM,2021.2.3,Win32,59.94844434,61b8f3437b89212fae0dfade
7,11.6626,space,10.5587,0,72,72,226,1,,,62da562ad9942a440f6986c9,643773099deb637e8358b231,2023-04-13_04h21.32.672,PRaM,2021.2.3,Win32,59.94844434,61b8f3437b89212fae0dfade
6,10.629,space,10.7885,0,73,73,351,1,,,62da562ad9942a440f6986c9,643773099deb637e8358b231,2023-04-13_04h21.32.672,PRaM,2021.2.3,Win32,59.94844434,61b8f3437b89212fae0dfade
7,4.5715,space,3.4484,0,74,74,238,1,,,62da562ad9942a440f6986c9,643773099deb637e8358b231,2023-04-13_04h21.32.672,PRaM,2021.2.3,Win32,59.94844434,61b8f3437b89212fae0dfade
6,6.9919,space,5.9092,0,75,75,121,1,,,62da562ad9942a440f6986c9,643773099deb637e8358b231,2023-04-13_04h21.32.672,PRaM,2021.2.3,Win32,59.94844434,61b8f3437b89212fae0dfade
4,5.1688,space,4.8438,0,76,76,314,1,,,62da562ad9942a440f6986c9,643773099deb637e8358b231,2023-04-13_04h21.32.672,PRaM,2021.2.3,Win32,59.94844434,61b8f3437b89212fae0dfade
6,4.4685,space,3.3533,0,77,77,98,1,,,62da562ad9942a440f6986c9,643773099deb637e8358b231,2023-04-13_04h21.32.672,PRaM,2021.2.3,Win32,59.94844434,61b8f3437b89212fae0dfade
2,4.7152,space,4.1625,0,78,78,230,1,,,62da562ad9942a440f6986c9,643773099deb637e8358b231,2023-04-13_04h21.32.672,PRaM,2021.2.3,Win32,59.94844434,61b8f3437b89212fae0dfade
2,5.2524,space,5.9279,0,79,79,265,1,,,62da562ad9942a440f6986c9,643773099deb637e8358b231,2023-04-13_04h21.32.672,PRaM,2021.2.3,Win32,59.94844434,61b8f3437b89212fae0dfade
2,3.3845,space,2.0457,0,80,80,260,1,,,62da562ad9942a440f6986c9,643773099deb637e8358b231,2023-04-13_04h21.32.672,PRaM,2021.2.3,Win32,59.94844434,61b8f3437b89212fae0dfade
3,5.8551,space,4.5194,0,81,81,205,1,,,62da562ad9942a440f6986c9,643773099deb637e8358b231,2023-04-13_04h21.32.672,PRaM,2021.2.3,Win32,59.94844434,61b8f3437b89212fae0dfade
2,5.8426,space,4.9345,0,82,82,1,1,,,62da562ad9942a440f6986c9,643773099deb637e8358b231,2023-04-13_04h21.32.672,PRaM,2021.2.3,Win32,59.94844434,61b8f3437b89212fae0dfade
6,5.5046,space,4.1673,0,83,83,297,1,,,62da562ad9942a440f6986c9,643773099deb637e8358b231,2023-04-13_04h21.32.672,PRaM,2021.2.3,Win32,59.94844434,61b8f3437b89212fae0dfade
6,4.6808,space,3.6184,0,84,84,223,1,,,62da562ad9942a440f6986c9,643773099deb637e8358b231,2023-04-13_04h21.32.672,PRaM,2021.2.3,Win32,59.94844434,61b8f3437b89212fae0dfade
2,5.2091,space,4.0863,0,85,85,227,1,,,62da562ad9942a440f6986c9,643773099deb637e8358b231,2023-04-13_04h21.32.672,PRaM,2021.2.3,Win32,59.94844434,61b8f3437b89212fae0dfade
7,5.4412,space,4.1885,0,86,86,16,1,,,62da562ad9942a440f6986c9,643773099deb637e8358b231,2023-04-13_04h21.32.672,PRaM,2021.2.3,Win32,59.94844434,61b8f3437b89212fae0dfade
2,6.6037,space,5.405,0,87,87,245,1,,,62da562ad9942a440f6986c9,643773099deb637e8358b231,2023-04-13_04h21.32.672,PRaM,2021.2.3,Win32,59.94844434,61b8f3437b89212fae0dfade
5,8.2103,space,7.9689,0,88,88,63,1,,,62da562ad9942a440f6986c9,643773099deb637e8358b231,2023-04-13_04h21.32.672,PRaM,2021.2.3,Win32,59.94844434,61b8f3437b89212fae0dfade
5,6.4756,space,5.2031,0,89,89,29,1,,,62da562ad9942a440f6986c9,643773099deb637e8358b231,2023-04-13_04h21.32.672,PRaM,2021.2.3,Win32,59.94844434,61b8f3437b89212fae0dfade
7,3.3534,space,2.3705,0,90,90,86,1,,,62da562ad9942a440f6986c9,643773099deb637e8358b231,2023-04-13_04h21.32.672,PRaM,2021.2.3,Win32,59.94844434,61b8f3437b89212fae0dfade
3,10.5097,space,9.699,0,91,91,0,1,,,62da562ad9942a440f6986c9,643773099deb637e8358b231,2023-04-13_04h21.32.672,PRaM,2021.2.3,Win32,59.94844434,61b8f3437b89212fae0dfade
5,6.4058,space,5.1576,0,92,92,309,1,,,62da562ad9942a440f6986c9,643773099deb637e8358b231,2023-04-13_04h21.32.672,PRaM,2021.2.3,Win32,59.94844434,61b8f3437b89212fae0dfade
1,5.6317,space,7.3448,0,93,93,262,1,,,62da562ad9942a440f6986c9,643773099deb637e8358b231,2023-04-13_04h21.32.672,PRaM,2021.2.3,Win32,59.94844434,61b8f3437b89212fae0dfade
5,4.1665,space,2.9441,0,94,94,361,1,,,62da562ad9942a440f6986c9,643773099deb637e8358b231,2023-04-13_04h21.32.672,PRaM,2021.2.3,Win32,59.94844434,61b8f3437b89212fae0dfade
7,5.5291,space,4.2829,0,95,95,7,1,,,62da562ad9942a440f6986c9,643773099deb637e8358b231,2023-04-13_04h21.32.672,PRaM,2021.2.3,Win32,59.94844434,61b8f3437b89212fae0dfade
6,5.742,space,4.1877,0,96,96,115,1,,,62da562ad9942a440f6986c9,643773099deb637e8358b231,2023-04-13_04h21.32.672,PRaM,2021.2.3,Win32,59.94844434,61b8f3437b89212fae0dfade
6,5.8624,space,4.9095,0,97,97,21,1,,,62da562ad9942a440f6986c9,643773099deb637e8358b231,2023-04-13_04h21.32.672,PRaM,2021.2.3,Win32,59.94844434,61b8f3437b89212fae0dfade
5,5.1191,space,3.8744,0,98,98,22,1,,,62da562ad9942a440f6986c9,643773099deb637e8358b231,2023-04-13_04h21.32.672,PRaM,2021.2.3,Win32,59.94844434,61b8f3437b89212fae0dfade
6,5.3422,space,4.0497,0,99,99,76,1,,,62da562ad9942a440f6986c9,643773099deb637e8358b231,2023-04-13_04h21.32.672,PRaM,2021.2.3,Win32,59.94844434,61b8f3437b89212fae0dfade
2,5.8572,space,4.5617,0,100,100,195,1,,,62da562ad9942a440f6986c9,643773099deb637e8358b231,2023-04-13_04h21.32.672,PRaM,2021.2.3,Win32,59.94844434,61b8f3437b89212fae0dfade
2,13.5486,space,12.2824,0,101,101,126,1,,,62da562ad9942a440f6986c9,643773099deb637e8358b231,2023-04-13_04h21.32.672,PRaM,2021.2.3,Win32,59.94844434,61b8f3437b89212fae0dfade
6,4.9664,space,8.703,0,102,102,278,1,,,62da562ad9942a440f6986c9,643773099deb637e8358b231,2023-04-13_04h21.32.672,PRaM,2021.2.3,Win32,59.94844434,61b8f3437b89212fae0dfade
4,6.3078,space,4.7312,0,103,103,45,1,,,62da562ad9942a440f6986c9,643773099deb637e8358b231,2023-04-13_04h21.32.672,PRaM,2021.2.3,Win32,59.94844434,61b8f3437b89212fae0dfade
3,2.8736,space,2.3813,0,104,104,243,1,,,62da562ad9942a440f6986c9,643773099deb637e8358b231,2023-04-13_04h21.32.672,PRaM,2021.2.3,Win32,59.94844434,61b8f3437b89212fae0dfade
2,8.0097,space,6.768,0,105,105,26,1,,,62da562ad9942a440f6986c9,643773099deb637e8358b231,2023-04-13_04h21.32.672,PRaM,2021.2.3,Win32,59.94844434,61b8f3437b89212fae0dfade
2,7.3989,space,6.2249,0,106,106,91,1,,,62da562ad9942a440f6986c9,643773099deb637e8358b231,2023-04-13_04h21.32.672,PRaM,2021.2.3,Win32,59.94844434,61b8f3437b89212fae0dfade
4,3.6293,space,5.1912,0,107,107,37,1,,,62da562ad9942a440f6986c9,643773099deb637e8358b231,2023-04-13_04h21.32.672,PRaM,2021.2.3,Win32,59.94844434,61b8f3437b89212fae0dfade
1,4.6877,space,3.7578,0,108,108,39,1,,,62da562ad9942a440f6986c9,643773099deb637e8358b231,2023-04-13_04h21.32.672,PRaM,2021.2.3,Win32,59.94844434,61b8f3437b89212fae0dfade
8,4.1649,space,5.1386,0,109,109,17,1,,,62da562ad9942a440f6986c9,643773099deb637e8358b231,2023-04-13_04h21.32.672,PRaM,2021.2.3,Win32,59.94844434,61b8f3437b89212fae0dfade
9,2.4145,space,1.7862,0,110,110,326,1,,,62da562ad9942a440f6986c9,643773099deb637e8358b231,2023-04-13_04h21.32.672,PRaM,2021.2.3,Win32,59.94844434,61b8f3437b89212fae0dfade
6,5.5037,space,4.2469,0,111,111,304,1,,,62da562ad9942a440f6986c9,643773099deb637e8358b231,2023-04-13_04h21.32.672,PRaM,2021.2.3,Win32,59.94844434,61b8f3437b89212fae0dfade
7,4.1901,space,3.0628,0,112,112,66,1,,,62da562ad9942a440f6986c9,643773099deb637e8358b231,2023-04-13_04h21.32.672,PRaM,2021.2.3,Win32,59.94844434,61b8f3437b89212fae0dfade
2,7.0508,space,7.1798,0,113,113,40,1,,,62da562ad9942a440f6986c9,643773099deb637e8358b231,2023-04-13_04h21.32.672,PRaM,2021.2.3,Win32,59.94844434,61b8f3437b89212fae0dfade
5,9.6269,space,8.7196,0,114,114,318,1,,,62da562ad9942a440f6986c9,643773099deb637e8358b231,2023-04-13_04h21.32.672,PRaM,2021.2.3,Win32,59.94844434,61b8f3437b89212fae0dfade
6,5.2863,space,4.4922,0,115,115,109,1,,,62da562ad9942a440f6986c9,643773099deb637e8358b231,2023-04-13_04h21.32.672,PRaM,2021.2.3,Win32,59.94844434,61b8f3437b89212fae0dfade
9,2.2448,space,1.2383,0,116,116,276,1,,,62da562ad9942a440f6986c9,643773099deb637e8358b231,2023-04-13_04h21.32.672,PRaM,2021.2.3,Win32,59.94844434,61b8f3437b89212fae0dfade
5,8.9809,space,7.7964,0,117,117,199,1,,,62da562ad9942a440f6986c9,643773099deb637e8358b231,2023-04-13_04h21.32.672,PRaM,2021.2.3,Win32,59.94844434,61b8f3437b89212fae0dfade
3,4.6104,space,3.4371,0,118,118,148,1,,,62da562ad9942a440f6986c9,643773099deb637e8358b231,2023-04-13_04h21.32.672,PRaM,2021.2.3,Win32,59.94844434,61b8f3437b89212fae0dfade
2,5.5246,space,4.4094,0,119,119,231,1,,,62da562ad9942a440f6986c9,643773099deb637e8358b231,2023-04-13_04h21.32.672,PRaM,2021.2.3,Win32,59.94844434,61b8f3437b89212fae0dfade
6,3.4364,space,3.9107,0,120,120,144,1,,,62da562ad9942a440f6986c9,643773099deb637e8358b231,2023-04-13_04h21.32.672,PRaM,2021.2.3,Win32,59.94844434,61b8f3437b89212fae0dfade
2,6.1434,space,6.5418,0,121,121,241,1,,,62da562ad9942a440f6986c9,643773099deb637e8358b231,2023-04-13_04h21.32.672,PRaM,2021.2.3,Win32,59.94844434,61b8f3437b89212fae0dfade
4,7.0273,space,5.6731,0,122,122,105,1,,,62da562ad9942a440f6986c9,643773099deb637e8358b231,2023-04-13_04h21.32.672,PRaM,2021.2.3,Win32,59.94844434,61b8f3437b89212fae0dfade
5,5.3747,space,4.1433,0,123,123,327,1,,,62da562ad9942a440f6986c9,643773099deb637e8358b231,2023-04-13_04h21.32.672,PRaM,2021.2.3,Win32,59.94844434,61b8f3437b89212fae0dfade
3,4.6699,space,3.1051,0,124,124,125,1,,,62da562ad9942a440f6986c9,643773099deb637e8358b231,2023-04-13_04h21.32.672,PRaM,2021.2.3,Win32,59.94844434,61b8f3437b89212fae0dfade
2,6.9148,space,5.9821,0,125,125,315,1,,,62da562ad9942a440f6986c9,643773099deb637e8358b231,2023-04-13_04h21.32.672,PRaM,2021.2.3,Win32,59.94844434,61b8f3437b89212fae0dfade
7,2.8589,space,2.5758,0,126,126,294,1,,,62da562ad9942a440f6986c9,643773099deb637e8358b231,2023-04-13_04h21.32.672,PRaM,2021.2.3,Win32,59.94844434,61b8f3437b89212fae0dfade
5,8.0592,space,8.5061,0,127,127,198,1,,,62da562ad9942a440f6986c9,643773099deb637e8358b231,2023-04-13_04h21.32.672,PRaM,2021.2.3,Win32,59.94844434,61b8f3437b89212fae0dfade
3,3.8989,space,2.5987,0,128,128,191,1,,,62da562ad9942a440f6986c9,643773099deb637e8358b231,2023-04-13_04h21.32.672,PRaM,2021.2.3,Win32,59.94844434,61b8f3437b89212fae0dfade
6,6.2154,space,4.5971,0,129,129,336,1,,,62da562ad9942a440f6986c9,643773099deb637e8358b231,2023-04-13_04h21.32.672,PRaM,2021.2.3,Win32,59.94844434,61b8f3437b89212fae0dfade
2,5.4703,space,3.8565,0,130,130,18,1,,,62da562ad9942a440f6986c9,643773099deb637e8358b231,2023-04-13_04h21.32.672,PRaM,2021.2.3,Win32,59.94844434,61b8f3437b89212fae0dfade
4,5.1295,space,3.4891,0,131,131,290,1,,,62da562ad9942a440f6986c9,643773099deb637e8358b231,2023-04-13_04h21.32.672,PRaM,2021.2.3,Win32,59.94844434,61b8f3437b89212fae0dfade
1,3.9778,space,3.2589,0,132,132,332,1,,,62da562ad9942a440f6986c9,643773099deb637e8358b231,2023-04-13_04h21.32.672,PRaM,2021.2.3,Win32,59.94844434,61b8f3437b89212fae0dfade
3,6.5512,space,5.4835,0,133,133,310,1,,,62da562ad9942a440f6986c9,643773099deb637e8358b231,2023-04-13_04h21.32.672,PRaM,2021.2.3,Win32,59.94844434,61b8f3437b89212fae0dfade
3,8.665,space,7.1393,0,134,134,193,1,,,62da562ad9942a440f6986c9,643773099deb637e8358b231,2023-04-13_04h21.32.672,PRaM,2021.2.3,Win32,59.94844434,61b8f3437b89212fae0dfade
2,7.4949,space,5.9585,0,135,135,202,1,,,62da562ad9942a440f6986c9,643773099deb637e8358b231,2023-04-13_04h21.32.672,PRaM,2021.2.3,Win32,59.94844434,61b8f3437b89212fae0dfade
2,4.0366,space,2.4721,0,136,136,157,1,,,62da562ad9942a440f6986c9,643773099deb637e8358b231,2023-04-13_04h21.32.672,PRaM,2021.2.3,Win32,59.94844434,61b8f3437b89212fae0dfade
3,4.4518,space,3.1604,0,137,137,102,1,,,62da562ad9942a440f6986c9,643773099deb637e8358b231,2023-04-13_04h21.32.672,PRaM,2021.2.3,Win32,59.94844434,61b8f3437b89212fae0dfade
5,6.5832,space,4.9425,0,138,138,244,1,,,62da562ad9942a440f6986c9,643773099deb637e8358b231,2023-04-13_04h21.32.672,PRaM,2021.2.3,Win32,59.94844434,61b8f3437b89212fae0dfade
1,3.52,space,2.841,0,139,139,356,1,,,62da562ad9942a440f6986c9,643773099deb637e8358b231,2023-04-13_04h21.32.672,PRaM,2021.2.3,Win32,59.94844434,61b8f3437b89212fae0dfade
1,4.2461,space,2.735,0,140,140,247,1,,,62da562ad9942a440f6986c9,643773099deb637e8358b231,2023-04-13_04h21.32.672,PRaM,2021.2.3,Win32,59.94844434,61b8f3437b89212fae0dfade
1,2.2483,space,1.9263,0,141,141,124,1,,,62da562ad9942a440f6986c9,643773099deb637e8358b231,2023-04-13_04h21.32.672,PRaM,2021.2.3,Win32,59.94844434,61b8f3437b89212fae0dfade
2,3.4602,space,2.01,0,142,142,212,1,,,62da562ad9942a440f6986c9,643773099deb637e8358b231,2023-04-13_04h21.32.672,PRaM,2021.2.3,Win32,59.94844434,61b8f3437b89212fae0dfade
5,6.0558,space,5.088,0,143,143,339,1,,,62da562ad9942a440f6986c9,643773099deb637e8358b231,2023-04-13_04h21.32.672,PRaM,2021.2.3,Win32,59.94844434,61b8f3437b89212fae0dfade
6,5.9795,space,6.2009,0,144,144,372,1,,,62da562ad9942a440f6986c9,643773099deb637e8358b231,2023-04-13_04h21.32.672,PRaM,2021.2.3,Win32,59.94844434,61b8f3437b89212fae0dfade
4,4.9246,space,4.1732,0,145,145,25,1,,,62da562ad9942a440f6986c9,643773099deb637e8358b231,2023-04-13_04h21.32.672,PRaM,2021.2.3,Win32,59.94844434,61b8f3437b89212fae0dfade
8,3.1399,space,2.0114,0,146,146,38,1,,,62da562ad9942a440f6986c9,643773099deb637e8358b231,2023-04-13_04h21.32.672,PRaM,2021.2.3,Win32,59.94844434,61b8f3437b89212fae0dfade
1,3.3278,space,2.1315,0,147,147,329,1,,,62da562ad9942a440f6986c9,643773099deb637e8358b231,2023-04-13_04h21.32.672,PRaM,2021.2.3,Win32,59.94844434,61b8f3437b89212fae0dfade
5,5.6581,space,4.3893,0,148,148,240,1,,,62da562ad9942a440f6986c9,643773099deb637e8358b231,2023-04-13_04h21.32.672,PRaM,2021.2.3,Win32,59.94844434,61b8f3437b89212fae0dfade
4,5.2087,space,3.6985,0,149,149,14,1,,,62da562ad9942a440f6986c9,643773099deb637e8358b231,2023-04-13_04h21.32.672,PRaM,2021.2.3,Win32,59.94844434,61b8f3437b89212fae0dfade
2,2.6838,space,1.4109,0,150,150,15,1,,,62da562ad9942a440f6986c9,643773099deb637e8358b231,2023-04-13_04h21.32.672,PRaM,2021.2.3,Win32,59.94844434,61b8f3437b89212fae0dfade
5,3.3673,space,2.4379,0,151,151,330,1,,,62da562ad9942a440f6986c9,643773099deb637e8358b231,2023-04-13_04h21.32.672,PRaM,2021.2.3,Win32,59.94844434,61b8f3437b89212fae0dfade
2,3.5716,space,1.996,0,152,152,129,1,,,62da562ad9942a440f6986c9,643773099deb637e8358b231,2023-04-13_04h21.32.672,PRaM,2021.2.3,Win32,59.94844434,61b8f3437b89212fae0dfade
2,4.5915,space,3.0268,0,153,153,2,1,,,62da562ad9942a440f6986c9,643773099deb637e8358b231,2023-04-13_04h21.32.672,PRaM,2021.2.3,Win32,59.94844434,61b8f3437b89212fae0dfade
2,3.4484,space,1.6666,0,154,154,103,1,,,62da562ad9942a440f6986c9,643773099deb637e8358b231,2023-04-13_04h21.32.672,PRaM,2021.2.3,Win32,59.94844434,61b8f3437b89212fae0dfade
2,4.8056,space,3.1601,0,155,155,203,1,,,62da562ad9942a440f6986c9,643773099deb637e8358b231,2023-04-13_04h21.32.672,PRaM,2021.2.3,Win32,59.94844434,61b8f3437b89212fae0dfade
1,7.917,space,9.6216,0,156,156,89,1,,,62da562ad9942a440f6986c9,643773099deb637e8358b231,2023-04-13_04h21.32.672,PRaM,2021.2.3,Win32,59.94844434,61b8f3437b89212fae0dfade
3,3.4576,space,1.8917,0,157,157,274,1,,,62da562ad9942a440f6986c9,643773099deb637e8358b231,2023-04-13_04h21.32.672,PRaM,2021.2.3,Win32,59.94844434,61b8f3437b89212fae0dfade
1,2.5183,space,1.623,0,158,158,272,1,,,62da562ad9942a440f6986c9,643773099deb637e8358b231,2023-04-13_04h21.32.672,PRaM,2021.2.3,Win32,59.94844434,61b8f3437b89212fae0dfade
1,2.2951,space,1.7684,0,159,159,266,1,,,62da562ad9942a440f6986c9,643773099deb637e8358b231,2023-04-13_04h21.32.672,PRaM,2021.2.3,Win32,59.94844434,61b8f3437b89212fae0dfade
6,4.1886,space,4.3392,0,160,160,281,1,,,62da562ad9942a440f6986c9,643773099deb637e8358b231,2023-04-13_04h21.32.672,PRaM,2021.2.3,Win32,59.94844434,61b8f3437b89212fae0dfade
3,9.519,space,8.1816,0,161,161,187,1,,,62da562ad9942a440f6986c9,643773099deb637e8358b231,2023-04-13_04h21.32.672,PRaM,2021.2.3,Win32,59.94844434,61b8f3437b89212fae0dfade
6,8.6758,space,7.0968,0,162,162,298,1,,,62da562ad9942a440f6986c9,643773099deb637e8358b231,2023-04-13_04h21.32.672,PRaM,2021.2.3,Win32,59.94844434,61b8f3437b89212fae0dfade
6,3.4526,space,2.0045,0,163,163,43,1,,,62da562ad9942a440f6986c9,643773099deb637e8358b231,2023-04-13_04h21.32.672,PRaM,2021.2.3,Win32,59.94844434,61b8f3437b89212fae0dfade
8,2.6632,space,1.9227,0,164,164,280,1,,,62da562ad9942a440f6986c9,643773099deb637e8358b231,2023-04-13_04h21.32.672,PRaM,2021.2.3,Win32,59.94844434,61b8f3437b89212fae0dfade
5,5.624,space,4.0419,0,165,165,90,1,,,62da562ad9942a440f6986c9,643773099deb637e8358b231,2023-04-13_04h21.32.672,PRaM,2021.2.3,Win32,59.94844434,61b8f3437b89212fae0dfade
6,5.5111,space,6.3742,0,166,166,107,1,,,62da562ad9942a440f6986c9,643773099deb637e8358b231,2023-04-13_04h21.32.672,PRaM,2021.2.3,Win32,59.94844434,61b8f3437b89212fae0dfade
3,4.1761,space,2.6717,0,167,167,138,1,,,62da562ad9942a440f6986c9,643773099deb637e8358b231,2023-04-13_04h21.32.672,PRaM,2021.2.3,Win32,59.94844434,61b8f3437b89212fae0dfade
2,4.1469,space,2.9089,0,168,168,316,1,,,62da562ad9942a440f6986c9,643773099deb637e8358b231,2023-04-13_04h21.32.672,PRaM,2021.2.3,Win32,59.94844434,61b8f3437b89212fae0dfade
6,4.6368,space,3.1336,0,169,169,120,1,,,62da562ad9942a440f6986c9,643773099deb637e8358b231,2023-04-13_04h21.32.672,PRaM,2021.2.3,Win32,59.94844434,61b8f3437b89212fae0dfade
6,3.6765,space,2.5108,0,170,170,288,1,,,62da562ad9942a440f6986c9,643773099deb637e8358b231,2023-04-13_04h21.32.672,PRaM,2021.2.3,Win32,59.94844434,61b8f3437b89212fae0dfade
2,4.1595,space,4.8198,0,171,171,349,1,,,62da562ad9942a440f6986c9,643773099deb637e8358b231,2023-04-13_04h21.32.672,PRaM,2021.2.3,Win32,59.94844434,61b8f3437b89212fae0dfade
2,2.9766,space,1.4109,0,172,172,373,1,,,62da562ad9942a440f6986c9,643773099deb637e8358b231,2023-04-13_04h21.32.672,PRaM,2021.2.3,Win32,59.94844434,61b8f3437b89212fae0dfade
3,4.5885,space,2.9229,0,173,173,258,1,,,62da562ad9942a440f6986c9,643773099deb637e8358b231,2023-04-13_04h21.32.672,PRaM,2021.2.3,Win32,59.94844434,61b8f3437b89212fae0dfade
6,4.2019,space,3.1379,0,174,174,119,1,,,62da562ad9942a440f6986c9,643773099deb637e8358b231,2023-04-13_04h21.32.672,PRaM,2021.2.3,Win32,59.94844434,61b8f3437b89212fae0dfade
8,3.7573,space,2.1833,0,175,175,279,1,,,62da562ad9942a440f6986c9,643773099deb637e8358b231,2023-04-13_04h21.32.672,PRaM,2021.2.3,Win32,59.94844434,61b8f3437b89212fae0dfade
2,10.3053,space,9.2288,0,176,176,358,1,,,62da562ad9942a440f6986c9,643773099deb637e8358b231,2023-04-13_04h21.32.672,PRaM,2021.2.3,Win32,59.94844434,61b8f3437b89212fae0dfade
2,6.6831,space,5.816,0,177,177,284,1,,,62da562ad9942a440f6986c9,643773099deb637e8358b231,2023-04-13_04h21.32.672,PRaM,2021.2.3,Win32,59.94844434,61b8f3437b89212fae0dfade
8,3.0921,space,3.418,0,178,178,291,1,,,62da562ad9942a440f6986c9,643773099deb637e8358b231,2023-04-13_04h21.32.672,PRaM,2021.2.3,Win32,59.94844434,61b8f3437b89212fae0dfade
2,4.9924,space,4.0007,0,179,179,81,1,,,62da562ad9942a440f6986c9,643773099deb637e8358b231,2023-04-13_04h21.32.672,PRaM,2021.2.3,Win32,59.94844434,61b8f3437b89212fae0dfade
7,5.2442,space,4.5977,0,180,180,4,1,,,62da562ad9942a440f6986c9,643773099deb637e8358b231,2023-04-13_04h21.32.672,PRaM,2021.2.3,Win32,59.94844434,61b8f3437b89212fae0dfade
5,4.192,space,2.5493,0,181,181,111,1,,,62da562ad9942a440f6986c9,643773099deb637e8358b231,2023-04-13_04h21.32.672,PRaM,2021.2.3,Win32,59.94844434,61b8f3437b89212fae0dfade
7,6.8594,space,5.7884,0,182,182,364,1,,,62da562ad9942a440f6986c9,643773099deb637e8358b231,2023-04-13_04h21.32.672,PRaM,2021.2.3,Win32,59.94844434,61b8f3437b89212fae0dfade
5,4.1347,space,3.67,0,183,183,370,1,,,62da562ad9942a440f6986c9,643773099deb637e8358b231,2023-04-13_04h21.32.672,PRaM,2021.2.3,Win32,59.94844434,61b8f3437b89212fae0dfade
3,3.1656,space,2.5102,0,184,184,188,1,,,62da562ad9942a440f6986c9,643773099deb637e8358b231,2023-04-13_04h21.32.672,PRaM,2021.2.3,Win32,59.94844434,61b8f3437b89212fae0dfade
2,3.1946,space,2.3213,0,185,185,50,1,,,62da562ad9942a440f6986c9,643773099deb637e8358b231,2023-04-13_04h21.32.672,PRaM,2021.2.3,Win32,59.94844434,61b8f3437b89212fae0dfade
5,5.0742,space,3.4368,0,186,186,19,1,,,62da562ad9942a440f6986c9,643773099deb637e8358b231,2023-04-13_04h21.32.672,PRaM,2021.2.3,Win32,59.94844434,61b8f3437b89212fae0dfade
4,5.9966,space,6.0814,0,187,187,71,1,,,62da562ad9942a440f6986c9,643773099deb637e8358b231,2023-04-13_04h21.32.672,PRaM,2021.2.3,Win32,59.94844434,61b8f3437b89212fae0dfade
5,2.7617,space,1.0956,0,188,188,352,1,,,62da562ad9942a440f6986c9,643773099deb637e8358b231,2023-04-13_04h21.32.672,PRaM,2021.2.3,Win32,59.94844434,61b8f3437b89212fae0dfade
6,3.8862,space,2.253,0,189,189,152,1,,,62da562ad9942a440f6986c9,643773099deb637e8358b231,2023-04-13_04h21.32.672,PRaM,2021.2.3,Win32,59.94844434,61b8f3437b89212fae0dfade
4,4.204,space,2.62,0,190,190,67,1,,,62da562ad9942a440f6986c9,643773099deb637e8358b231,2023-04-13_04h21.32.672,PRaM,2021.2.3,Win32,59.94844434,61b8f3437b89212fae0dfade
1,3.439,space,2.3683,0,191,191,49,1,,,62da562ad9942a440f6986c9,643773099deb637e8358b231,2023-04-13_04h21.32.672,PRaM,2021.2.3,Win32,59.94844434,61b8f3437b89212fae0dfade
5,4.2215,space,2.7135,0,192,192,12,1,,,62da562ad9942a440f6986c9,643773099deb637e8358b231,2023-04-13_04h21.32.672,PRaM,2021.2.3,Win32,59.94844434,61b8f3437b89212fae0dfade
1,2.6017,space,1.031,0,193,193,299,1,,,62da562ad9942a440f6986c9,643773099deb637e8358b231,2023-04-13_04h21.32.672,PRaM,2021.2.3,Win32,59.94844434,61b8f3437b89212fae0dfade
5,4.464,space,2.8425,0,194,194,117,1,,,62da562ad9942a440f6986c9,643773099deb637e8358b231,2023-04-13_04h21.32.672,PRaM,2021.2.3,Win32,59.94844434,61b8f3437b89212fae0dfade
6,7.2517,space,5.6903,0,195,195,334,1,,,62da562ad9942a440f6986c9,643773099deb637e8358b231,2023-04-13_04h21.32.672,PRaM,2021.2.3,Win32,59.94844434,61b8f3437b89212fae0dfade
2,3.1197,space,1.5545,0,196,196,30,1,,,62da562ad9942a440f6986c9,643773099deb637e8358b231,2023-04-13_04h21.32.672,PRaM,2021.2.3,Win32,59.94844434,61b8f3437b89212fae0dfade
5,6.2219,space,7.1604,0,197,197,233,1,,,62da562ad9942a440f6986c9,643773099deb637e8358b231,2023-04-13_04h21.32.672,PRaM,2021.2.3,Win32,59.94844434,61b8f3437b89212fae0dfade
1,6.9372,space,5.8102,0,198,198,44,1,,,62da562ad9942a440f6986c9,643773099deb637e8358b231,2023-04-13_04h21.32.672,PRaM,2021.2.3,Win32,59.94844434,61b8f3437b89212fae0dfade
5,2.8635,space,1.2197,0,199,199,306,1,,,62da562ad9942a440f6986c9,643773099deb637e8358b231,2023-04-13_04h21.32.672,PRaM,2021.2.3,Win32,59.94844434,61b8f3437b89212fae0dfade
2,4.2183,space,2.7144,0,200,200,248,1,,,62da562ad9942a440f6986c9,643773099deb637e8358b231,2023-04-13_04h21.32.672,PRaM,2021.2.3,Win32,59.94844434,61b8f3437b89212fae0dfade
6,4.6092,space,3.5326,0,201,201,273,1,,,62da562ad9942a440f6986c9,643773099deb637e8358b231,2023-04-13_04h21.32.672,PRaM,2021.2.3,Win32,59.94844434,61b8f3437b89212fae0dfade
8,3.3771,space,2.8452,0,202,202,59,1,,,62da562ad9942a440f6986c9,643773099deb637e8358b231,2023-04-13_04h21.32.672,PRaM,2021.2.3,Win32,59.94844434,61b8f3437b89212fae0dfade
2,3.1162,space,2.1933,0,203,203,155,1,,,62da562ad9942a440f6986c9,643773099deb637e8358b231,2023-04-13_04h21.32.672,PRaM,2021.2.3,Win32,59.94844434,61b8f3437b89212fae0dfade
4,5.9663,space,4.5373,0,204,204,27,1,,,62da562ad9942a440f6986c9,643773099deb637e8358b231,2023-04-13_04h21.32.672,PRaM,2021.2.3,Win32,59.94844434,61b8f3437b89212fae0dfade
3,4.2686,space,2.6263,0,205,205,360,1,,,62da562ad9942a440f6986c9,643773099deb637e8358b231,2023-04-13_04h21.32.672,PRaM,2021.2.3,Win32,59.94844434,61b8f3437b89212fae0dfade
3,3.5531,space,3.5808,0,206,206,92,1,,,62da562ad9942a440f6986c9,643773099deb637e8358b231,2023-04-13_04h21.32.672,PRaM,2021.2.3,Win32,59.94844434,61b8f3437b89212fae0dfade
5,4.1665,space,3.7759,0,207,207,369,1,,,62da562ad9942a440f6986c9,643773099deb637e8358b231,2023-04-13_04h21.32.672,PRaM,2021.2.3,Win32,59.94844434,61b8f3437b89212fae0dfade
3,4.2254,space,5.7867,0,208,208,287,1,,,62da562ad9942a440f6986c9,643773099deb637e8358b231,2023-04-13_04h21.32.672,PRaM,2021.2.3,Win32,59.94844434,61b8f3437b89212fae0dfade
3,2.648,space,1.2198,0,209,209,24,1,,,62da562ad9942a440f6986c9,643773099deb637e8358b231,2023-04-13_04h21.32.672,PRaM,2021.2.3,Win32,59.94844434,61b8f3437b89212fae0dfade
3,5.0442,space,3.5384,0,210,210,293,1,,,62da562ad9942a440f6986c9,643773099deb637e8358b231,2023-04-13_04h21.32.672,PRaM,2021.2.3,Win32,59.94844434,61b8f3437b89212fae0dfade
4,4.6351,space,3.1286,0,211,211,183,1,,,62da562ad9942a440f6986c9,643773099deb637e8358b231,2023-04-13_04h21.32.672,PRaM,2021.2.3,Win32,59.94844434,61b8f3437b89212fae0dfade
6,3.3648,space,1.8605,0,212,212,51,1,,,62da562ad9942a440f6986c9,643773099deb637e8358b231,2023-04-13_04h21.32.672,PRaM,2021.2.3,Win32,59.94844434,61b8f3437b89212fae0dfade
7,4.5793,space,3.6354,0,213,213,114,1,,,62da562ad9942a440f6986c9,643773099deb637e8358b231,2023-04-13_04h21.32.672,PRaM,2021.2.3,Win32,59.94844434,61b8f3437b89212fae0dfade
7,2.4738,space,1.2906,0,214,214,60,1,,,62da562ad9942a440f6986c9,643773099deb637e8358b231,2023-04-13_04h21.32.672,PRaM,2021.2.3,Win32,59.94844434,61b8f3437b89212fae0dfade
4,8.9009,space,7.3447,0,215,215,136,1,,,62da562ad9942a440f6986c9,643773099deb637e8358b231,2023-04-13_04h21.32.672,PRaM,2021.2.3,Win32,59.94844434,61b8f3437b89212fae0dfade
3,2.9542,space,2.0423,0,216,216,95,1,,,62da562ad9942a440f6986c9,643773099deb637e8358b231,2023-04-13_04h21.32.672,PRaM,2021.2.3,Win32,59.94844434,61b8f3437b89212fae0dfade
2,2.7375,space,1.5404,0,217,217,94,1,,,62da562ad9942a440f6986c9,643773099deb637e8358b231,2023-04-13_04h21.32.672,PRaM,2021.2.3,Win32,59.94844434,61b8f3437b89212fae0dfade
6,5.8761,space,4.3107,0,218,218,127,1,,,62da562ad9942a440f6986c9,643773099deb637e8358b231,2023-04-13_04h21.32.672,PRaM,2021.2.3,Win32,59.94844434,61b8f3437b89212fae0dfade
2,4.6307,space,3.8192,0,219,219,87,1,,,62da562ad9942a440f6986c9,643773099deb637e8358b231,2023-04-13_04h21.32.672,PRaM,2021.2.3,Win32,59.94844434,61b8f3437b89212fae0dfade
6,3.8052,space,2.7473,0,220,220,319,1,,,62da562ad9942a440f6986c9,643773099deb637e8358b231,2023-04-13_04h21.32.672,PRaM,2021.2.3,Win32,59.94844434,61b8f3437b89212fae0dfade
4,4.9572,space,3.3324,0,221,221,104,1,,,62da562ad9942a440f6986c9,643773099deb637e8358b231,2023-04-13_04h21.32.672,PRaM,2021.2.3,Win32,59.94844434,61b8f3437b89212fae0dfade
6,4.4566,space,2.9524,0,222,222,163,1,,,62da562ad9942a440f6986c9,643773099deb637e8358b231,2023-04-13_04h21.32.672,PRaM,2021.2.3,Win32,59.94844434,61b8f3437b89212fae0dfade
4,5.8248,space,5.8627,0,223,223,338,1,,,62da562ad9942a440f6986c9,643773099deb637e8358b231,2023-04-13_04h21.32.672,PRaM,2021.2.3,Win32,59.94844434,61b8f3437b89212fae0dfade
9,4.5486,space,3.4093,0,224,224,20,1,,,62da562ad9942a440f6986c9,643773099deb637e8358b231,2023-04-13_04h21.32.672,PRaM,2021.2.3,Win32,59.94844434,61b8f3437b89212fae0dfade
2,3.9522,space,2.3894,0,225,225,5,1,,,62da562ad9942a440f6986c9,643773099deb637e8358b231,2023-04-13_04h21.32.672,PRaM,2021.2.3,Win32,59.94844434,61b8f3437b89212fae0dfade
3,9.2541,space,7.7474,0,226,226,97,1,,,62da562ad9942a440f6986c9,643773099deb637e8358b231,2023-04-13_04h21.32.672,PRaM,2021.2.3,Win32,59.94844434,61b8f3437b89212fae0dfade
2,3.4752,space,3.1955,0,227,227,170,1,,,62da562ad9942a440f6986c9,643773099deb637e8358b231,2023-04-13_04h21.32.672,PRaM,2021.2.3,Win32,59.94844434,61b8f3437b89212fae0dfade
2,4.46,space,3.3387,0,228,228,246,1,,,62da562ad9942a440f6986c9,643773099deb637e8358b231,2023-04-13_04h21.32.672,PRaM,2021.2.3,Win32,59.94844434,61b8f3437b89212fae0dfade
2,2.8741,space,1.9168,0,229,229,204,1,,,62da562ad9942a440f6986c9,643773099deb637e8358b231,2023-04-13_04h21.32.672,PRaM,2021.2.3,Win32,59.94844434,61b8f3437b89212fae0dfade
3,3.5401,space,2.4354,0,230,230,28,1,,,62da562ad9942a440f6986c9,643773099deb637e8358b231,2023-04-13_04h21.32.672,PRaM,2021.2.3,Win32,59.94844434,61b8f3437b89212fae0dfade
2,5.8963,space,5.7786,0,231,231,237,1,,,62da562ad9942a440f6986c9,643773099deb637e8358b231,2023-04-13_04h21.32.672,PRaM,2021.2.3,Win32,59.94844434,61b8f3437b89212fae0dfade
7,2.871,space,1.8096,0,232,232,110,1,,,62da562ad9942a440f6986c9,643773099deb637e8358b231,2023-04-13_04h21.32.672,PRaM,2021.2.3,Win32,59.94844434,61b8f3437b89212fae0dfade
4,10.3234,space,9.1165,0,233,233,342,1,,,62da562ad9942a440f6986c9,643773099deb637e8358b231,2023-04-13_04h21.32.672,PRaM,2021.2.3,Win32,59.94844434,61b8f3437b89212fae0dfade
5,3.6133,space,2.4511,0,234,234,93,1,,,62da562ad9942a440f6986c9,643773099deb637e8358b231,2023-04-13_04h21.32.672,PRaM,2021.2.3,Win32,59.94844434,61b8f3437b89212fae0dfade
5,4.0457,space,2.6751,0,235,235,164,1,,,62da562ad9942a440f6986c9,643773099deb637e8358b231,2023-04-13_04h21.32.672,PRaM,2021.2.3,Win32,59.94844434,61b8f3437b89212fae0dfade
9,4.7613,space,3.6563,0,236,236,207,1,,,62da562ad9942a440f6986c9,643773099deb637e8358b231,2023-04-13_04h21.32.672,PRaM,2021.2.3,Win32,59.94844434,61b8f3437b89212fae0dfade
6,3.6397,space,4.7253,0,237,237,56,1,,,62da562ad9942a440f6986c9,643773099deb637e8358b231,2023-04-13_04h21.32.672,PRaM,2021.2.3,Win32,59.94844434,61b8f3437b89212fae0dfade
6,6.6476,space,5.0214,0,238,238,162,1,,,62da562ad9942a440f6986c9,643773099deb637e8358b231,2023-04-13_04h21.32.672,PRaM,2021.2.3,Win32,59.94844434,61b8f3437b89212fae0dfade
3,5.6909,space,4.1042,0,239,239,215,1,,,62da562ad9942a440f6986c9,643773099deb637e8358b231,2023-04-13_04h21.32.672,PRaM,2021.2.3,Win32,59.94844434,61b8f3437b89212fae0dfade
3,4.9579,space,3.3904,0,240,240,11,1,,,62da562ad9942a440f6986c9,643773099deb637e8358b231,2023-04-13_04h21.32.672,PRaM,2021.2.3,Win32,59.94844434,61b8f3437b89212fae0dfade
3,4.3767,space,2.807,0,241,241,347,1,,,62da562ad9942a440f6986c9,643773099deb637e8358b231,2023-04-13_04h21.32.672,PRaM,2021.2.3,Win32,59.94844434,61b8f3437b89212fae0dfade
3,4.7635,space,3.1293,0,242,242,324,1,,,62da562ad9942a440f6986c9,643773099deb637e8358b231,2023-04-13_04h21.32.672,PRaM,2021.2.3,Win32,59.94844434,61b8f3437b89212fae0dfade
7,4.1418,space,2.5787,0,243,243,305,1,,,62da562ad9942a440f6986c9,643773099deb637e8358b231,2023-04-13_04h21.32.672,PRaM,2021.2.3,Win32,59.94844434,61b8f3437b89212fae0dfade
7,4.7985,space,3.9062,0,244,244,64,1,,,62da562ad9942a440f6986c9,643773099deb637e8358b231,2023-04-13_04h21.32.672,PRaM,2021.2.3,Win32,59.94844434,61b8f3437b89212fae0dfade
1,2.9295,space,1.8085,0,245,245,377,1,,,62da562ad9942a440f6986c9,643773099deb637e8358b231,2023-04-13_04h21.32.672,PRaM,2021.2.3,Win32,59.94844434,61b8f3437b89212fae0dfade
6,3.8336,space,3.9257,0,246,246,348,1,,,62da562ad9942a440f6986c9,643773099deb637e8358b231,2023-04-13_04h21.32.672,PRaM,2021.2.3,Win32,59.94844434,61b8f3437b89212fae0dfade
8,3.893,space,2.6427,0,247,247,85,1,,,62da562ad9942a440f6986c9,643773099deb637e8358b231,2023-04-13_04h21.32.672,PRaM,2021.2.3,Win32,59.94844434,61b8f3437b89212fae0dfade
3,2.5571,space,2.6929,0,248,248,130,1,,,62da562ad9942a440f6986c9,643773099deb637e8358b231,2023-04-13_04h21.32.672,PRaM,2021.2.3,Win32,59.94844434,61b8f3437b89212fae0dfade
5,3.6131,space,2.3109,0,249,249,267,1,,,62da562ad9942a440f6986c9,643773099deb637e8358b231,2023-04-13_04h21.32.672,PRaM,2021.2.3,Win32,59.94844434,61b8f3437b89212fae0dfade
9,2.3012,space,1.4222,0,250,250,137,1,,,62da562ad9942a440f6986c9,643773099deb637e8358b231,2023-04-13_04h21.32.672,PRaM,2021.2.3,Win32,59.94844434,61b8f3437b89212fae0dfade
2,3.0941,space,1.4975,0,251,251,167,1,,,62da562ad9942a440f6986c9,643773099deb637e8358b231,2023-04-13_04h21.32.672,PRaM,2021.2.3,Win32,59.94844434,61b8f3437b89212fae0dfade
3,3.6074,space,2.3484,0,252,252,158,1,,,62da562ad9942a440f6986c9,643773099deb637e8358b231,2023-04-13_04h21.32.672,PRaM,2021.2.3,Win32,59.94844434,61b8f3437b89212fae0dfade
3,5.5918,space,4.0876,0,253,253,235,1,,,62da562ad9942a440f6986c9,643773099deb637e8358b231,2023-04-13_04h21.32.672,PRaM,2021.2.3,Win32,59.94844434,61b8f3437b89212fae0dfade
2,3.4887,space,2.2419,0,254,254,376,1,,,62da562ad9942a440f6986c9,643773099deb637e8358b231,2023-04-13_04h21.32.672,PRaM,2021.2.3,Win32,59.94844434,61b8f3437b89212fae0dfade
2,5.9276,space,4.2911,0,255,255,48,1,,,62da562ad9942a440f6986c9,643773099deb637e8358b231,2023-04-13_04h21.32.672,PRaM,2021.2.3,Win32,59.94844434,61b8f3437b89212fae0dfade
4,4.3208,space,3.2579,0,256,256,232,1,,,62da562ad9942a440f6986c9,643773099deb637e8358b231,2023-04-13_04h21.32.672,PRaM,2021.2.3,Win32,59.94844434,61b8f3437b89212fae0dfade
1,3.9384,space,2.8856,0,257,257,322,1,,,62da562ad9942a440f6986c9,643773099deb637e8358b231,2023-04-13_04h21.32.672,PRaM,2021.2.3,Win32,59.94844434,61b8f3437b89212fae0dfade
2,2.8494,space,2.7657,0,258,258,200,1,,,62da562ad9942a440f6986c9,643773099deb637e8358b231,2023-04-13_04h21.32.672,PRaM,2021.2.3,Win32,59.94844434,61b8f3437b89212fae0dfade
6,3.2473,space,2.6302,0,259,259,301,1,,,62da562ad9942a440f6986c9,643773099deb637e8358b231,2023-04-13_04h21.32.672,PRaM,2021.2.3,Win32,59.94844434,61b8f3437b89212fae0dfade
6,2.3538,space,0.7847,0,260,260,219,1,,,62da562ad9942a440f6986c9,643773099deb637e8358b231,2023-04-13_04h21.32.672,PRaM,2021.2.3,Win32,59.94844434,61b8f3437b89212fae0dfade
7,2.5553,space,1.045,0,261,261,83,1,,,62da562ad9942a440f6986c9,643773099deb637e8358b231,2023-04-13_04h21.32.672,PRaM,2021.2.3,Win32,59.94844434,61b8f3437b89212fae0dfade
3,4.5507,space,4.2083,0,262,262,47,1,,,62da562ad9942a440f6986c9,643773099deb637e8358b231,2023-04-13_04h21.32.672,PRaM,2021.2.3,Win32,59.94844434,61b8f3437b89212fae0dfade
6,3.8825,space,2.3754,0,263,263,156,1,,,62da562ad9942a440f6986c9,643773099deb637e8358b231,2023-04-13_04h21.32.672,PRaM,2021.2.3,Win32,59.94844434,61b8f3437b89212fae0dfade
5,4.8827,space,4.0596,0,264,264,73,1,,,62da562ad9942a440f6986c9,643773099deb637e8358b231,2023-04-13_04h21.32.672,PRaM,2021.2.3,Win32,59.94844434,61b8f3437b89212fae0dfade
4,5.4768,space,5.1169,0,265,265,189,1,,,62da562ad9942a440f6986c9,643773099deb637e8358b231,2023-04-13_04h21.32.672,PRaM,2021.2.3,Win32,59.94844434,61b8f3437b89212fae0dfade
7,2.9994,space,1.4296,0,266,266,350,1,,,62da562ad9942a440f6986c9,643773099deb637e8358b231,2023-04-13_04h21.32.672,PRaM,2021.2.3,Win32,59.94844434,61b8f3437b89212fae0dfade
6,5.0363,space,3.5637,0,267,267,116,1,,,62da562ad9942a440f6986c9,643773099deb637e8358b231,2023-04-13_04h21.32.672,PRaM,2021.2.3,Win32,59.94844434,61b8f3437b89212fae0dfade
3,3.6965,space,2.124,0,268,268,367,1,,,62da562ad9942a440f6986c9,643773099deb637e8358b231,2023-04-13_04h21.32.672,PRaM,2021.2.3,Win32,59.94844434,61b8f3437b89212fae0dfade
2,7.1078,space,5.6559,0,269,269,251,1,,,62da562ad9942a440f6986c9,643773099deb637e8358b231,2023-04-13_04h21.32.672,PRaM,2021.2.3,Win32,59.94844434,61b8f3437b89212fae0dfade
1,2.6697,space,1.3559,0,270,270,41,1,,,62da562ad9942a440f6986c9,643773099deb637e8358b231,2023-04-13_04h21.32.672,PRaM,2021.2.3,Win32,59.94844434,61b8f3437b89212fae0dfade
1,4.6589,space,3.472,0,271,271,289,1,,,62da562ad9942a440f6986c9,643773099deb637e8358b231,2023-04-13_04h21.32.672,PRaM,2021.2.3,Win32,59.94844434,61b8f3437b89212fae0dfade
6,3.56,space,1.7713,0,272,272,165,1,,,62da562ad9942a440f6986c9,643773099deb637e8358b231,2023-04-13_04h21.32.672,PRaM,2021.2.3,Win32,59.94844434,61b8f3437b89212fae0dfade
4,4.0249,space,2.6329,0,273,273,143,1,,,62da562ad9942a440f6986c9,643773099deb637e8358b231,2023-04-13_04h21.32.672,PRaM,2021.2.3,Win32,59.94844434,61b8f3437b89212fae0dfade
4,3.711,space,2.0369,0,274,274,46,1,,,62da562ad9942a440f6986c9,643773099deb637e8358b231,2023-04-13_04h21.32.672,PRaM,2021.2.3,Win32,59.94844434,61b8f3437b89212fae0dfade
4,3.6919,space,2.3282,0,275,275,236,1,,,62da562ad9942a440f6986c9,643773099deb637e8358b231,2023-04-13_04h21.32.672,PRaM,2021.2.3,Win32,59.94844434,61b8f3437b89212fae0dfade
2,3.0952,space,1.4811,0,276,276,131,1,,,62da562ad9942a440f6986c9,643773099deb637e8358b231,2023-04-13_04h21.32.672,PRaM,2021.2.3,Win32,59.94844434,61b8f3437b89212fae0dfade
7,4.4987,space,3.7219,0,277,277,32,1,,,62da562ad9942a440f6986c9,643773099deb637e8358b231,2023-04-13_04h21.32.672,PRaM,2021.2.3,Win32,59.94844434,61b8f3437b89212fae0dfade
9,2.9314,space,1.8884,0,278,278,225,1,,,62da562ad9942a440f6986c9,643773099deb637e8358b231,2023-04-13_04h21.32.672,PRaM,2021.2.3,Win32,59.94844434,61b8f3437b89212fae0dfade
2,4.5783,space,2.9463,0,279,279,300,1,,,62da562ad9942a440f6986c9,643773099deb637e8358b231,2023-04-13_04h21.32.672,PRaM,2021.2.3,Win32,59.94844434,61b8f3437b89212fae0dfade
9,5.0972,space,5.038,0,280,280,345,1,,,62da562ad9942a440f6986c9,643773099deb637e8358b231,2023-04-13_04h21.32.672,PRaM,2021.2.3,Win32,59.94844434,61b8f3437b89212fae0dfade
9,2.4933,space,1.3614,0,281,281,61,1,,,62da562ad9942a440f6986c9,643773099deb637e8358b231,2023-04-13_04h21.32.672,PRaM,2021.2.3,Win32,59.94844434,61b8f3437b89212fae0dfade
3,4.7208,space,4.4255,0,282,282,160,1,,,62da562ad9942a440f6986c9,643773099deb637e8358b231,2023-04-13_04h21.32.672,PRaM,2021.2.3,Win32,59.94844434,61b8f3437b89212fae0dfade
8,4.3967,space,3.4389,0,283,283,222,1,,,62da562ad9942a440f6986c9,643773099deb637e8358b231,2023-04-13_04h21.32.672,PRaM,2021.2.3,Win32,59.94844434,61b8f3437b89212fae0dfade
1,3.1236,space,1.9236,0,284,284,77,1,,,62da562ad9942a440f6986c9,643773099deb637e8358b231,2023-04-13_04h21.32.672,PRaM,2021.2.3,Win32,59.94844434,61b8f3437b89212fae0dfade
2,9.1101,space,7.5526,0,285,285,234,1,,,62da562ad9942a440f6986c9,643773099deb637e8358b231,2023-04-13_04h21.32.672,PRaM,2021.2.3,Win32,59.94844434,61b8f3437b89212fae0dfade
5,3.3793,space,1.8017,0,286,286,333,1,,,62da562ad9942a440f6986c9,643773099deb637e8358b231,2023-04-13_04h21.32.672,PRaM,2021.2.3,Win32,59.94844434,61b8f3437b89212fae0dfade
1,2.4121,space,0.8634,0,287,287,312,1,,,62da562ad9942a440f6986c9,643773099deb637e8358b231,2023-04-13_04h21.32.672,PRaM,2021.2.3,Win32,59.94844434,61b8f3437b89212fae0dfade
5,3.6267,space,3.0729,0,288,288,196,1,,,62da562ad9942a440f6986c9,643773099deb637e8358b231,2023-04-13_04h21.32.672,PRaM,2021.2.3,Win32,59.94844434,61b8f3437b89212fae0dfade
3,4.0255,space,2.5679,0,289,289,54,1,,,62da562ad9942a440f6986c9,643773099deb637e8358b231,2023-04-13_04h21.32.672,PRaM,2021.2.3,Win32,59.94844434,61b8f3437b89212fae0dfade
7,2.9316,space,1.8112,0,290,290,173,1,,,62da562ad9942a440f6986c9,643773099deb637e8358b231,2023-04-13_04h21.32.672,PRaM,2021.2.3,Win32,59.94844434,61b8f3437b89212fae0dfade
9,3.0293,space,1.4306,0,291,291,197,1,,,62da562ad9942a440f6986c9,643773099deb637e8358b231,2023-04-13_04h21.32.672,PRaM,2021.2.3,Win32,59.94844434,61b8f3437b89212fae0dfade
8,3.5775,space,2.0458,0,292,292,302,1,,,62da562ad9942a440f6986c9,643773099deb637e8358b231,2023-04-13_04h21.32.672,PRaM,2021.2.3,Win32,59.94844434,61b8f3437b89212fae0dfade
5,7.9989,space,6.2911,0,293,293,153,1,,,62da562ad9942a440f6986c9,643773099deb637e8358b231,2023-04-13_04h21.32.672,PRaM,2021.2.3,Win32,59.94844434,61b8f3437b89212fae0dfade
2,3.731,space,2.1254,0,294,294,70,1,,,62da562ad9942a440f6986c9,643773099deb637e8358b231,2023-04-13_04h21.32.672,PRaM,2021.2.3,Win32,59.94844434,61b8f3437b89212fae0dfade
2,3.4167,space,1.9073,0,295,295,321,1,,,62da562ad9942a440f6986c9,643773099deb637e8358b231,2023-04-13_04h21.32.672,PRaM,2021.2.3,Win32,59.94844434,61b8f3437b89212fae0dfade
7,2.632,space,5.3724,0,296,296,134,1,,,62da562ad9942a440f6986c9,643773099deb637e8358b231,2023-04-13_04h21.32.672,PRaM,2021.2.3,Win32,59.94844434,61b8f3437b89212fae0dfade
9,2.5255,space,0.9205,0,297,297,320,1,,,62da562ad9942a440f6986c9,643773099deb637e8358b231,2023-04-13_04h21.32.672,PRaM,2021.2.3,Win32,59.94844434,61b8f3437b89212fae0dfade
5,6.8127,space,5.0652,0,298,298,150,1,,,62da562ad9942a440f6986c9,643773099deb637e8358b231,2023-04-13_04h21.32.672,PRaM,2021.2.3,Win32,59.94844434,61b8f3437b89212fae0dfade
5,2.4651,space,0.8728,0,299,299,256,1,,,62da562ad9942a440f6986c9,643773099deb637e8358b231,2023-04-13_04h21.32.672,PRaM,2021.2.3,Win32,59.94844434,61b8f3437b89212fae0dfade
5,6.1153,space,4.5414,0,300,300,132,1,,,62da562ad9942a440f6986c9,643773099deb637e8358b231,2023-04-13_04h21.32.672,PRaM,2021.2.3,Win32,59.94844434,61b8f3437b89212fae0dfade
5,4.0659,space,2.5206,0,301,301,201,1,,,62da562ad9942a440f6986c9,643773099deb637e8358b231,2023-04-13_04h21.32.672,PRaM,2021.2.3,Win32,59.94844434,61b8f3437b89212fae0dfade
3,6.0422,space,4.4106,0,302,302,108,1,,,62da562ad9942a440f6986c9,643773099deb637e8358b231,2023-04-13_04h21.32.672,PRaM,2021.2.3,Win32,59.94844434,61b8f3437b89212fae0dfade
2,3.5585,space,1.9991,0,303,303,249,1,,,62da562ad9942a440f6986c9,643773099deb637e8358b231,2023-04-13_04h21.32.672,PRaM,2021.2.3,Win32,59.94844434,61b8f3437b89212fae0dfade
5,4.642,space,3.7737,0,304,304,139,1,,,62da562ad9942a440f6986c9,643773099deb637e8358b231,2023-04-13_04h21.32.672,PRaM,2021.2.3,Win32,59.94844434,61b8f3437b89212fae0dfade
9,7.0755,space,5.4241,0,305,305,159,1,,,62da562ad9942a440f6986c9,643773099deb637e8358b231,2023-04-13_04h21.32.672,PRaM,2021.2.3,Win32,59.94844434,61b8f3437b89212fae0dfade
3,3.2,space,1.5539,0,306,306,58,1,,,62da562ad9942a440f6986c9,643773099deb637e8358b231,2023-04-13_04h21.32.672,PRaM,2021.2.3,Win32,59.94844434,61b8f3437b89212fae0dfade
3,5.3789,space,3.7493,0,307,307,175,1,,,62da562ad9942a440f6986c9,643773099deb637e8358b231,2023-04-13_04h21.32.672,PRaM,2021.2.3,Win32,59.94844434,61b8f3437b89212fae0dfade
4,3.833,space,2.281,0,308,308,178,1,,,62da562ad9942a440f6986c9,643773099deb637e8358b231,2023-04-13_04h21.32.672,PRaM,2021.2.3,Win32,59.94844434,61b8f3437b89212fae0dfade
3,5.468,space,3.9541,0,309,309,194,1,,,62da562ad9942a440f6986c9,643773099deb637e8358b231,2023-04-13_04h21.32.672,PRaM,2021.2.3,Win32,59.94844434,61b8f3437b89212fae0dfade
2,2.5519,space,0.9809,0,310,310,34,1,,,62da562ad9942a440f6986c9,643773099deb637e8358b231,2023-04-13_04h21.32.672,PRaM,2021.2.3,Win32,59.94844434,61b8f3437b89212fae0dfade
1,3.2834,space,2.0343,0,311,311,341,1,,,62da562ad9942a440f6986c9,643773099deb637e8358b231,2023-04-13_04h21.32.672,PRaM,2021.2.3,Win32,59.94844434,61b8f3437b89212fae0dfade
5,4.3274,space,2.7571,0,312,312,142,1,,,62da562ad9942a440f6986c9,643773099deb637e8358b231,2023-04-13_04h21.32.672,PRaM,2021.2.3,Win32,59.94844434,61b8f3437b89212fae0dfade
4,2.4846,space,1.0925,0,313,313,181,1,,,62da562ad9942a440f6986c9,643773099deb637e8358b231,2023-04-13_04h21.32.672,PRaM,2021.2.3,Win32,59.94844434,61b8f3437b89212fae0dfade
8,5.9302,space,4.7197,0,314,314,42,1,,,62da562ad9942a440f6986c9,643773099deb637e8358b231,2023-04-13_04h21.32.672,PRaM,2021.2.3,Win32,59.94844434,61b8f3437b89212fae0dfade
2,2.5696,space,0.8995,0,315,315,52,1,,,62da562ad9942a440f6986c9,643773099deb637e8358b231,2023-04-13_04h21.32.672,PRaM,2021.2.3,Win32,59.94844434,61b8f3437b89212fae0dfade
5,4.3411,space,3.6586,0,316,316,106,1,,,62da562ad9942a440f6986c9,643773099deb637e8358b231,2023-04-13_04h21.32.672,PRaM,2021.2.3,Win32,59.94844434,61b8f3437b89212fae0dfade
6,2.7244,space,2.8003,0,317,317,331,1,,,62da562ad9942a440f6986c9,643773099deb637e8358b231,2023-04-13_04h21.32.672,PRaM,2021.2.3,Win32,59.94844434,61b8f3437b89212fae0dfade
2,4.1886,space,3.0147,0,318,318,185,1,,,62da562ad9942a440f6986c9,643773099deb637e8358b231,2023-04-13_04h21.32.672,PRaM,2021.2.3,Win32,59.94844434,61b8f3437b89212fae0dfade
6,3.7614,space,3.0414,0,319,319,100,1,,,62da562ad9942a440f6986c9,643773099deb637e8358b231,2023-04-13_04h21.32.672,PRaM,2021.2.3,Win32,59.94844434,61b8f3437b89212fae0dfade
4,4.2011,space,2.6127,0,320,320,88,1,,,62da562ad9942a440f6986c9,643773099deb637e8358b231,2023-04-13_04h21.32.672,PRaM,2021.2.3,Win32,59.94844434,61b8f3437b89212fae0dfade
8,5.2751,space,4.0038,0,321,321,307,1,,,62da562ad9942a440f6986c9,643773099deb637e8358b231,2023-04-13_04h21.32.672,PRaM,2021.2.3,Win32,59.94844434,61b8f3437b89212fae0dfade
1,4.6632,space,3.404,0,322,322,283,1,,,62da562ad9942a440f6986c9,643773099deb637e8358b231,2023-04-13_04h21.32.672,PRaM,2021.2.3,Win32,59.94844434,61b8f3437b89212fae0dfade
5,3.7257,space,3.0458,0,323,323,282,1,,,62da562ad9942a440f6986c9,643773099deb637e8358b231,2023-04-13_04h21.32.672,PRaM,2021.2.3,Win32,59.94844434,61b8f3437b89212fae0dfade
2,2.373,space,1.9155,0,324,324,362,1,,,62da562ad9942a440f6986c9,643773099deb637e8358b231,2023-04-13_04h21.32.672,PRaM,2021.2.3,Win32,59.94844434,61b8f3437b89212fae0dfade
2,3.2251,space,2.767,0,325,325,371,1,,,62da562ad9942a440f6986c9,643773099deb637e8358b231,2023-04-13_04h21.32.672,PRaM,2021.2.3,Win32,59.94844434,61b8f3437b89212fae0dfade
5,3.6643,space,2.0037,0,326,326,355,1,,,62da562ad9942a440f6986c9,643773099deb637e8358b231,2023-04-13_04h21.32.672,PRaM,2021.2.3,Win32,59.94844434,61b8f3437b89212fae0dfade
2,6.0965,space,4.9746,0,327,327,65,1,,,62da562ad9942a440f6986c9,643773099deb637e8358b231,2023-04-13_04h21.32.672,PRaM,2021.2.3,Win32,59.94844434,61b8f3437b89212fae0dfade
5,3.0447,space,3.8249,0,328,328,179,1,,,62da562ad9942a440f6986c9,643773099deb637e8358b231,2023-04-13_04h21.32.672,PRaM,2021.2.3,Win32,59.94844434,61b8f3437b89212fae0dfade
3,3.803,space,2.6795,0,329,329,122,1,,,62da562ad9942a440f6986c9,643773099deb637e8358b231,2023-04-13_04h21.32.672,PRaM,2021.2.3,Win32,59.94844434,61b8f3437b89212fae0dfade
1,3.1975,space,2.0128,0,330,330,374,1,,,62da562ad9942a440f6986c9,643773099deb637e8358b231,2023-04-13_04h21.32.672,PRaM,2021.2.3,Win32,59.94844434,61b8f3437b89212fae0dfade
4,3.1692,space,1.608,0,331,331,292,1,,,62da562ad9942a440f6986c9,643773099deb637e8358b231,2023-04-13_04h21.32.672,PRaM,2021.2.3,Win32,59.94844434,61b8f3437b89212fae0dfade
6,3.7674,space,2.2894,0,332,332,149,1,,,62da562ad9942a440f6986c9,643773099deb637e8358b231,2023-04-13_04h21.32.672,PRaM,2021.2.3,Win32,59.94844434,61b8f3437b89212fae0dfade
2,3.3744,space,2.629,0,333,333,176,1,,,62da562ad9942a440f6986c9,643773099deb637e8358b231,2023-04-13_04h21.32.672,PRaM,2021.2.3,Win32,59.94844434,61b8f3437b89212fae0dfade
8,2.8209,space,1.2932,0,334,334,154,1,,,62da562ad9942a440f6986c9,643773099deb637e8358b231,2023-04-13_04h21.32.672,PRaM,2021.2.3,Win32,59.94844434,61b8f3437b89212fae0dfade
6,7.1681,space,7.0054,0,335,335,296,1,,,62da562ad9942a440f6986c9,643773099deb637e8358b231,2023-04-13_04h21.32.672,PRaM,2021.2.3,Win32,59.94844434,61b8f3437b89212fae0dfade
4,4.5269,space,5.1191,0,336,336,263,1,,,62da562ad9942a440f6986c9,643773099deb637e8358b231,2023-04-13_04h21.32.672,PRaM,2021.2.3,Win32,59.94844434,61b8f3437b89212fae0dfade
5,5.5685,space,4.0768,0,337,337,69,1,,,62da562ad9942a440f6986c9,643773099deb637e8358b231,2023-04-13_04h21.32.672,PRaM,2021.2.3,Win32,59.94844434,61b8f3437b89212fae0dfade
1,4.281,space,2.6476,0,338,338,275,1,,,62da562ad9942a440f6986c9,643773099deb637e8358b231,2023-04-13_04h21.32.672,PRaM,2021.2.3,Win32,59.94844434,61b8f3437b89212fae0dfade
8,9.9139,space,8.3601,0,339,339,221,1,,,62da562ad9942a440f6986c9,643773099deb637e8358b231,2023-04-13_04h21.32.672,PRaM,2021.2.3,Win32,59.94844434,61b8f3437b89212fae0dfade
7,3.6809,space,2.1139,0,340,340,357,1,,,62da562ad9942a440f6986c9,643773099deb637e8358b231,2023-04-13_04h21.32.672,PRaM,2021.2.3,Win32,59.94844434,61b8f3437b89212fae0dfade
3,4.7738,space,3.2068,0,341,341,145,1,,,62da562ad9942a440f6986c9,643773099deb637e8358b231,2023-04-13_04h21.32.672,PRaM,2021.2.3,Win32,59.94844434,61b8f3437b89212fae0dfade
8,2.9558,space,1.4111,0,342,342,264,1,,,62da562ad9942a440f6986c9,643773099deb637e8358b231,2023-04-13_04h21.32.672,PRaM,2021.2.3,Win32,59.94844434,61b8f3437b89212fae0dfade
6,2.6925,space,1.0238,0,343,343,168,1,,,62da562ad9942a440f6986c9,643773099deb637e8358b231,2023-04-13_04h21.32.672,PRaM,2021.2.3,Win32,59.94844434,61b8f3437b89212fae0dfade
6,3.073,space,1.4296,0,344,344,340,1,,,62da562ad9942a440f6986c9,643773099deb637e8358b231,2023-04-13_04h21.32.672,PRaM,2021.2.3,Win32,59.94844434,61b8f3437b89212fae0dfade
6,2.5564,space,0.9734,0,345,345,255,1,,,62da562ad9942a440f6986c9,643773099deb637e8358b231,2023-04-13_04h21.32.672,PRaM,2021.2.3,Win32,59.94844434,61b8f3437b89212fae0dfade
7,3.1849,space,2.1623,0,346,346,182,1,,,62da562ad9942a440f6986c9,643773099deb637e8358b231,2023-04-13_04h21.32.672,PRaM,2021.2.3,Win32,59.94844434,61b8f3437b89212fae0dfade
3,5.2348,space,3.8449,0,347,347,261,1,,,62da562ad9942a440f6986c9,643773099deb637e8358b231,2023-04-13_04h21.32.672,PRaM,2021.2.3,Win32,59.94844434,61b8f3437b89212fae0dfade
8,3.7671,space,2.5773,0,348,348,271,1,,,62da562ad9942a440f6986c9,643773099deb637e8358b231,2023-04-13_04h21.32.672,PRaM,2021.2.3,Win32,59.94844434,61b8f3437b89212fae0dfade
3,5.1036,space,3.9065,0,349,349,172,1,,,62da562ad9942a440f6986c9,643773099deb637e8358b231,2023-04-13_04h21.32.672,PRaM,2021.2.3,Win32,59.94844434,61b8f3437b89212fae0dfade
7,2.5973,space,0.9742,0,350,350,259,1,,,62da562ad9942a440f6986c9,643773099deb637e8358b231,2023-04-13_04h21.32.672,PRaM,2021.2.3,Win32,59.94844434,61b8f3437b89212fae0dfade
4,5.4885,space,4.3648,0,351,351,375,1,,,62da562ad9942a440f6986c9,643773099deb637e8358b231,2023-04-13_04h21.32.672,PRaM,2021.2.3,Win32,59.94844434,61b8f3437b89212fae0dfade
5,4.6507,space,3.7934,0,352,352,99,1,,,62da562ad9942a440f6986c9,643773099deb637e8358b231,2023-04-13_04h21.32.672,PRaM,2021.2.3,Win32,59.94844434,61b8f3437b89212fae0dfade
7,2.4966,space,0.9126,0,353,353,366,1,,,62da562ad9942a440f6986c9,643773099deb637e8358b231,2023-04-13_04h21.32.672,PRaM,2021.2.3,Win32,59.94844434,61b8f3437b89212fae0dfade
7,2.9024,space,2.2241,0,354,354,62,1,,,62da562ad9942a440f6986c9,643773099deb637e8358b231,2023-04-13_04h21.32.672,PRaM,2021.2.3,Win32,59.94844434,61b8f3437b89212fae0dfade
7,4.3866,space,2.8289,0,355,355,135,1,,,62da562ad9942a440f6986c9,643773099deb637e8358b231,2023-04-13_04h21.32.672,PRaM,2021.2.3,Win32,59.94844434,61b8f3437b89212fae0dfade
8,2.2938,space,0.6535,0,356,356,254,1,,,62da562ad9942a440f6986c9,643773099deb637e8358b231,2023-04-13_04h21.32.672,PRaM,2021.2.3,Win32,59.94844434,61b8f3437b89212fae0dfade
5,2.8313,space,1.1591,0,357,357,33,1,,,62da562ad9942a440f6986c9,643773099deb637e8358b231,2023-04-13_04h21.32.672,PRaM,2021.2.3,Win32,59.94844434,61b8f3437b89212fae0dfade
4,5.0975,space,3.8339,0,358,358,8,1,,,62da562ad9942a440f6986c9,643773099deb637e8358b231,2023-04-13_04h21.32.672,PRaM,2021.2.3,Win32,59.94844434,61b8f3437b89212fae0dfade
1,2.415,space,0.9184,0,359,359,184,1,,,62da562ad9942a440f6986c9,643773099deb637e8358b231,2023-04-13_04h21.32.672,PRaM,2021.2.3,Win32,59.94844434,61b8f3437b89212fae0dfade
4,3.5203,space,2.1423,0,360,360,10,1,,,62da562ad9942a440f6986c9,643773099deb637e8358b231,2023-04-13_04h21.32.672,PRaM,2021.2.3,Win32,59.94844434,61b8f3437b89212fae0dfade
3,3.8916,space,2.4442,0,361,361,31,1,,,62da562ad9942a440f6986c9,643773099deb637e8358b231,2023-04-13_04h21.32.672,PRaM,2021.2.3,Win32,59.94844434,61b8f3437b89212fae0dfade
2,2.8426,space,1.7475,0,362,362,250,1,,,62da562ad9942a440f6986c9,643773099deb637e8358b231,2023-04-13_04h21.32.672,PRaM,2021.2.3,Win32,59.94844434,61b8f3437b89212fae0dfade
6,4.3029,space,2.7058,0,363,363,216,1,,,62da562ad9942a440f6986c9,643773099deb637e8358b231,2023-04-13_04h21.32.672,PRaM,2021.2.3,Win32,59.94844434,61b8f3437b89212fae0dfade
6,2.2131,space,0.6512,0,364,364,252,1,,,62da562ad9942a440f6986c9,643773099deb637e8358b231,2023-04-13_04h21.32.672,PRaM,2021.2.3,Win32,59.94844434,61b8f3437b89212fae0dfade
7,2.3702,space,0.848,0,365,365,53,1,,,62da562ad9942a440f6986c9,643773099deb637e8358b231,2023-04-13_04h21.32.672,PRaM,2021.2.3,Win32,59.94844434,61b8f3437b89212fae0dfade
4,5.2018,space,3.9768,0,366,366,303,1,,,62da562ad9942a440f6986c9,643773099deb637e8358b231,2023-04-13_04h21.32.672,PRaM,2021.2.3,Win32,59.94844434,61b8f3437b89212fae0dfade
5,3.1735,space,1.5946,0,367,367,174,1,,,62da562ad9942a440f6986c9,643773099deb637e8358b231,2023-04-13_04h21.32.672,PRaM,2021.2.3,Win32,59.94844434,61b8f3437b89212fae0dfade
5,3.4092,space,2.3691,0,368,368,365,1,,,62da562ad9942a440f6986c9,643773099deb637e8358b231,2023-04-13_04h21.32.672,PRaM,2021.2.3,Win32,59.94844434,61b8f3437b89212fae0dfade
3,5.0733,space,3.5198,0,369,369,253,1,,,62da562ad9942a440f6986c9,643773099deb637e8358b231,2023-04-13_04h21.32.672,PRaM,2021.2.3,Win32,59.94844434,61b8f3437b89212fae0dfade
4,4.5466,space,3.058,0,370,370,295,1,,,62da562ad9942a440f6986c9,643773099deb637e8358b231,2023-04-13_04h21.32.672,PRaM,2021.2.3,Win32,59.94844434,61b8f3437b89212fae0dfade
3,3.9169,space,2.4576,0,371,371,101,1,,,62da562ad9942a440f6986c9,643773099deb637e8358b231,2023-04-13_04h21.32.672,PRaM,2021.2.3,Win32,59.94844434,61b8f3437b89212fae0dfade
3,3.2153,space,3.7567,0,372,372,177,1,,,62da562ad9942a440f6986c9,643773099deb637e8358b231,2023-04-13_04h21.32.672,PRaM,2021.2.3,Win32,59.94844434,61b8f3437b89212fae0dfade
5,4.5937,space,3.5065,0,373,373,84,1,,,62da562ad9942a440f6986c9,643773099deb637e8358b231,2023-04-13_04h21.32.672,PRaM,2021.2.3,Win32,59.94844434,61b8f3437b89212fae0dfade
7,2.6699,space,1.0269,0,374,374,228,1,,,62da562ad9942a440f6986c9,643773099deb637e8358b231,2023-04-13_04h21.32.672,PRaM,2021.2.3,Win32,59.94844434,61b8f3437b89212fae0dfade
1,2.456,space,1.4228,0,375,375,257,1,,,62da562ad9942a440f6986c9,643773099deb637e8358b231,2023-04-13_04h21.32.672,PRaM,2021.2.3,Win32,59.94844434,61b8f3437b89212fae0dfade
8,5.9717,space,5.7745,0,376,376,285,1,,,62da562ad9942a440f6986c9,643773099deb637e8358b231,2023-04-13_04h21.32.672,PRaM,2021.2.3,Win32,59.94844434,61b8f3437b89212fae0dfade
7,16.3291,space,15.2149,0,377,377,220,1,,,62da562ad9942a440f6986c9,643773099deb637e8358b231,2023-04-13_04h21.32.672,PRaM,2021.2.3,Win32,59.94844434,61b8f3437b89212fae0dfade
