Rating.response,Rating.rt,EndTrial.keys,EndTrial.rt,trials.thisRepN,trials.thisTrialN,trials.thisN,trials.thisIndex,trials.ran,Pos1,Pos2,participant,session,date,expName,psychopyVersion,OS,frameRate,study_id
8,13.9043,space,13.3111,0,0,0,298,1,,,62db2644ab0a3a353c0dcb54,643772cad1e70aa0e81ff44f,2023-04-13_04h28.01.151,PRaM,2021.2.3,Win32,33.34222459,61b8f3437b89212fae0dfade
4,2.6138,space,1.9114,0,1,1,272,1,,,62db2644ab0a3a353c0dcb54,643772cad1e70aa0e81ff44f,2023-04-13_04h28.01.151,PRaM,2021.2.3,Win32,33.34222459,61b8f3437b89212fae0dfade
4,2.1585,space,0.5766,0,2,2,376,1,,,62db2644ab0a3a353c0dcb54,643772cad1e70aa0e81ff44f,2023-04-13_04h28.01.151,PRaM,2021.2.3,Win32,33.34222459,61b8f3437b89212fae0dfade
2,2.0067,space,1.1031,0,3,3,322,1,,,62db2644ab0a3a353c0dcb54,643772cad1e70aa0e81ff44f,2023-04-13_04h28.01.151,PRaM,2021.2.3,Win32,33.34222459,61b8f3437b89212fae0dfade
2,2.8174,space,1.1366,0,4,4,55,1,,,62db2644ab0a3a353c0dcb54,643772cad1e70aa0e81ff44f,2023-04-13_04h28.01.151,PRaM,2021.2.3,Win32,33.34222459,61b8f3437b89212fae0dfade
5,3.1877,space,1.5876,0,5,5,87,1,,,62db2644ab0a3a353c0dcb54,643772cad1e70aa0e81ff44f,2023-04-13_04h28.01.151,PRaM,2021.2.3,Win32,33.34222459,61b8f3437b89212fae0dfade
7,1.7597,space,1.1641,0,6,6,196,1,,,62db2644ab0a3a353c0dcb54,643772cad1e70aa0e81ff44f,2023-04-13_04h28.01.151,PRaM,2021.2.3,Win32,33.34222459,61b8f3437b89212fae0dfade
9,3.1183,space,1.5593,0,7,7,320,1,,,62db2644ab0a3a353c0dcb54,643772cad1e70aa0e81ff44f,2023-04-13_04h28.01.151,PRaM,2021.2.3,Win32,33.34222459,61b8f3437b89212fae0dfade
7,299.2764,space,298.0146,0,8,8,372,1,,,62db2644ab0a3a353c0dcb54,643772cad1e70aa0e81ff44f,2023-04-13_04h28.01.151,PRaM,2021.2.3,Win32,33.34222459,61b8f3437b89212fae0dfade
7,2.1003,space,0.4254,0,9,9,355,1,,,62db2644ab0a3a353c0dcb54,643772cad1e70aa0e81ff44f,2023-04-13_04h28.01.151,PRaM,2021.2.3,Win32,33.34222459,61b8f3437b89212fae0dfade
6,1.6553,space,0.227,0,10,10,291,1,,,62db2644ab0a3a353c0dcb54,643772cad1e70aa0e81ff44f,2023-04-13_04h28.01.151,PRaM,2021.2.3,Win32,33.34222459,61b8f3437b89212fae0dfade
5,3.2229,space,1.4348,0,11,11,165,1,,,62db2644ab0a3a353c0dcb54,643772cad1e70aa0e81ff44f,2023-04-13_04h28.01.151,PRaM,2021.2.3,Win32,33.34222459,61b8f3437b89212fae0dfade
4,3.4363,space,1.7492,0,12,12,169,1,,,62db2644ab0a3a353c0dcb54,643772cad1e70aa0e81ff44f,2023-04-13_04h28.01.151,PRaM,2021.2.3,Win32,33.34222459,61b8f3437b89212fae0dfade
2,2.0978,space,0.4312,0,13,13,214,1,,,62db2644ab0a3a353c0dcb54,643772cad1e70aa0e81ff44f,2023-04-13_04h28.01.151,PRaM,2021.2.3,Win32,33.34222459,61b8f3437b89212fae0dfade
3,8.267,space,6.6138,0,14,14,35,1,,,62db2644ab0a3a353c0dcb54,643772cad1e70aa0e81ff44f,2023-04-13_04h28.01.151,PRaM,2021.2.3,Win32,33.34222459,61b8f3437b89212fae0dfade
4,2.3151,space,0.5148,0,15,15,230,1,,,62db2644ab0a3a353c0dcb54,643772cad1e70aa0e81ff44f,2023-04-13_04h28.01.151,PRaM,2021.2.3,Win32,33.34222459,61b8f3437b89212fae0dfade
4,3.7566,space,2.2396,0,16,16,26,1,,,62db2644ab0a3a353c0dcb54,643772cad1e70aa0e81ff44f,2023-04-13_04h28.01.151,PRaM,2021.2.3,Win32,33.34222459,61b8f3437b89212fae0dfade
5,2.3495,space,0.655,0,17,17,304,1,,,62db2644ab0a3a353c0dcb54,643772cad1e70aa0e81ff44f,2023-04-13_04h28.01.151,PRaM,2021.2.3,Win32,33.34222459,61b8f3437b89212fae0dfade
2,2.4302,space,0.7531,0,18,18,27,1,,,62db2644ab0a3a353c0dcb54,643772cad1e70aa0e81ff44f,2023-04-13_04h28.01.151,PRaM,2021.2.3,Win32,33.34222459,61b8f3437b89212fae0dfade
5,1.8857,space,0.3346,0,19,19,234,1,,,62db2644ab0a3a353c0dcb54,643772cad1e70aa0e81ff44f,2023-04-13_04h28.01.151,PRaM,2021.2.3,Win32,33.34222459,61b8f3437b89212fae0dfade
4,2.1076,space,0.4671,0,20,20,282,1,,,62db2644ab0a3a353c0dcb54,643772cad1e70aa0e81ff44f,2023-04-13_04h28.01.151,PRaM,2021.2.3,Win32,33.34222459,61b8f3437b89212fae0dfade
6,2.7251,space,1.0171,0,21,21,255,1,,,62db2644ab0a3a353c0dcb54,643772cad1e70aa0e81ff44f,2023-04-13_04h28.01.151,PRaM,2021.2.3,Win32,33.34222459,61b8f3437b89212fae0dfade
3,13.3504,space,12.3643,0,22,22,303,1,,,62db2644ab0a3a353c0dcb54,643772cad1e70aa0e81ff44f,2023-04-13_04h28.01.151,PRaM,2021.2.3,Win32,33.34222459,61b8f3437b89212fae0dfade
4,2.0808,space,1.227,0,23,23,236,1,,,62db2644ab0a3a353c0dcb54,643772cad1e70aa0e81ff44f,2023-04-13_04h28.01.151,PRaM,2021.2.3,Win32,33.34222459,61b8f3437b89212fae0dfade
6,2.6333,space,0.9315,0,24,24,301,1,,,62db2644ab0a3a353c0dcb54,643772cad1e70aa0e81ff44f,2023-04-13_04h28.01.151,PRaM,2021.2.3,Win32,33.34222459,61b8f3437b89212fae0dfade
5,0.7777,space,0.3718,0,25,25,249,1,,,62db2644ab0a3a353c0dcb54,643772cad1e70aa0e81ff44f,2023-04-13_04h28.01.151,PRaM,2021.2.3,Win32,33.34222459,61b8f3437b89212fae0dfade
5,3.7975,space,2.1597,0,26,26,46,1,,,62db2644ab0a3a353c0dcb54,643772cad1e70aa0e81ff44f,2023-04-13_04h28.01.151,PRaM,2021.2.3,Win32,33.34222459,61b8f3437b89212fae0dfade
3,4.6257,space,2.9661,0,27,27,157,1,,,62db2644ab0a3a353c0dcb54,643772cad1e70aa0e81ff44f,2023-04-13_04h28.01.151,PRaM,2021.2.3,Win32,33.34222459,61b8f3437b89212fae0dfade
4,3.6205,space,1.8881,0,28,28,191,1,,,62db2644ab0a3a353c0dcb54,643772cad1e70aa0e81ff44f,2023-04-13_04h28.01.151,PRaM,2021.2.3,Win32,33.34222459,61b8f3437b89212fae0dfade
4,0.8188,space,0.2014,0,29,29,237,1,,,62db2644ab0a3a353c0dcb54,643772cad1e70aa0e81ff44f,2023-04-13_04h28.01.151,PRaM,2021.2.3,Win32,33.34222459,61b8f3437b89212fae0dfade
5,2.4628,space,0.92,0,30,30,21,1,,,62db2644ab0a3a353c0dcb54,643772cad1e70aa0e81ff44f,2023-04-13_04h28.01.151,PRaM,2021.2.3,Win32,33.34222459,61b8f3437b89212fae0dfade
3,15.6005,space,13.963,0,31,31,162,1,,,62db2644ab0a3a353c0dcb54,643772cad1e70aa0e81ff44f,2023-04-13_04h28.01.151,PRaM,2021.2.3,Win32,33.34222459,61b8f3437b89212fae0dfade
3,1.8877,space,0.2032,0,32,32,153,1,,,62db2644ab0a3a353c0dcb54,643772cad1e70aa0e81ff44f,2023-04-13_04h28.01.151,PRaM,2021.2.3,Win32,33.34222459,61b8f3437b89212fae0dfade
2,2.647,space,0.8864,0,33,33,188,1,,,62db2644ab0a3a353c0dcb54,643772cad1e70aa0e81ff44f,2023-04-13_04h28.01.151,PRaM,2021.2.3,Win32,33.34222459,61b8f3437b89212fae0dfade
6,2.0868,space,0.364,0,34,34,112,1,,,62db2644ab0a3a353c0dcb54,643772cad1e70aa0e81ff44f,2023-04-13_04h28.01.151,PRaM,2021.2.3,Win32,33.34222459,61b8f3437b89212fae0dfade
6,3.1423,space,1.3532,0,35,35,317,1,,,62db2644ab0a3a353c0dcb54,643772cad1e70aa0e81ff44f,2023-04-13_04h28.01.151,PRaM,2021.2.3,Win32,33.34222459,61b8f3437b89212fae0dfade
5,1.0465,space,0.4629,0,36,36,364,1,,,62db2644ab0a3a353c0dcb54,643772cad1e70aa0e81ff44f,2023-04-13_04h28.01.151,PRaM,2021.2.3,Win32,33.34222459,61b8f3437b89212fae0dfade
5,1.7261,space,0.3852,0,37,37,19,1,,,62db2644ab0a3a353c0dcb54,643772cad1e70aa0e81ff44f,2023-04-13_04h28.01.151,PRaM,2021.2.3,Win32,33.34222459,61b8f3437b89212fae0dfade
4,2.2812,space,0.6283,0,38,38,279,1,,,62db2644ab0a3a353c0dcb54,643772cad1e70aa0e81ff44f,2023-04-13_04h28.01.151,PRaM,2021.2.3,Win32,33.34222459,61b8f3437b89212fae0dfade
4,2.6983,space,0.9598,0,39,39,18,1,,,62db2644ab0a3a353c0dcb54,643772cad1e70aa0e81ff44f,2023-04-13_04h28.01.151,PRaM,2021.2.3,Win32,33.34222459,61b8f3437b89212fae0dfade
7,2.1216,space,0.4707,0,40,40,40,1,,,62db2644ab0a3a353c0dcb54,643772cad1e70aa0e81ff44f,2023-04-13_04h28.01.151,PRaM,2021.2.3,Win32,33.34222459,61b8f3437b89212fae0dfade
9,2.0913,space,0.4363,0,41,41,17,1,,,62db2644ab0a3a353c0dcb54,643772cad1e70aa0e81ff44f,2023-04-13_04h28.01.151,PRaM,2021.2.3,Win32,33.34222459,61b8f3437b89212fae0dfade
4,2.6606,space,0.9371,0,42,42,310,1,,,62db2644ab0a3a353c0dcb54,643772cad1e70aa0e81ff44f,2023-04-13_04h28.01.151,PRaM,2021.2.3,Win32,33.34222459,61b8f3437b89212fae0dfade
5,1.328,space,0.0854,0,43,43,140,1,,,62db2644ab0a3a353c0dcb54,643772cad1e70aa0e81ff44f,2023-04-13_04h28.01.151,PRaM,2021.2.3,Win32,33.34222459,61b8f3437b89212fae0dfade
5,1.0944,space,0.6677,0,44,44,56,1,,,62db2644ab0a3a353c0dcb54,643772cad1e70aa0e81ff44f,2023-04-13_04h28.01.151,PRaM,2021.2.3,Win32,33.34222459,61b8f3437b89212fae0dfade
4,3.4862,space,1.7968,0,45,45,220,1,,,62db2644ab0a3a353c0dcb54,643772cad1e70aa0e81ff44f,2023-04-13_04h28.01.151,PRaM,2021.2.3,Win32,33.34222459,61b8f3437b89212fae0dfade
1,3.3415,space,1.7989,0,46,46,315,1,,,62db2644ab0a3a353c0dcb54,643772cad1e70aa0e81ff44f,2023-04-13_04h28.01.151,PRaM,2021.2.3,Win32,33.34222459,61b8f3437b89212fae0dfade
7,2.3211,space,0.6029,0,47,47,114,1,,,62db2644ab0a3a353c0dcb54,643772cad1e70aa0e81ff44f,2023-04-13_04h28.01.151,PRaM,2021.2.3,Win32,33.34222459,61b8f3437b89212fae0dfade
2,2.1982,space,0.5843,0,48,48,121,1,,,62db2644ab0a3a353c0dcb54,643772cad1e70aa0e81ff44f,2023-04-13_04h28.01.151,PRaM,2021.2.3,Win32,33.34222459,61b8f3437b89212fae0dfade
5,2.3309,space,0.5623,0,49,49,171,1,,,62db2644ab0a3a353c0dcb54,643772cad1e70aa0e81ff44f,2023-04-13_04h28.01.151,PRaM,2021.2.3,Win32,33.34222459,61b8f3437b89212fae0dfade
4,2.4186,space,1.079,0,50,50,296,1,,,62db2644ab0a3a353c0dcb54,643772cad1e70aa0e81ff44f,2023-04-13_04h28.01.151,PRaM,2021.2.3,Win32,33.34222459,61b8f3437b89212fae0dfade
2,3.5779,space,1.8904,0,51,51,215,1,,,62db2644ab0a3a353c0dcb54,643772cad1e70aa0e81ff44f,2023-04-13_04h28.01.151,PRaM,2021.2.3,Win32,33.34222459,61b8f3437b89212fae0dfade
7,3.0551,space,1.3302,0,52,52,60,1,,,62db2644ab0a3a353c0dcb54,643772cad1e70aa0e81ff44f,2023-04-13_04h28.01.151,PRaM,2021.2.3,Win32,33.34222459,61b8f3437b89212fae0dfade
4,3.3028,space,1.5668,0,53,53,167,1,,,62db2644ab0a3a353c0dcb54,643772cad1e70aa0e81ff44f,2023-04-13_04h28.01.151,PRaM,2021.2.3,Win32,33.34222459,61b8f3437b89212fae0dfade
4,1.9406,space,1.1051,0,54,54,241,1,,,62db2644ab0a3a353c0dcb54,643772cad1e70aa0e81ff44f,2023-04-13_04h28.01.151,PRaM,2021.2.3,Win32,33.34222459,61b8f3437b89212fae0dfade
4,6.6734,space,4.9323,0,55,55,116,1,,,62db2644ab0a3a353c0dcb54,643772cad1e70aa0e81ff44f,2023-04-13_04h28.01.151,PRaM,2021.2.3,Win32,33.34222459,61b8f3437b89212fae0dfade
5,1.4769,space,0.0432,0,56,56,124,1,,,62db2644ab0a3a353c0dcb54,643772cad1e70aa0e81ff44f,2023-04-13_04h28.01.151,PRaM,2021.2.3,Win32,33.34222459,61b8f3437b89212fae0dfade
3,2.521,space,0.8145,0,57,57,8,1,,,62db2644ab0a3a353c0dcb54,643772cad1e70aa0e81ff44f,2023-04-13_04h28.01.151,PRaM,2021.2.3,Win32,33.34222459,61b8f3437b89212fae0dfade
6,1.7357,space,0.0509,0,58,58,358,1,,,62db2644ab0a3a353c0dcb54,643772cad1e70aa0e81ff44f,2023-04-13_04h28.01.151,PRaM,2021.2.3,Win32,33.34222459,61b8f3437b89212fae0dfade
5,0.6779,space,0.2806,0,59,59,110,1,,,62db2644ab0a3a353c0dcb54,643772cad1e70aa0e81ff44f,2023-04-13_04h28.01.151,PRaM,2021.2.3,Win32,33.34222459,61b8f3437b89212fae0dfade
7,1.9156,space,0.5496,0,60,60,361,1,,,62db2644ab0a3a353c0dcb54,643772cad1e70aa0e81ff44f,2023-04-13_04h28.01.151,PRaM,2021.2.3,Win32,33.34222459,61b8f3437b89212fae0dfade
5,2.3188,space,0.7831,0,61,61,275,1,,,62db2644ab0a3a353c0dcb54,643772cad1e70aa0e81ff44f,2023-04-13_04h28.01.151,PRaM,2021.2.3,Win32,33.34222459,61b8f3437b89212fae0dfade
2,3.5464,space,1.787,0,62,62,39,1,,,62db2644ab0a3a353c0dcb54,643772cad1e70aa0e81ff44f,2023-04-13_04h28.01.151,PRaM,2021.2.3,Win32,33.34222459,61b8f3437b89212fae0dfade
2,3.2612,space,1.652,0,63,63,70,1,,,62db2644ab0a3a353c0dcb54,643772cad1e70aa0e81ff44f,2023-04-13_04h28.01.151,PRaM,2021.2.3,Win32,33.34222459,61b8f3437b89212fae0dfade
2,1.9617,space,0.2506,0,64,64,92,1,,,62db2644ab0a3a353c0dcb54,643772cad1e70aa0e81ff44f,2023-04-13_04h28.01.151,PRaM,2021.2.3,Win32,33.34222459,61b8f3437b89212fae0dfade
4,1.8162,space,0.0002,0,65,65,86,1,,,62db2644ab0a3a353c0dcb54,643772cad1e70aa0e81ff44f,2023-04-13_04h28.01.151,PRaM,2021.2.3,Win32,33.34222459,61b8f3437b89212fae0dfade
5,1.9265,space,0.1359,0,66,66,286,1,,,62db2644ab0a3a353c0dcb54,643772cad1e70aa0e81ff44f,2023-04-13_04h28.01.151,PRaM,2021.2.3,Win32,33.34222459,61b8f3437b89212fae0dfade
4,2.7165,space,0.9172,0,67,67,155,1,,,62db2644ab0a3a353c0dcb54,643772cad1e70aa0e81ff44f,2023-04-13_04h28.01.151,PRaM,2021.2.3,Win32,33.34222459,61b8f3437b89212fae0dfade
4,1.7805,space,0.0172,0,68,68,313,1,,,62db2644ab0a3a353c0dcb54,643772cad1e70aa0e81ff44f,2023-04-13_04h28.01.151,PRaM,2021.2.3,Win32,33.34222459,61b8f3437b89212fae0dfade
5,1.8918,space,5.2016,0,69,69,126,1,,,62db2644ab0a3a353c0dcb54,643772cad1e70aa0e81ff44f,2023-04-13_04h28.01.151,PRaM,2021.2.3,Win32,33.34222459,61b8f3437b89212fae0dfade
6,2.0921,space,0.3435,0,70,70,268,1,,,62db2644ab0a3a353c0dcb54,643772cad1e70aa0e81ff44f,2023-04-13_04h28.01.151,PRaM,2021.2.3,Win32,33.34222459,61b8f3437b89212fae0dfade
5,0.9012,space,1.1231,0,71,71,233,1,,,62db2644ab0a3a353c0dcb54,643772cad1e70aa0e81ff44f,2023-04-13_04h28.01.151,PRaM,2021.2.3,Win32,33.34222459,61b8f3437b89212fae0dfade
3,2.1086,space,0.3107,0,72,72,129,1,,,62db2644ab0a3a353c0dcb54,643772cad1e70aa0e81ff44f,2023-04-13_04h28.01.151,PRaM,2021.2.3,Win32,33.34222459,61b8f3437b89212fae0dfade
8,2.1176,space,0.4249,0,73,73,3,1,,,62db2644ab0a3a353c0dcb54,643772cad1e70aa0e81ff44f,2023-04-13_04h28.01.151,PRaM,2021.2.3,Win32,33.34222459,61b8f3437b89212fae0dfade
4,1.5894,space,0.2972,0,74,74,284,1,,,62db2644ab0a3a353c0dcb54,643772cad1e70aa0e81ff44f,2023-04-13_04h28.01.151,PRaM,2021.2.3,Win32,33.34222459,61b8f3437b89212fae0dfade
4,1.8881,space,0.2453,0,75,75,374,1,,,62db2644ab0a3a353c0dcb54,643772cad1e70aa0e81ff44f,2023-04-13_04h28.01.151,PRaM,2021.2.3,Win32,33.34222459,61b8f3437b89212fae0dfade
4,3.7382,space,2.0098,0,76,76,150,1,,,62db2644ab0a3a353c0dcb54,643772cad1e70aa0e81ff44f,2023-04-13_04h28.01.151,PRaM,2021.2.3,Win32,33.34222459,61b8f3437b89212fae0dfade
5,1.6151,space,0.2119,0,77,77,52,1,,,62db2644ab0a3a353c0dcb54,643772cad1e70aa0e81ff44f,2023-04-13_04h28.01.151,PRaM,2021.2.3,Win32,33.34222459,61b8f3437b89212fae0dfade
8,2.4981,space,1.7671,0,78,78,53,1,,,62db2644ab0a3a353c0dcb54,643772cad1e70aa0e81ff44f,2023-04-13_04h28.01.151,PRaM,2021.2.3,Win32,33.34222459,61b8f3437b89212fae0dfade
4,2.5814,space,0.8222,0,79,79,81,1,,,62db2644ab0a3a353c0dcb54,643772cad1e70aa0e81ff44f,2023-04-13_04h28.01.151,PRaM,2021.2.3,Win32,33.34222459,61b8f3437b89212fae0dfade
4,2.1102,space,0.3065,0,80,80,65,1,,,62db2644ab0a3a353c0dcb54,643772cad1e70aa0e81ff44f,2023-04-13_04h28.01.151,PRaM,2021.2.3,Win32,33.34222459,61b8f3437b89212fae0dfade
5,2.8462,space,1.1505,0,81,81,149,1,,,62db2644ab0a3a353c0dcb54,643772cad1e70aa0e81ff44f,2023-04-13_04h28.01.151,PRaM,2021.2.3,Win32,33.34222459,61b8f3437b89212fae0dfade
5,0.5797,space,0.28,0,82,82,51,1,,,62db2644ab0a3a353c0dcb54,643772cad1e70aa0e81ff44f,2023-04-13_04h28.01.151,PRaM,2021.2.3,Win32,33.34222459,61b8f3437b89212fae0dfade
9,2.6919,space,0.9975,0,83,83,7,1,,,62db2644ab0a3a353c0dcb54,643772cad1e70aa0e81ff44f,2023-04-13_04h28.01.151,PRaM,2021.2.3,Win32,33.34222459,61b8f3437b89212fae0dfade
2,2.7015,space,0.9566,0,84,84,212,1,,,62db2644ab0a3a353c0dcb54,643772cad1e70aa0e81ff44f,2023-04-13_04h28.01.151,PRaM,2021.2.3,Win32,33.34222459,61b8f3437b89212fae0dfade
4,2.35,space,0.6595,0,85,85,154,1,,,62db2644ab0a3a353c0dcb54,643772cad1e70aa0e81ff44f,2023-04-13_04h28.01.151,PRaM,2021.2.3,Win32,33.34222459,61b8f3437b89212fae0dfade
2,2.0231,space,0.3839,0,86,86,329,1,,,62db2644ab0a3a353c0dcb54,643772cad1e70aa0e81ff44f,2023-04-13_04h28.01.151,PRaM,2021.2.3,Win32,33.34222459,61b8f3437b89212fae0dfade
2,2.9884,space,1.216,0,87,87,360,1,,,62db2644ab0a3a353c0dcb54,643772cad1e70aa0e81ff44f,2023-04-13_04h28.01.151,PRaM,2021.2.3,Win32,33.34222459,61b8f3437b89212fae0dfade
5,1.9493,space,0.3262,0,88,88,349,1,,,62db2644ab0a3a353c0dcb54,643772cad1e70aa0e81ff44f,2023-04-13_04h28.01.151,PRaM,2021.2.3,Win32,33.34222459,61b8f3437b89212fae0dfade
4,2.9339,space,1.2333,0,89,89,252,1,,,62db2644ab0a3a353c0dcb54,643772cad1e70aa0e81ff44f,2023-04-13_04h28.01.151,PRaM,2021.2.3,Win32,33.34222459,61b8f3437b89212fae0dfade
3,2.5521,space,0.8501,0,90,90,253,1,,,62db2644ab0a3a353c0dcb54,643772cad1e70aa0e81ff44f,2023-04-13_04h28.01.151,PRaM,2021.2.3,Win32,33.34222459,61b8f3437b89212fae0dfade
5,4.6468,space,3.4404,0,91,91,180,1,,,62db2644ab0a3a353c0dcb54,643772cad1e70aa0e81ff44f,2023-04-13_04h28.01.151,PRaM,2021.2.3,Win32,33.34222459,61b8f3437b89212fae0dfade
6,2.2064,space,0.4989,0,92,92,118,1,,,62db2644ab0a3a353c0dcb54,643772cad1e70aa0e81ff44f,2023-04-13_04h28.01.151,PRaM,2021.2.3,Win32,33.34222459,61b8f3437b89212fae0dfade
5,0.8365,space,0.2252,0,93,93,346,1,,,62db2644ab0a3a353c0dcb54,643772cad1e70aa0e81ff44f,2023-04-13_04h28.01.151,PRaM,2021.2.3,Win32,33.34222459,61b8f3437b89212fae0dfade
5,0.6969,space,0.0617,0,94,94,299,1,,,62db2644ab0a3a353c0dcb54,643772cad1e70aa0e81ff44f,2023-04-13_04h28.01.151,PRaM,2021.2.3,Win32,33.34222459,61b8f3437b89212fae0dfade
4,3.1843,space,1.4286,0,95,95,373,1,,,62db2644ab0a3a353c0dcb54,643772cad1e70aa0e81ff44f,2023-04-13_04h28.01.151,PRaM,2021.2.3,Win32,33.34222459,61b8f3437b89212fae0dfade
6,4.1376,space,2.389,0,96,96,194,1,,,62db2644ab0a3a353c0dcb54,643772cad1e70aa0e81ff44f,2023-04-13_04h28.01.151,PRaM,2021.2.3,Win32,33.34222459,61b8f3437b89212fae0dfade
3,2.7425,space,1.0863,0,97,97,217,1,,,62db2644ab0a3a353c0dcb54,643772cad1e70aa0e81ff44f,2023-04-13_04h28.01.151,PRaM,2021.2.3,Win32,33.34222459,61b8f3437b89212fae0dfade
2,3.0715,space,1.7326,0,98,98,89,1,,,62db2644ab0a3a353c0dcb54,643772cad1e70aa0e81ff44f,2023-04-13_04h28.01.151,PRaM,2021.2.3,Win32,33.34222459,61b8f3437b89212fae0dfade
2,1.952,space,0.2536,0,99,99,36,1,,,62db2644ab0a3a353c0dcb54,643772cad1e70aa0e81ff44f,2023-04-13_04h28.01.151,PRaM,2021.2.3,Win32,33.34222459,61b8f3437b89212fae0dfade
4,2.5734,space,0.9015,0,100,100,294,1,,,62db2644ab0a3a353c0dcb54,643772cad1e70aa0e81ff44f,2023-04-13_04h28.01.151,PRaM,2021.2.3,Win32,33.34222459,61b8f3437b89212fae0dfade
4,1.8476,space,0.2197,0,101,101,58,1,,,62db2644ab0a3a353c0dcb54,643772cad1e70aa0e81ff44f,2023-04-13_04h28.01.151,PRaM,2021.2.3,Win32,33.34222459,61b8f3437b89212fae0dfade
6,1.7835,space,0.0215,0,102,102,5,1,,,62db2644ab0a3a353c0dcb54,643772cad1e70aa0e81ff44f,2023-04-13_04h28.01.151,PRaM,2021.2.3,Win32,33.34222459,61b8f3437b89212fae0dfade
5,1.7449,space,0.1399,0,103,103,119,1,,,62db2644ab0a3a353c0dcb54,643772cad1e70aa0e81ff44f,2023-04-13_04h28.01.151,PRaM,2021.2.3,Win32,33.34222459,61b8f3437b89212fae0dfade
5,2.2092,space,0.3486,0,104,104,362,1,,,62db2644ab0a3a353c0dcb54,643772cad1e70aa0e81ff44f,2023-04-13_04h28.01.151,PRaM,2021.2.3,Win32,33.34222459,61b8f3437b89212fae0dfade
4,2.5154,space,2.0146,0,105,105,94,1,,,62db2644ab0a3a353c0dcb54,643772cad1e70aa0e81ff44f,2023-04-13_04h28.01.151,PRaM,2021.2.3,Win32,33.34222459,61b8f3437b89212fae0dfade
6,2.3296,space,0.6734,0,106,106,367,1,,,62db2644ab0a3a353c0dcb54,643772cad1e70aa0e81ff44f,2023-04-13_04h28.01.151,PRaM,2021.2.3,Win32,33.34222459,61b8f3437b89212fae0dfade
7,3.2156,space,1.4987,0,107,107,66,1,,,62db2644ab0a3a353c0dcb54,643772cad1e70aa0e81ff44f,2023-04-13_04h28.01.151,PRaM,2021.2.3,Win32,33.34222459,61b8f3437b89212fae0dfade
5,2.056,space,0.278,0,108,108,178,1,,,62db2644ab0a3a353c0dcb54,643772cad1e70aa0e81ff44f,2023-04-13_04h28.01.151,PRaM,2021.2.3,Win32,33.34222459,61b8f3437b89212fae0dfade
7,2.4689,space,0.7521,0,109,109,334,1,,,62db2644ab0a3a353c0dcb54,643772cad1e70aa0e81ff44f,2023-04-13_04h28.01.151,PRaM,2021.2.3,Win32,33.34222459,61b8f3437b89212fae0dfade
3,1.6727,space,0.5914,0,110,110,24,1,,,62db2644ab0a3a353c0dcb54,643772cad1e70aa0e81ff44f,2023-04-13_04h28.01.151,PRaM,2021.2.3,Win32,33.34222459,61b8f3437b89212fae0dfade
5,2.3513,space,0.6484,0,111,111,332,1,,,62db2644ab0a3a353c0dcb54,643772cad1e70aa0e81ff44f,2023-04-13_04h28.01.151,PRaM,2021.2.3,Win32,33.34222459,61b8f3437b89212fae0dfade
3,1.8842,space,0.1697,0,112,112,354,1,,,62db2644ab0a3a353c0dcb54,643772cad1e70aa0e81ff44f,2023-04-13_04h28.01.151,PRaM,2021.2.3,Win32,33.34222459,61b8f3437b89212fae0dfade
6,2.5897,space,0.8434,0,113,113,276,1,,,62db2644ab0a3a353c0dcb54,643772cad1e70aa0e81ff44f,2023-04-13_04h28.01.151,PRaM,2021.2.3,Win32,33.34222459,61b8f3437b89212fae0dfade
4,5.205,space,3.5677,0,114,114,366,1,,,62db2644ab0a3a353c0dcb54,643772cad1e70aa0e81ff44f,2023-04-13_04h28.01.151,PRaM,2021.2.3,Win32,33.34222459,61b8f3437b89212fae0dfade
6,2.3362,space,0.836,0,115,115,347,1,,,62db2644ab0a3a353c0dcb54,643772cad1e70aa0e81ff44f,2023-04-13_04h28.01.151,PRaM,2021.2.3,Win32,33.34222459,61b8f3437b89212fae0dfade
5,0.5,space,0.2333,0,116,116,82,1,,,62db2644ab0a3a353c0dcb54,643772cad1e70aa0e81ff44f,2023-04-13_04h28.01.151,PRaM,2021.2.3,Win32,33.34222459,61b8f3437b89212fae0dfade
2,2.7983,space,1.0776,0,117,117,78,1,,,62db2644ab0a3a353c0dcb54,643772cad1e70aa0e81ff44f,2023-04-13_04h28.01.151,PRaM,2021.2.3,Win32,33.34222459,61b8f3437b89212fae0dfade
4,2.3206,space,0.5168,0,118,118,348,1,,,62db2644ab0a3a353c0dcb54,643772cad1e70aa0e81ff44f,2023-04-13_04h28.01.151,PRaM,2021.2.3,Win32,33.34222459,61b8f3437b89212fae0dfade
6,8.9026,space,7.8157,0,119,119,350,1,,,62db2644ab0a3a353c0dcb54,643772cad1e70aa0e81ff44f,2023-04-13_04h28.01.151,PRaM,2021.2.3,Win32,33.34222459,61b8f3437b89212fae0dfade
4,4.447,space,3.0751,0,120,120,205,1,,,62db2644ab0a3a353c0dcb54,643772cad1e70aa0e81ff44f,2023-04-13_04h28.01.151,PRaM,2021.2.3,Win32,33.34222459,61b8f3437b89212fae0dfade
3,2.5738,space,0.8936,0,121,121,100,1,,,62db2644ab0a3a353c0dcb54,643772cad1e70aa0e81ff44f,2023-04-13_04h28.01.151,PRaM,2021.2.3,Win32,33.34222459,61b8f3437b89212fae0dfade
3,1.6595,space,0.0091,0,122,122,10,1,,,62db2644ab0a3a353c0dcb54,643772cad1e70aa0e81ff44f,2023-04-13_04h28.01.151,PRaM,2021.2.3,Win32,33.34222459,61b8f3437b89212fae0dfade
2,1.9172,space,0.1989,0,123,123,91,1,,,62db2644ab0a3a353c0dcb54,643772cad1e70aa0e81ff44f,2023-04-13_04h28.01.151,PRaM,2021.2.3,Win32,33.34222459,61b8f3437b89212fae0dfade
6,2.121,space,0.7519,0,124,124,45,1,,,62db2644ab0a3a353c0dcb54,643772cad1e70aa0e81ff44f,2023-04-13_04h28.01.151,PRaM,2021.2.3,Win32,33.34222459,61b8f3437b89212fae0dfade
3,3.128,space,1.4012,0,125,125,375,1,,,62db2644ab0a3a353c0dcb54,643772cad1e70aa0e81ff44f,2023-04-13_04h28.01.151,PRaM,2021.2.3,Win32,33.34222459,61b8f3437b89212fae0dfade
4,3.5001,space,1.848,0,126,126,47,1,,,62db2644ab0a3a353c0dcb54,643772cad1e70aa0e81ff44f,2023-04-13_04h28.01.151,PRaM,2021.2.3,Win32,33.34222459,61b8f3437b89212fae0dfade
4,1.7844,space,0.0229,0,127,127,308,1,,,62db2644ab0a3a353c0dcb54,643772cad1e70aa0e81ff44f,2023-04-13_04h28.01.151,PRaM,2021.2.3,Win32,33.34222459,61b8f3437b89212fae0dfade
8,2.5056,space,0.9419,0,128,128,239,1,,,62db2644ab0a3a353c0dcb54,643772cad1e70aa0e81ff44f,2023-04-13_04h28.01.151,PRaM,2021.2.3,Win32,33.34222459,61b8f3437b89212fae0dfade
4,2.2724,space,0.4866,0,129,129,96,1,,,62db2644ab0a3a353c0dcb54,643772cad1e70aa0e81ff44f,2023-04-13_04h28.01.151,PRaM,2021.2.3,Win32,33.34222459,61b8f3437b89212fae0dfade
2,2.2498,space,0.5588,0,130,130,210,1,,,62db2644ab0a3a353c0dcb54,643772cad1e70aa0e81ff44f,2023-04-13_04h28.01.151,PRaM,2021.2.3,Win32,33.34222459,61b8f3437b89212fae0dfade
4,2.2981,space,0.5709,0,131,131,368,1,,,62db2644ab0a3a353c0dcb54,643772cad1e70aa0e81ff44f,2023-04-13_04h28.01.151,PRaM,2021.2.3,Win32,33.34222459,61b8f3437b89212fae0dfade
2,3.896,space,2.2215,0,132,132,9,1,,,62db2644ab0a3a353c0dcb54,643772cad1e70aa0e81ff44f,2023-04-13_04h28.01.151,PRaM,2021.2.3,Win32,33.34222459,61b8f3437b89212fae0dfade
5,2.2114,space,0.4566,0,133,133,278,1,,,62db2644ab0a3a353c0dcb54,643772cad1e70aa0e81ff44f,2023-04-13_04h28.01.151,PRaM,2021.2.3,Win32,33.34222459,61b8f3437b89212fae0dfade
3,2.5242,space,0.8063,0,134,134,50,1,,,62db2644ab0a3a353c0dcb54,643772cad1e70aa0e81ff44f,2023-04-13_04h28.01.151,PRaM,2021.2.3,Win32,33.34222459,61b8f3437b89212fae0dfade
7,2.1324,space,0.3676,0,135,135,139,1,,,62db2644ab0a3a353c0dcb54,643772cad1e70aa0e81ff44f,2023-04-13_04h28.01.151,PRaM,2021.2.3,Win32,33.34222459,61b8f3437b89212fae0dfade
7,2.1044,space,0.3169,0,136,136,75,1,,,62db2644ab0a3a353c0dcb54,643772cad1e70aa0e81ff44f,2023-04-13_04h28.01.151,PRaM,2021.2.3,Win32,33.34222459,61b8f3437b89212fae0dfade
5,0.78,space,3.0533,0,137,137,105,1,,,62db2644ab0a3a353c0dcb54,643772cad1e70aa0e81ff44f,2023-04-13_04h28.01.151,PRaM,2021.2.3,Win32,33.34222459,61b8f3437b89212fae0dfade
4,2.1922,space,0.4684,0,138,138,292,1,,,62db2644ab0a3a353c0dcb54,643772cad1e70aa0e81ff44f,2023-04-13_04h28.01.151,PRaM,2021.2.3,Win32,33.34222459,61b8f3437b89212fae0dfade
4,1.9577,space,0.5854,0,139,139,216,1,,,62db2644ab0a3a353c0dcb54,643772cad1e70aa0e81ff44f,2023-04-13_04h28.01.151,PRaM,2021.2.3,Win32,33.34222459,61b8f3437b89212fae0dfade
6,2,space,0.4161,0,140,140,302,1,,,62db2644ab0a3a353c0dcb54,643772cad1e70aa0e81ff44f,2023-04-13_04h28.01.151,PRaM,2021.2.3,Win32,33.34222459,61b8f3437b89212fae0dfade
4,2.21,space,0.5371,0,141,141,160,1,,,62db2644ab0a3a353c0dcb54,643772cad1e70aa0e81ff44f,2023-04-13_04h28.01.151,PRaM,2021.2.3,Win32,33.34222459,61b8f3437b89212fae0dfade
6,1.826,space,0.2758,0,142,142,22,1,,,62db2644ab0a3a353c0dcb54,643772cad1e70aa0e81ff44f,2023-04-13_04h28.01.151,PRaM,2021.2.3,Win32,33.34222459,61b8f3437b89212fae0dfade
6,3.6162,space,1.9318,0,143,143,331,1,,,62db2644ab0a3a353c0dcb54,643772cad1e70aa0e81ff44f,2023-04-13_04h28.01.151,PRaM,2021.2.3,Win32,33.34222459,61b8f3437b89212fae0dfade
3,2.1187,space,0.4151,0,144,144,251,1,,,62db2644ab0a3a353c0dcb54,643772cad1e70aa0e81ff44f,2023-04-13_04h28.01.151,PRaM,2021.2.3,Win32,33.34222459,61b8f3437b89212fae0dfade
2,2.1344,space,0.435,0,145,145,77,1,,,62db2644ab0a3a353c0dcb54,643772cad1e70aa0e81ff44f,2023-04-13_04h28.01.151,PRaM,2021.2.3,Win32,33.34222459,61b8f3437b89212fae0dfade
3,2.3805,space,1.0165,0,146,146,4,1,,,62db2644ab0a3a353c0dcb54,643772cad1e70aa0e81ff44f,2023-04-13_04h28.01.151,PRaM,2021.2.3,Win32,33.34222459,61b8f3437b89212fae0dfade
6,2.7261,space,0.989,0,147,147,136,1,,,62db2644ab0a3a353c0dcb54,643772cad1e70aa0e81ff44f,2023-04-13_04h28.01.151,PRaM,2021.2.3,Win32,33.34222459,61b8f3437b89212fae0dfade
3,2.2246,space,0.4638,0,148,148,193,1,,,62db2644ab0a3a353c0dcb54,643772cad1e70aa0e81ff44f,2023-04-13_04h28.01.151,PRaM,2021.2.3,Win32,33.34222459,61b8f3437b89212fae0dfade
4,2.4895,space,0.7146,0,149,149,321,1,,,62db2644ab0a3a353c0dcb54,643772cad1e70aa0e81ff44f,2023-04-13_04h28.01.151,PRaM,2021.2.3,Win32,33.34222459,61b8f3437b89212fae0dfade
4,1.8821,space,0.0694,0,150,150,203,1,,,62db2644ab0a3a353c0dcb54,643772cad1e70aa0e81ff44f,2023-04-13_04h28.01.151,PRaM,2021.2.3,Win32,33.34222459,61b8f3437b89212fae0dfade
2,2.9682,space,1.3956,0,151,151,41,1,,,62db2644ab0a3a353c0dcb54,643772cad1e70aa0e81ff44f,2023-04-13_04h28.01.151,PRaM,2021.2.3,Win32,33.34222459,61b8f3437b89212fae0dfade
4,9.0251,space,9.8833,0,152,152,377,1,,,62db2644ab0a3a353c0dcb54,643772cad1e70aa0e81ff44f,2023-04-13_04h28.01.151,PRaM,2021.2.3,Win32,33.34222459,61b8f3437b89212fae0dfade
4,2.0443,space,0.2501,0,153,153,333,1,,,62db2644ab0a3a353c0dcb54,643772cad1e70aa0e81ff44f,2023-04-13_04h28.01.151,PRaM,2021.2.3,Win32,33.34222459,61b8f3437b89212fae0dfade
4,1.826,space,0.4895,0,154,154,64,1,,,62db2644ab0a3a353c0dcb54,643772cad1e70aa0e81ff44f,2023-04-13_04h28.01.151,PRaM,2021.2.3,Win32,33.34222459,61b8f3437b89212fae0dfade
6,1.8395,space,0.3439,0,155,155,134,1,,,62db2644ab0a3a353c0dcb54,643772cad1e70aa0e81ff44f,2023-04-13_04h28.01.151,PRaM,2021.2.3,Win32,33.34222459,61b8f3437b89212fae0dfade
5,2.7744,space,1.0654,0,156,156,258,1,,,62db2644ab0a3a353c0dcb54,643772cad1e70aa0e81ff44f,2023-04-13_04h28.01.151,PRaM,2021.2.3,Win32,33.34222459,61b8f3437b89212fae0dfade
3,2.9677,space,1.393,0,157,157,68,1,,,62db2644ab0a3a353c0dcb54,643772cad1e70aa0e81ff44f,2023-04-13_04h28.01.151,PRaM,2021.2.3,Win32,33.34222459,61b8f3437b89212fae0dfade
2,167.0914,space,165.4198,0,158,158,122,1,,,62db2644ab0a3a353c0dcb54,643772cad1e70aa0e81ff44f,2023-04-13_04h28.01.151,PRaM,2021.2.3,Win32,33.34222459,61b8f3437b89212fae0dfade
6,2.2379,space,0.4635,0,159,159,117,1,,,62db2644ab0a3a353c0dcb54,643772cad1e70aa0e81ff44f,2023-04-13_04h28.01.151,PRaM,2021.2.3,Win32,33.34222459,61b8f3437b89212fae0dfade
4,1.7597,space,0.4664,0,160,160,161,1,,,62db2644ab0a3a353c0dcb54,643772cad1e70aa0e81ff44f,2023-04-13_04h28.01.151,PRaM,2021.2.3,Win32,33.34222459,61b8f3437b89212fae0dfade
3,1.9465,space,0.2171,0,161,161,108,1,,,62db2644ab0a3a353c0dcb54,643772cad1e70aa0e81ff44f,2023-04-13_04h28.01.151,PRaM,2021.2.3,Win32,33.34222459,61b8f3437b89212fae0dfade
5,1.7489,space,0.0674,0,162,162,141,1,,,62db2644ab0a3a353c0dcb54,643772cad1e70aa0e81ff44f,2023-04-13_04h28.01.151,PRaM,2021.2.3,Win32,33.34222459,61b8f3437b89212fae0dfade
4,2.8461,space,1.1862,0,163,163,337,1,,,62db2644ab0a3a353c0dcb54,643772cad1e70aa0e81ff44f,2023-04-13_04h28.01.151,PRaM,2021.2.3,Win32,33.34222459,61b8f3437b89212fae0dfade
5,6.0293,space,4.5896,0,164,164,211,1,,,62db2644ab0a3a353c0dcb54,643772cad1e70aa0e81ff44f,2023-04-13_04h28.01.151,PRaM,2021.2.3,Win32,33.34222459,61b8f3437b89212fae0dfade
2,1.8268,space,0.5105,0,165,165,248,1,,,62db2644ab0a3a353c0dcb54,643772cad1e70aa0e81ff44f,2023-04-13_04h28.01.151,PRaM,2021.2.3,Win32,33.34222459,61b8f3437b89212fae0dfade
8,2.1005,space,0.4274,0,166,166,14,1,,,62db2644ab0a3a353c0dcb54,643772cad1e70aa0e81ff44f,2023-04-13_04h28.01.151,PRaM,2021.2.3,Win32,33.34222459,61b8f3437b89212fae0dfade
2,2.1742,space,0.4833,0,167,167,229,1,,,62db2644ab0a3a353c0dcb54,643772cad1e70aa0e81ff44f,2023-04-13_04h28.01.151,PRaM,2021.2.3,Win32,33.34222459,61b8f3437b89212fae0dfade
5,1.9463,space,0.291,0,168,168,351,1,,,62db2644ab0a3a353c0dcb54,643772cad1e70aa0e81ff44f,2023-04-13_04h28.01.151,PRaM,2021.2.3,Win32,33.34222459,61b8f3437b89212fae0dfade
5,3.2899,space,1.8281,0,169,169,219,1,,,62db2644ab0a3a353c0dcb54,643772cad1e70aa0e81ff44f,2023-04-13_04h28.01.151,PRaM,2021.2.3,Win32,33.34222459,61b8f3437b89212fae0dfade
5,1.8659,space,0.1677,0,170,170,90,1,,,62db2644ab0a3a353c0dcb54,643772cad1e70aa0e81ff44f,2023-04-13_04h28.01.151,PRaM,2021.2.3,Win32,33.34222459,61b8f3437b89212fae0dfade
3,2.0831,space,0.3528,0,171,171,250,1,,,62db2644ab0a3a353c0dcb54,643772cad1e70aa0e81ff44f,2023-04-13_04h28.01.151,PRaM,2021.2.3,Win32,33.34222459,61b8f3437b89212fae0dfade
1,2.6336,space,0.9594,0,172,172,330,1,,,62db2644ab0a3a353c0dcb54,643772cad1e70aa0e81ff44f,2023-04-13_04h28.01.151,PRaM,2021.2.3,Win32,33.34222459,61b8f3437b89212fae0dfade
6,3.6543,space,2.0004,0,173,173,246,1,,,62db2644ab0a3a353c0dcb54,643772cad1e70aa0e81ff44f,2023-04-13_04h28.01.151,PRaM,2021.2.3,Win32,33.34222459,61b8f3437b89212fae0dfade
6,1.6582,space,0.5362,0,174,174,38,1,,,62db2644ab0a3a353c0dcb54,643772cad1e70aa0e81ff44f,2023-04-13_04h28.01.151,PRaM,2021.2.3,Win32,33.34222459,61b8f3437b89212fae0dfade
3,1.899,space,0.1682,0,175,175,2,1,,,62db2644ab0a3a353c0dcb54,643772cad1e70aa0e81ff44f,2023-04-13_04h28.01.151,PRaM,2021.2.3,Win32,33.34222459,61b8f3437b89212fae0dfade
6,2.7294,space,1.0171,0,176,176,29,1,,,62db2644ab0a3a353c0dcb54,643772cad1e70aa0e81ff44f,2023-04-13_04h28.01.151,PRaM,2021.2.3,Win32,33.34222459,61b8f3437b89212fae0dfade
7,2.6648,space,1.0491,0,177,177,225,1,,,62db2644ab0a3a353c0dcb54,643772cad1e70aa0e81ff44f,2023-04-13_04h28.01.151,PRaM,2021.2.3,Win32,33.34222459,61b8f3437b89212fae0dfade
5,1.6342,space,0.2194,0,178,178,111,1,,,62db2644ab0a3a353c0dcb54,643772cad1e70aa0e81ff44f,2023-04-13_04h28.01.151,PRaM,2021.2.3,Win32,33.34222459,61b8f3437b89212fae0dfade
5,2.7218,space,1.2316,0,179,179,209,1,,,62db2644ab0a3a353c0dcb54,643772cad1e70aa0e81ff44f,2023-04-13_04h28.01.151,PRaM,2021.2.3,Win32,33.34222459,61b8f3437b89212fae0dfade
5,2.6016,space,0.9861,0,180,180,97,1,,,62db2644ab0a3a353c0dcb54,643772cad1e70aa0e81ff44f,2023-04-13_04h28.01.151,PRaM,2021.2.3,Win32,33.34222459,61b8f3437b89212fae0dfade
5,1.4328,space,0.0725,0,181,181,172,1,,,62db2644ab0a3a353c0dcb54,643772cad1e70aa0e81ff44f,2023-04-13_04h28.01.151,PRaM,2021.2.3,Win32,33.34222459,61b8f3437b89212fae0dfade
3,1.9088,space,0.2183,0,182,182,128,1,,,62db2644ab0a3a353c0dcb54,643772cad1e70aa0e81ff44f,2023-04-13_04h28.01.151,PRaM,2021.2.3,Win32,33.34222459,61b8f3437b89212fae0dfade
3,1.9977,space,0.282,0,183,183,49,1,,,62db2644ab0a3a353c0dcb54,643772cad1e70aa0e81ff44f,2023-04-13_04h28.01.151,PRaM,2021.2.3,Win32,33.34222459,61b8f3437b89212fae0dfade
5,1.8028,space,0.2262,0,184,184,288,1,,,62db2644ab0a3a353c0dcb54,643772cad1e70aa0e81ff44f,2023-04-13_04h28.01.151,PRaM,2021.2.3,Win32,33.34222459,61b8f3437b89212fae0dfade
4,2.2733,space,0.4532,0,185,185,232,1,,,62db2644ab0a3a353c0dcb54,643772cad1e70aa0e81ff44f,2023-04-13_04h28.01.151,PRaM,2021.2.3,Win32,33.34222459,61b8f3437b89212fae0dfade
3,2.0809,space,0.3582,0,186,186,143,1,,,62db2644ab0a3a353c0dcb54,643772cad1e70aa0e81ff44f,2023-04-13_04h28.01.151,PRaM,2021.2.3,Win32,33.34222459,61b8f3437b89212fae0dfade
3,4.865,space,4.4483,0,187,187,28,1,,,62db2644ab0a3a353c0dcb54,643772cad1e70aa0e81ff44f,2023-04-13_04h28.01.151,PRaM,2021.2.3,Win32,33.34222459,61b8f3437b89212fae0dfade
4,1.601,space,0.3457,0,188,188,309,1,,,62db2644ab0a3a353c0dcb54,643772cad1e70aa0e81ff44f,2023-04-13_04h28.01.151,PRaM,2021.2.3,Win32,33.34222459,61b8f3437b89212fae0dfade
4,5.1994,space,3.427,0,189,189,174,1,,,62db2644ab0a3a353c0dcb54,643772cad1e70aa0e81ff44f,2023-04-13_04h28.01.151,PRaM,2021.2.3,Win32,33.34222459,61b8f3437b89212fae0dfade
3,2.7052,space,1.1292,0,190,190,287,1,,,62db2644ab0a3a353c0dcb54,643772cad1e70aa0e81ff44f,2023-04-13_04h28.01.151,PRaM,2021.2.3,Win32,33.34222459,61b8f3437b89212fae0dfade
3,0.8372,space,0.2777,0,191,191,240,1,,,62db2644ab0a3a353c0dcb54,643772cad1e70aa0e81ff44f,2023-04-13_04h28.01.151,PRaM,2021.2.3,Win32,33.34222459,61b8f3437b89212fae0dfade
3,2.0497,space,0.3428,0,192,192,144,1,,,62db2644ab0a3a353c0dcb54,643772cad1e70aa0e81ff44f,2023-04-13_04h28.01.151,PRaM,2021.2.3,Win32,33.34222459,61b8f3437b89212fae0dfade
6,3.3705,space,1.6852,0,193,193,208,1,,,62db2644ab0a3a353c0dcb54,643772cad1e70aa0e81ff44f,2023-04-13_04h28.01.151,PRaM,2021.2.3,Win32,33.34222459,61b8f3437b89212fae0dfade
5,1.6542,space,0.1318,0,194,194,37,1,,,62db2644ab0a3a353c0dcb54,643772cad1e70aa0e81ff44f,2023-04-13_04h28.01.151,PRaM,2021.2.3,Win32,33.34222459,61b8f3437b89212fae0dfade
5,0.674,space,0.1334,0,195,195,189,1,,,62db2644ab0a3a353c0dcb54,643772cad1e70aa0e81ff44f,2023-04-13_04h28.01.151,PRaM,2021.2.3,Win32,33.34222459,61b8f3437b89212fae0dfade
4,1.9833,space,0.1269,0,196,196,259,1,,,62db2644ab0a3a353c0dcb54,643772cad1e70aa0e81ff44f,2023-04-13_04h28.01.151,PRaM,2021.2.3,Win32,33.34222459,61b8f3437b89212fae0dfade
3,3.823,space,2.0548,0,197,197,159,1,,,62db2644ab0a3a353c0dcb54,643772cad1e70aa0e81ff44f,2023-04-13_04h28.01.151,PRaM,2021.2.3,Win32,33.34222459,61b8f3437b89212fae0dfade
4,1.7011,space,0.29,0,198,198,187,1,,,62db2644ab0a3a353c0dcb54,643772cad1e70aa0e81ff44f,2023-04-13_04h28.01.151,PRaM,2021.2.3,Win32,33.34222459,61b8f3437b89212fae0dfade
5,0.5005,space,0.2679,0,199,199,200,1,,,62db2644ab0a3a353c0dcb54,643772cad1e70aa0e81ff44f,2023-04-13_04h28.01.151,PRaM,2021.2.3,Win32,33.34222459,61b8f3437b89212fae0dfade
4,2.4174,space,0.6829,0,200,200,138,1,,,62db2644ab0a3a353c0dcb54,643772cad1e70aa0e81ff44f,2023-04-13_04h28.01.151,PRaM,2021.2.3,Win32,33.34222459,61b8f3437b89212fae0dfade
4,1.3169,space,0.1983,0,201,201,365,1,,,62db2644ab0a3a353c0dcb54,643772cad1e70aa0e81ff44f,2023-04-13_04h28.01.151,PRaM,2021.2.3,Win32,33.34222459,61b8f3437b89212fae0dfade
3,1.652,space,0.1019,0,202,202,261,1,,,62db2644ab0a3a353c0dcb54,643772cad1e70aa0e81ff44f,2023-04-13_04h28.01.151,PRaM,2021.2.3,Win32,33.34222459,61b8f3437b89212fae0dfade
6,1.8901,space,0.2191,0,203,203,0,1,,,62db2644ab0a3a353c0dcb54,643772cad1e70aa0e81ff44f,2023-04-13_04h28.01.151,PRaM,2021.2.3,Win32,33.34222459,61b8f3437b89212fae0dfade
6,2.2719,space,0.5252,0,204,204,238,1,,,62db2644ab0a3a353c0dcb54,643772cad1e70aa0e81ff44f,2023-04-13_04h28.01.151,PRaM,2021.2.3,Win32,33.34222459,61b8f3437b89212fae0dfade
5,2.4668,space,0.7284,0,205,205,62,1,,,62db2644ab0a3a353c0dcb54,643772cad1e70aa0e81ff44f,2023-04-13_04h28.01.151,PRaM,2021.2.3,Win32,33.34222459,61b8f3437b89212fae0dfade
5,0.7251,space,0.3168,0,206,206,281,1,,,62db2644ab0a3a353c0dcb54,643772cad1e70aa0e81ff44f,2023-04-13_04h28.01.151,PRaM,2021.2.3,Win32,33.34222459,61b8f3437b89212fae0dfade
5,0.968,space,0.2479,0,207,207,327,1,,,62db2644ab0a3a353c0dcb54,643772cad1e70aa0e81ff44f,2023-04-13_04h28.01.151,PRaM,2021.2.3,Win32,33.34222459,61b8f3437b89212fae0dfade
4,1.7155,space,0.4194,0,208,208,338,1,,,62db2644ab0a3a353c0dcb54,643772cad1e70aa0e81ff44f,2023-04-13_04h28.01.151,PRaM,2021.2.3,Win32,33.34222459,61b8f3437b89212fae0dfade
5,0.8435,space,0.017,0,209,209,356,1,,,62db2644ab0a3a353c0dcb54,643772cad1e70aa0e81ff44f,2023-04-13_04h28.01.151,PRaM,2021.2.3,Win32,33.34222459,61b8f3437b89212fae0dfade
8,3.6866,space,2.0053,0,210,210,137,1,,,62db2644ab0a3a353c0dcb54,643772cad1e70aa0e81ff44f,2023-04-13_04h28.01.151,PRaM,2021.2.3,Win32,33.34222459,61b8f3437b89212fae0dfade
3,1.908,space,0.201,0,211,211,344,1,,,62db2644ab0a3a353c0dcb54,643772cad1e70aa0e81ff44f,2023-04-13_04h28.01.151,PRaM,2021.2.3,Win32,33.34222459,61b8f3437b89212fae0dfade
4,0.6491,space,0.1383,0,212,212,166,1,,,62db2644ab0a3a353c0dcb54,643772cad1e70aa0e81ff44f,2023-04-13_04h28.01.151,PRaM,2021.2.3,Win32,33.34222459,61b8f3437b89212fae0dfade
3,2.1382,space,0.317,0,213,213,283,1,,,62db2644ab0a3a353c0dcb54,643772cad1e70aa0e81ff44f,2023-04-13_04h28.01.151,PRaM,2021.2.3,Win32,33.34222459,61b8f3437b89212fae0dfade
5,2.4004,space,0.6525,0,214,214,168,1,,,62db2644ab0a3a353c0dcb54,643772cad1e70aa0e81ff44f,2023-04-13_04h28.01.151,PRaM,2021.2.3,Win32,33.34222459,61b8f3437b89212fae0dfade
4,1.6999,space,0.2356,0,215,215,103,1,,,62db2644ab0a3a353c0dcb54,643772cad1e70aa0e81ff44f,2023-04-13_04h28.01.151,PRaM,2021.2.3,Win32,33.34222459,61b8f3437b89212fae0dfade
4,0.6515,space,0.2117,0,216,216,342,1,,,62db2644ab0a3a353c0dcb54,643772cad1e70aa0e81ff44f,2023-04-13_04h28.01.151,PRaM,2021.2.3,Win32,33.34222459,61b8f3437b89212fae0dfade
4,2.0374,space,0.2816,0,217,217,257,1,,,62db2644ab0a3a353c0dcb54,643772cad1e70aa0e81ff44f,2023-04-13_04h28.01.151,PRaM,2021.2.3,Win32,33.34222459,61b8f3437b89212fae0dfade
6,2.4992,space,0.7298,0,218,218,88,1,,,62db2644ab0a3a353c0dcb54,643772cad1e70aa0e81ff44f,2023-04-13_04h28.01.151,PRaM,2021.2.3,Win32,33.34222459,61b8f3437b89212fae0dfade
4,1.989,space,0.457,0,219,219,201,1,,,62db2644ab0a3a353c0dcb54,643772cad1e70aa0e81ff44f,2023-04-13_04h28.01.151,PRaM,2021.2.3,Win32,33.34222459,61b8f3437b89212fae0dfade
7,2.7905,space,1.0365,0,220,220,84,1,,,62db2644ab0a3a353c0dcb54,643772cad1e70aa0e81ff44f,2023-04-13_04h28.01.151,PRaM,2021.2.3,Win32,33.34222459,61b8f3437b89212fae0dfade
6,2.681,space,1.0336,0,221,221,44,1,,,62db2644ab0a3a353c0dcb54,643772cad1e70aa0e81ff44f,2023-04-13_04h28.01.151,PRaM,2021.2.3,Win32,33.34222459,61b8f3437b89212fae0dfade
4,1.5467,space,0.1547,0,222,222,335,1,,,62db2644ab0a3a353c0dcb54,643772cad1e70aa0e81ff44f,2023-04-13_04h28.01.151,PRaM,2021.2.3,Win32,33.34222459,61b8f3437b89212fae0dfade
4,0.7847,space,0.4943,0,223,223,280,1,,,62db2644ab0a3a353c0dcb54,643772cad1e70aa0e81ff44f,2023-04-13_04h28.01.151,PRaM,2021.2.3,Win32,33.34222459,61b8f3437b89212fae0dfade
3,2.2587,space,0.3837,0,224,224,133,1,,,62db2644ab0a3a353c0dcb54,643772cad1e70aa0e81ff44f,2023-04-13_04h28.01.151,PRaM,2021.2.3,Win32,33.34222459,61b8f3437b89212fae0dfade
6,2.8014,space,1.2479,0,225,225,297,1,,,62db2644ab0a3a353c0dcb54,643772cad1e70aa0e81ff44f,2023-04-13_04h28.01.151,PRaM,2021.2.3,Win32,33.34222459,61b8f3437b89212fae0dfade
5,1.6824,space,0.2244,0,226,226,123,1,,,62db2644ab0a3a353c0dcb54,643772cad1e70aa0e81ff44f,2023-04-13_04h28.01.151,PRaM,2021.2.3,Win32,33.34222459,61b8f3437b89212fae0dfade
4,1.5451,space,0.2826,0,227,227,185,1,,,62db2644ab0a3a353c0dcb54,643772cad1e70aa0e81ff44f,2023-04-13_04h28.01.151,PRaM,2021.2.3,Win32,33.34222459,61b8f3437b89212fae0dfade
4,1.5329,space,0.2994,0,228,228,177,1,,,62db2644ab0a3a353c0dcb54,643772cad1e70aa0e81ff44f,2023-04-13_04h28.01.151,PRaM,2021.2.3,Win32,33.34222459,61b8f3437b89212fae0dfade
5,2.7446,space,1.0476,0,229,229,98,1,,,62db2644ab0a3a353c0dcb54,643772cad1e70aa0e81ff44f,2023-04-13_04h28.01.151,PRaM,2021.2.3,Win32,33.34222459,61b8f3437b89212fae0dfade
2,2.2919,space,0.591,0,230,230,231,1,,,62db2644ab0a3a353c0dcb54,643772cad1e70aa0e81ff44f,2023-04-13_04h28.01.151,PRaM,2021.2.3,Win32,33.34222459,61b8f3437b89212fae0dfade
7,2.3288,space,0.6016,0,231,231,207,1,,,62db2644ab0a3a353c0dcb54,643772cad1e70aa0e81ff44f,2023-04-13_04h28.01.151,PRaM,2021.2.3,Win32,33.34222459,61b8f3437b89212fae0dfade
5,0.5109,space,0.3337,0,232,232,113,1,,,62db2644ab0a3a353c0dcb54,643772cad1e70aa0e81ff44f,2023-04-13_04h28.01.151,PRaM,2021.2.3,Win32,33.34222459,61b8f3437b89212fae0dfade
4,2.8792,space,1.1846,0,233,233,176,1,,,62db2644ab0a3a353c0dcb54,643772cad1e70aa0e81ff44f,2023-04-13_04h28.01.151,PRaM,2021.2.3,Win32,33.34222459,61b8f3437b89212fae0dfade
4,1.6995,space,0.3398,0,234,234,31,1,,,62db2644ab0a3a353c0dcb54,643772cad1e70aa0e81ff44f,2023-04-13_04h28.01.151,PRaM,2021.2.3,Win32,33.34222459,61b8f3437b89212fae0dfade
5,1.1788,space,0.0148,0,235,235,277,1,,,62db2644ab0a3a353c0dcb54,643772cad1e70aa0e81ff44f,2023-04-13_04h28.01.151,PRaM,2021.2.3,Win32,33.34222459,61b8f3437b89212fae0dfade
4,2.0127,space,0.2692,0,236,236,109,1,,,62db2644ab0a3a353c0dcb54,643772cad1e70aa0e81ff44f,2023-04-13_04h28.01.151,PRaM,2021.2.3,Win32,33.34222459,61b8f3437b89212fae0dfade
5,2.7341,space,1.0204,0,237,237,147,1,,,62db2644ab0a3a353c0dcb54,643772cad1e70aa0e81ff44f,2023-04-13_04h28.01.151,PRaM,2021.2.3,Win32,33.34222459,61b8f3437b89212fae0dfade
6,6.1816,space,5.3438,0,238,238,59,1,,,62db2644ab0a3a353c0dcb54,643772cad1e70aa0e81ff44f,2023-04-13_04h28.01.151,PRaM,2021.2.3,Win32,33.34222459,61b8f3437b89212fae0dfade
4,1.3284,space,0.2246,0,239,239,357,1,,,62db2644ab0a3a353c0dcb54,643772cad1e70aa0e81ff44f,2023-04-13_04h28.01.151,PRaM,2021.2.3,Win32,33.34222459,61b8f3437b89212fae0dfade
5,0.4668,space,0.285,0,240,240,156,1,,,62db2644ab0a3a353c0dcb54,643772cad1e70aa0e81ff44f,2023-04-13_04h28.01.151,PRaM,2021.2.3,Win32,33.34222459,61b8f3437b89212fae0dfade
3,2.2467,space,0.5476,0,241,241,132,1,,,62db2644ab0a3a353c0dcb54,643772cad1e70aa0e81ff44f,2023-04-13_04h28.01.151,PRaM,2021.2.3,Win32,33.34222459,61b8f3437b89212fae0dfade
2,3.3523,space,1.6114,0,242,242,270,1,,,62db2644ab0a3a353c0dcb54,643772cad1e70aa0e81ff44f,2023-04-13_04h28.01.151,PRaM,2021.2.3,Win32,33.34222459,61b8f3437b89212fae0dfade
4,4.5716,space,3.131,0,243,243,93,1,,,62db2644ab0a3a353c0dcb54,643772cad1e70aa0e81ff44f,2023-04-13_04h28.01.151,PRaM,2021.2.3,Win32,33.34222459,61b8f3437b89212fae0dfade
5,2.3992,space,0.9588,0,244,244,318,1,,,62db2644ab0a3a353c0dcb54,643772cad1e70aa0e81ff44f,2023-04-13_04h28.01.151,PRaM,2021.2.3,Win32,33.34222459,61b8f3437b89212fae0dfade
3,3.07,space,1.4048,0,245,245,295,1,,,62db2644ab0a3a353c0dcb54,643772cad1e70aa0e81ff44f,2023-04-13_04h28.01.151,PRaM,2021.2.3,Win32,33.34222459,61b8f3437b89212fae0dfade
5,1.5544,space,0.1836,0,246,246,173,1,,,62db2644ab0a3a353c0dcb54,643772cad1e70aa0e81ff44f,2023-04-13_04h28.01.151,PRaM,2021.2.3,Win32,33.34222459,61b8f3437b89212fae0dfade
5,0.4858,space,0.2046,0,247,247,30,1,,,62db2644ab0a3a353c0dcb54,643772cad1e70aa0e81ff44f,2023-04-13_04h28.01.151,PRaM,2021.2.3,Win32,33.34222459,61b8f3437b89212fae0dfade
4,1.4881,space,0.0006,0,248,248,131,1,,,62db2644ab0a3a353c0dcb54,643772cad1e70aa0e81ff44f,2023-04-13_04h28.01.151,PRaM,2021.2.3,Win32,33.34222459,61b8f3437b89212fae0dfade
3,1.9497,space,0.0372,0,249,249,254,1,,,62db2644ab0a3a353c0dcb54,643772cad1e70aa0e81ff44f,2023-04-13_04h28.01.151,PRaM,2021.2.3,Win32,33.34222459,61b8f3437b89212fae0dfade
4,2.5811,space,0.7024,0,250,250,256,1,,,62db2644ab0a3a353c0dcb54,643772cad1e70aa0e81ff44f,2023-04-13_04h28.01.151,PRaM,2021.2.3,Win32,33.34222459,61b8f3437b89212fae0dfade
5,0.6054,space,0.3026,0,251,251,63,1,,,62db2644ab0a3a353c0dcb54,643772cad1e70aa0e81ff44f,2023-04-13_04h28.01.151,PRaM,2021.2.3,Win32,33.34222459,61b8f3437b89212fae0dfade
4,0.6112,space,0.2003,0,252,252,15,1,,,62db2644ab0a3a353c0dcb54,643772cad1e70aa0e81ff44f,2023-04-13_04h28.01.151,PRaM,2021.2.3,Win32,33.34222459,61b8f3437b89212fae0dfade
3,3.911,space,2.1494,0,253,253,43,1,,,62db2644ab0a3a353c0dcb54,643772cad1e70aa0e81ff44f,2023-04-13_04h28.01.151,PRaM,2021.2.3,Win32,33.34222459,61b8f3437b89212fae0dfade
3,1.65,space,0.0003,0,254,254,336,1,,,62db2644ab0a3a353c0dcb54,643772cad1e70aa0e81ff44f,2023-04-13_04h28.01.151,PRaM,2021.2.3,Win32,33.34222459,61b8f3437b89212fae0dfade
3,1.7705,space,0.078,0,255,255,343,1,,,62db2644ab0a3a353c0dcb54,643772cad1e70aa0e81ff44f,2023-04-13_04h28.01.151,PRaM,2021.2.3,Win32,33.34222459,61b8f3437b89212fae0dfade
3,0.8564,space,0.1923,0,256,256,13,1,,,62db2644ab0a3a353c0dcb54,643772cad1e70aa0e81ff44f,2023-04-13_04h28.01.151,PRaM,2021.2.3,Win32,33.34222459,61b8f3437b89212fae0dfade
3,1.6587,space,0.6668,0,257,257,33,1,,,62db2644ab0a3a353c0dcb54,643772cad1e70aa0e81ff44f,2023-04-13_04h28.01.151,PRaM,2021.2.3,Win32,33.34222459,61b8f3437b89212fae0dfade
4,2.4022,space,0.7062,0,258,258,25,1,,,62db2644ab0a3a353c0dcb54,643772cad1e70aa0e81ff44f,2023-04-13_04h28.01.151,PRaM,2021.2.3,Win32,33.34222459,61b8f3437b89212fae0dfade
6,1.6598,space,0.3344,0,259,259,341,1,,,62db2644ab0a3a353c0dcb54,643772cad1e70aa0e81ff44f,2023-04-13_04h28.01.151,PRaM,2021.2.3,Win32,33.34222459,61b8f3437b89212fae0dfade
3,2.6843,space,0.9336,0,260,260,235,1,,,62db2644ab0a3a353c0dcb54,643772cad1e70aa0e81ff44f,2023-04-13_04h28.01.151,PRaM,2021.2.3,Win32,33.34222459,61b8f3437b89212fae0dfade
5,1.8442,space,0.0827,0,261,261,170,1,,,62db2644ab0a3a353c0dcb54,643772cad1e70aa0e81ff44f,2023-04-13_04h28.01.151,PRaM,2021.2.3,Win32,33.34222459,61b8f3437b89212fae0dfade
3,1.4663,space,0.1925,0,262,262,148,1,,,62db2644ab0a3a353c0dcb54,643772cad1e70aa0e81ff44f,2023-04-13_04h28.01.151,PRaM,2021.2.3,Win32,33.34222459,61b8f3437b89212fae0dfade
5,1.5711,space,0.0363,0,263,263,244,1,,,62db2644ab0a3a353c0dcb54,643772cad1e70aa0e81ff44f,2023-04-13_04h28.01.151,PRaM,2021.2.3,Win32,33.34222459,61b8f3437b89212fae0dfade
3,1.7295,space,0.2526,0,264,264,145,1,,,62db2644ab0a3a353c0dcb54,643772cad1e70aa0e81ff44f,2023-04-13_04h28.01.151,PRaM,2021.2.3,Win32,33.34222459,61b8f3437b89212fae0dfade
6,2.1451,space,0.5327,0,265,265,213,1,,,62db2644ab0a3a353c0dcb54,643772cad1e70aa0e81ff44f,2023-04-13_04h28.01.151,PRaM,2021.2.3,Win32,33.34222459,61b8f3437b89212fae0dfade
9,3.0948,space,1.4338,0,266,266,197,1,,,62db2644ab0a3a353c0dcb54,643772cad1e70aa0e81ff44f,2023-04-13_04h28.01.151,PRaM,2021.2.3,Win32,33.34222459,61b8f3437b89212fae0dfade
5,1.9112,space,1.5835,0,267,267,273,1,,,62db2644ab0a3a353c0dcb54,643772cad1e70aa0e81ff44f,2023-04-13_04h28.01.151,PRaM,2021.2.3,Win32,33.34222459,61b8f3437b89212fae0dfade
4,1.7139,space,0.3349,0,268,268,184,1,,,62db2644ab0a3a353c0dcb54,643772cad1e70aa0e81ff44f,2023-04-13_04h28.01.151,PRaM,2021.2.3,Win32,33.34222459,61b8f3437b89212fae0dfade
6,2.7623,space,1.0001,0,269,269,61,1,,,62db2644ab0a3a353c0dcb54,643772cad1e70aa0e81ff44f,2023-04-13_04h28.01.151,PRaM,2021.2.3,Win32,33.34222459,61b8f3437b89212fae0dfade
3,3.8317,space,2.0338,0,270,270,1,1,,,62db2644ab0a3a353c0dcb54,643772cad1e70aa0e81ff44f,2023-04-13_04h28.01.151,PRaM,2021.2.3,Win32,33.34222459,61b8f3437b89212fae0dfade
3,1.829,space,0.4993,0,271,271,260,1,,,62db2644ab0a3a353c0dcb54,643772cad1e70aa0e81ff44f,2023-04-13_04h28.01.151,PRaM,2021.2.3,Win32,33.34222459,61b8f3437b89212fae0dfade
3,2.0832,space,0.5662,0,272,272,11,1,,,62db2644ab0a3a353c0dcb54,643772cad1e70aa0e81ff44f,2023-04-13_04h28.01.151,PRaM,2021.2.3,Win32,33.34222459,61b8f3437b89212fae0dfade
6,2.1495,space,0.5423,0,273,273,221,1,,,62db2644ab0a3a353c0dcb54,643772cad1e70aa0e81ff44f,2023-04-13_04h28.01.151,PRaM,2021.2.3,Win32,33.34222459,61b8f3437b89212fae0dfade
3,1.8693,space,0.1081,0,274,274,262,1,,,62db2644ab0a3a353c0dcb54,643772cad1e70aa0e81ff44f,2023-04-13_04h28.01.151,PRaM,2021.2.3,Win32,33.34222459,61b8f3437b89212fae0dfade
5,2.0612,space,1.1564,0,275,275,6,1,,,62db2644ab0a3a353c0dcb54,643772cad1e70aa0e81ff44f,2023-04-13_04h28.01.151,PRaM,2021.2.3,Win32,33.34222459,61b8f3437b89212fae0dfade
5,2.4105,space,1.4839,0,276,276,142,1,,,62db2644ab0a3a353c0dcb54,643772cad1e70aa0e81ff44f,2023-04-13_04h28.01.151,PRaM,2021.2.3,Win32,33.34222459,61b8f3437b89212fae0dfade
5,7.7519,space,6.0856,0,277,277,164,1,,,62db2644ab0a3a353c0dcb54,643772cad1e70aa0e81ff44f,2023-04-13_04h28.01.151,PRaM,2021.2.3,Win32,33.34222459,61b8f3437b89212fae0dfade
3,2.0494,space,0.3645,0,278,278,316,1,,,62db2644ab0a3a353c0dcb54,643772cad1e70aa0e81ff44f,2023-04-13_04h28.01.151,PRaM,2021.2.3,Win32,33.34222459,61b8f3437b89212fae0dfade
5,2.0209,space,0.3238,0,279,279,206,1,,,62db2644ab0a3a353c0dcb54,643772cad1e70aa0e81ff44f,2023-04-13_04h28.01.151,PRaM,2021.2.3,Win32,33.34222459,61b8f3437b89212fae0dfade
5,0.8771,space,0.1322,0,280,280,353,1,,,62db2644ab0a3a353c0dcb54,643772cad1e70aa0e81ff44f,2023-04-13_04h28.01.151,PRaM,2021.2.3,Win32,33.34222459,61b8f3437b89212fae0dfade
2,2.6178,space,0.9737,0,281,281,339,1,,,62db2644ab0a3a353c0dcb54,643772cad1e70aa0e81ff44f,2023-04-13_04h28.01.151,PRaM,2021.2.3,Win32,33.34222459,61b8f3437b89212fae0dfade
6,2.4014,space,0.6684,0,282,282,328,1,,,62db2644ab0a3a353c0dcb54,643772cad1e70aa0e81ff44f,2023-04-13_04h28.01.151,PRaM,2021.2.3,Win32,33.34222459,61b8f3437b89212fae0dfade
5,0.6978,space,0.0562,0,283,283,311,1,,,62db2644ab0a3a353c0dcb54,643772cad1e70aa0e81ff44f,2023-04-13_04h28.01.151,PRaM,2021.2.3,Win32,33.34222459,61b8f3437b89212fae0dfade
4,7.334,space,6.1674,0,284,284,314,1,,,62db2644ab0a3a353c0dcb54,643772cad1e70aa0e81ff44f,2023-04-13_04h28.01.151,PRaM,2021.2.3,Win32,33.34222459,61b8f3437b89212fae0dfade
3,2.7694,space,1.1774,0,285,285,359,1,,,62db2644ab0a3a353c0dcb54,643772cad1e70aa0e81ff44f,2023-04-13_04h28.01.151,PRaM,2021.2.3,Win32,33.34222459,61b8f3437b89212fae0dfade
2,1.7725,space,0.0501,0,286,286,67,1,,,62db2644ab0a3a353c0dcb54,643772cad1e70aa0e81ff44f,2023-04-13_04h28.01.151,PRaM,2021.2.3,Win32,33.34222459,61b8f3437b89212fae0dfade
2,1.6831,space,0.3129,0,287,287,293,1,,,62db2644ab0a3a353c0dcb54,643772cad1e70aa0e81ff44f,2023-04-13_04h28.01.151,PRaM,2021.2.3,Win32,33.34222459,61b8f3437b89212fae0dfade
3,2.8238,space,1.0631,0,288,288,369,1,,,62db2644ab0a3a353c0dcb54,643772cad1e70aa0e81ff44f,2023-04-13_04h28.01.151,PRaM,2021.2.3,Win32,33.34222459,61b8f3437b89212fae0dfade
2,1.6842,space,0.01,0,289,289,227,1,,,62db2644ab0a3a353c0dcb54,643772cad1e70aa0e81ff44f,2023-04-13_04h28.01.151,PRaM,2021.2.3,Win32,33.34222459,61b8f3437b89212fae0dfade
1,2.9445,space,1.2802,0,290,290,190,1,,,62db2644ab0a3a353c0dcb54,643772cad1e70aa0e81ff44f,2023-04-13_04h28.01.151,PRaM,2021.2.3,Win32,33.34222459,61b8f3437b89212fae0dfade
4,2.7196,space,1.1361,0,291,291,74,1,,,62db2644ab0a3a353c0dcb54,643772cad1e70aa0e81ff44f,2023-04-13_04h28.01.151,PRaM,2021.2.3,Win32,33.34222459,61b8f3437b89212fae0dfade
5,0.5469,space,0.0312,0,292,292,102,1,,,62db2644ab0a3a353c0dcb54,643772cad1e70aa0e81ff44f,2023-04-13_04h28.01.151,PRaM,2021.2.3,Win32,33.34222459,61b8f3437b89212fae0dfade
5,0.607,space,0.5381,0,293,293,32,1,,,62db2644ab0a3a353c0dcb54,643772cad1e70aa0e81ff44f,2023-04-13_04h28.01.151,PRaM,2021.2.3,Win32,33.34222459,61b8f3437b89212fae0dfade
5,0.6306,space,0.1361,0,294,294,80,1,,,62db2644ab0a3a353c0dcb54,643772cad1e70aa0e81ff44f,2023-04-13_04h28.01.151,PRaM,2021.2.3,Win32,33.34222459,61b8f3437b89212fae0dfade
5,0.4191,space,0.064,0,295,295,224,1,,,62db2644ab0a3a353c0dcb54,643772cad1e70aa0e81ff44f,2023-04-13_04h28.01.151,PRaM,2021.2.3,Win32,33.34222459,61b8f3437b89212fae0dfade
5,0.5718,space,0.1251,0,296,296,223,1,,,62db2644ab0a3a353c0dcb54,643772cad1e70aa0e81ff44f,2023-04-13_04h28.01.151,PRaM,2021.2.3,Win32,33.34222459,61b8f3437b89212fae0dfade
5,0.518,space,0.4132,0,297,297,158,1,,,62db2644ab0a3a353c0dcb54,643772cad1e70aa0e81ff44f,2023-04-13_04h28.01.151,PRaM,2021.2.3,Win32,33.34222459,61b8f3437b89212fae0dfade
4,3.7607,space,2.1644,0,298,298,226,1,,,62db2644ab0a3a353c0dcb54,643772cad1e70aa0e81ff44f,2023-04-13_04h28.01.151,PRaM,2021.2.3,Win32,33.34222459,61b8f3437b89212fae0dfade
5,1.7061,space,0.3185,0,299,299,146,1,,,62db2644ab0a3a353c0dcb54,643772cad1e70aa0e81ff44f,2023-04-13_04h28.01.151,PRaM,2021.2.3,Win32,33.34222459,61b8f3437b89212fae0dfade
4,1.5638,space,0.3023,0,300,300,363,1,,,62db2644ab0a3a353c0dcb54,643772cad1e70aa0e81ff44f,2023-04-13_04h28.01.151,PRaM,2021.2.3,Win32,33.34222459,61b8f3437b89212fae0dfade
5,0.801,space,0.6501,0,301,301,182,1,,,62db2644ab0a3a353c0dcb54,643772cad1e70aa0e81ff44f,2023-04-13_04h28.01.151,PRaM,2021.2.3,Win32,33.34222459,61b8f3437b89212fae0dfade
4,3.1652,space,1.4154,0,302,302,345,1,,,62db2644ab0a3a353c0dcb54,643772cad1e70aa0e81ff44f,2023-04-13_04h28.01.151,PRaM,2021.2.3,Win32,33.34222459,61b8f3437b89212fae0dfade
3,1.8325,space,0.3225,0,303,303,243,1,,,62db2644ab0a3a353c0dcb54,643772cad1e70aa0e81ff44f,2023-04-13_04h28.01.151,PRaM,2021.2.3,Win32,33.34222459,61b8f3437b89212fae0dfade
3,2.6122,space,0.8557,0,304,304,130,1,,,62db2644ab0a3a353c0dcb54,643772cad1e70aa0e81ff44f,2023-04-13_04h28.01.151,PRaM,2021.2.3,Win32,33.34222459,61b8f3437b89212fae0dfade
8,3.8226,space,2.152,0,305,305,319,1,,,62db2644ab0a3a353c0dcb54,643772cad1e70aa0e81ff44f,2023-04-13_04h28.01.151,PRaM,2021.2.3,Win32,33.34222459,61b8f3437b89212fae0dfade
5,0.7115,space,0.3579,0,306,306,352,1,,,62db2644ab0a3a353c0dcb54,643772cad1e70aa0e81ff44f,2023-04-13_04h28.01.151,PRaM,2021.2.3,Win32,33.34222459,61b8f3437b89212fae0dfade
5,0.64,space,0.3681,0,307,307,48,1,,,62db2644ab0a3a353c0dcb54,643772cad1e70aa0e81ff44f,2023-04-13_04h28.01.151,PRaM,2021.2.3,Win32,33.34222459,61b8f3437b89212fae0dfade
5,0.6326,space,0.7148,0,308,308,218,1,,,62db2644ab0a3a353c0dcb54,643772cad1e70aa0e81ff44f,2023-04-13_04h28.01.151,PRaM,2021.2.3,Win32,33.34222459,61b8f3437b89212fae0dfade
5,0.6002,space,0.4391,0,309,309,204,1,,,62db2644ab0a3a353c0dcb54,643772cad1e70aa0e81ff44f,2023-04-13_04h28.01.151,PRaM,2021.2.3,Win32,33.34222459,61b8f3437b89212fae0dfade
3,2.3777,space,0.87,0,310,310,79,1,,,62db2644ab0a3a353c0dcb54,643772cad1e70aa0e81ff44f,2023-04-13_04h28.01.151,PRaM,2021.2.3,Win32,33.34222459,61b8f3437b89212fae0dfade
3,1.943,space,0.3981,0,311,311,265,1,,,62db2644ab0a3a353c0dcb54,643772cad1e70aa0e81ff44f,2023-04-13_04h28.01.151,PRaM,2021.2.3,Win32,33.34222459,61b8f3437b89212fae0dfade
4,1.7037,space,0.5139,0,312,312,125,1,,,62db2644ab0a3a353c0dcb54,643772cad1e70aa0e81ff44f,2023-04-13_04h28.01.151,PRaM,2021.2.3,Win32,33.34222459,61b8f3437b89212fae0dfade
3,3.0138,space,1.2364,0,313,313,202,1,,,62db2644ab0a3a353c0dcb54,643772cad1e70aa0e81ff44f,2023-04-13_04h28.01.151,PRaM,2021.2.3,Win32,33.34222459,61b8f3437b89212fae0dfade
5,0.5989,space,0.2847,0,314,314,20,1,,,62db2644ab0a3a353c0dcb54,643772cad1e70aa0e81ff44f,2023-04-13_04h28.01.151,PRaM,2021.2.3,Win32,33.34222459,61b8f3437b89212fae0dfade
2,2.2317,space,0.4663,0,315,315,245,1,,,62db2644ab0a3a353c0dcb54,643772cad1e70aa0e81ff44f,2023-04-13_04h28.01.151,PRaM,2021.2.3,Win32,33.34222459,61b8f3437b89212fae0dfade
5,2.7816,space,1.0831,0,316,316,175,1,,,62db2644ab0a3a353c0dcb54,643772cad1e70aa0e81ff44f,2023-04-13_04h28.01.151,PRaM,2021.2.3,Win32,33.34222459,61b8f3437b89212fae0dfade
5,0.9966,space,0.374,0,317,317,163,1,,,62db2644ab0a3a353c0dcb54,643772cad1e70aa0e81ff44f,2023-04-13_04h28.01.151,PRaM,2021.2.3,Win32,33.34222459,61b8f3437b89212fae0dfade
5,0.5554,space,0.4336,0,318,318,16,1,,,62db2644ab0a3a353c0dcb54,643772cad1e70aa0e81ff44f,2023-04-13_04h28.01.151,PRaM,2021.2.3,Win32,33.34222459,61b8f3437b89212fae0dfade
2,2.7317,space,1.0047,0,319,319,135,1,,,62db2644ab0a3a353c0dcb54,643772cad1e70aa0e81ff44f,2023-04-13_04h28.01.151,PRaM,2021.2.3,Win32,33.34222459,61b8f3437b89212fae0dfade
2,1.6427,space,0.0983,0,320,320,269,1,,,62db2644ab0a3a353c0dcb54,643772cad1e70aa0e81ff44f,2023-04-13_04h28.01.151,PRaM,2021.2.3,Win32,33.34222459,61b8f3437b89212fae0dfade
5,0.7802,space,0.239,0,321,321,198,1,,,62db2644ab0a3a353c0dcb54,643772cad1e70aa0e81ff44f,2023-04-13_04h28.01.151,PRaM,2021.2.3,Win32,33.34222459,61b8f3437b89212fae0dfade
2,1.7298,space,0.1301,0,322,322,247,1,,,62db2644ab0a3a353c0dcb54,643772cad1e70aa0e81ff44f,2023-04-13_04h28.01.151,PRaM,2021.2.3,Win32,33.34222459,61b8f3437b89212fae0dfade
4,1.8174,space,0.3225,0,323,323,371,1,,,62db2644ab0a3a353c0dcb54,643772cad1e70aa0e81ff44f,2023-04-13_04h28.01.151,PRaM,2021.2.3,Win32,33.34222459,61b8f3437b89212fae0dfade
6,2.0101,space,0.3518,0,324,324,192,1,,,62db2644ab0a3a353c0dcb54,643772cad1e70aa0e81ff44f,2023-04-13_04h28.01.151,PRaM,2021.2.3,Win32,33.34222459,61b8f3437b89212fae0dfade
6,2.7861,space,1.1703,0,325,325,99,1,,,62db2644ab0a3a353c0dcb54,643772cad1e70aa0e81ff44f,2023-04-13_04h28.01.151,PRaM,2021.2.3,Win32,33.34222459,61b8f3437b89212fae0dfade
5,0.472,space,0.5155,0,326,326,264,1,,,62db2644ab0a3a353c0dcb54,643772cad1e70aa0e81ff44f,2023-04-13_04h28.01.151,PRaM,2021.2.3,Win32,33.34222459,61b8f3437b89212fae0dfade
2,2.3304,space,0.6001,0,327,327,312,1,,,62db2644ab0a3a353c0dcb54,643772cad1e70aa0e81ff44f,2023-04-13_04h28.01.151,PRaM,2021.2.3,Win32,33.34222459,61b8f3437b89212fae0dfade
7,2.2113,space,0.737,0,328,328,127,1,,,62db2644ab0a3a353c0dcb54,643772cad1e70aa0e81ff44f,2023-04-13_04h28.01.151,PRaM,2021.2.3,Win32,33.34222459,61b8f3437b89212fae0dfade
5,0.7582,space,0.7497,0,329,329,72,1,,,62db2644ab0a3a353c0dcb54,643772cad1e70aa0e81ff44f,2023-04-13_04h28.01.151,PRaM,2021.2.3,Win32,33.34222459,61b8f3437b89212fae0dfade
4,2.0332,space,0.2979,0,330,330,95,1,,,62db2644ab0a3a353c0dcb54,643772cad1e70aa0e81ff44f,2023-04-13_04h28.01.151,PRaM,2021.2.3,Win32,33.34222459,61b8f3437b89212fae0dfade
3,2.0672,space,0.7514,0,331,331,267,1,,,62db2644ab0a3a353c0dcb54,643772cad1e70aa0e81ff44f,2023-04-13_04h28.01.151,PRaM,2021.2.3,Win32,33.34222459,61b8f3437b89212fae0dfade
3,1.0896,space,0.4504,0,332,332,271,1,,,62db2644ab0a3a353c0dcb54,643772cad1e70aa0e81ff44f,2023-04-13_04h28.01.151,PRaM,2021.2.3,Win32,33.34222459,61b8f3437b89212fae0dfade
4,1.4884,space,77.5583,0,333,333,179,1,,,62db2644ab0a3a353c0dcb54,643772cad1e70aa0e81ff44f,2023-04-13_04h28.01.151,PRaM,2021.2.3,Win32,33.34222459,61b8f3437b89212fae0dfade
5,3.8516,space,3.3764,0,334,334,242,1,,,62db2644ab0a3a353c0dcb54,643772cad1e70aa0e81ff44f,2023-04-13_04h28.01.151,PRaM,2021.2.3,Win32,33.34222459,61b8f3437b89212fae0dfade
5,0.6206,space,0.4075,0,335,335,324,1,,,62db2644ab0a3a353c0dcb54,643772cad1e70aa0e81ff44f,2023-04-13_04h28.01.151,PRaM,2021.2.3,Win32,33.34222459,61b8f3437b89212fae0dfade
3,2.4878,space,0.6727,0,336,336,71,1,,,62db2644ab0a3a353c0dcb54,643772cad1e70aa0e81ff44f,2023-04-13_04h28.01.151,PRaM,2021.2.3,Win32,33.34222459,61b8f3437b89212fae0dfade
4,2.0788,space,0.6172,0,337,337,104,1,,,62db2644ab0a3a353c0dcb54,643772cad1e70aa0e81ff44f,2023-04-13_04h28.01.151,PRaM,2021.2.3,Win32,33.34222459,61b8f3437b89212fae0dfade
4,2.1164,space,0.3736,0,338,338,340,1,,,62db2644ab0a3a353c0dcb54,643772cad1e70aa0e81ff44f,2023-04-13_04h28.01.151,PRaM,2021.2.3,Win32,33.34222459,61b8f3437b89212fae0dfade
6,2.5886,space,1.0106,0,339,339,151,1,,,62db2644ab0a3a353c0dcb54,643772cad1e70aa0e81ff44f,2023-04-13_04h28.01.151,PRaM,2021.2.3,Win32,33.34222459,61b8f3437b89212fae0dfade
3,1.9077,space,0.3014,0,340,340,290,1,,,62db2644ab0a3a353c0dcb54,643772cad1e70aa0e81ff44f,2023-04-13_04h28.01.151,PRaM,2021.2.3,Win32,33.34222459,61b8f3437b89212fae0dfade
3,1.6849,space,0.5699,0,341,341,34,1,,,62db2644ab0a3a353c0dcb54,643772cad1e70aa0e81ff44f,2023-04-13_04h28.01.151,PRaM,2021.2.3,Win32,33.34222459,61b8f3437b89212fae0dfade
3,1.5153,space,0.6327,0,342,342,266,1,,,62db2644ab0a3a353c0dcb54,643772cad1e70aa0e81ff44f,2023-04-13_04h28.01.151,PRaM,2021.2.3,Win32,33.34222459,61b8f3437b89212fae0dfade
4,1.9471,space,0.5697,0,343,343,263,1,,,62db2644ab0a3a353c0dcb54,643772cad1e70aa0e81ff44f,2023-04-13_04h28.01.151,PRaM,2021.2.3,Win32,33.34222459,61b8f3437b89212fae0dfade
5,2.8794,space,1.1439,0,344,344,274,1,,,62db2644ab0a3a353c0dcb54,643772cad1e70aa0e81ff44f,2023-04-13_04h28.01.151,PRaM,2021.2.3,Win32,33.34222459,61b8f3437b89212fae0dfade
5,1.6809,space,0.7935,0,345,345,307,1,,,62db2644ab0a3a353c0dcb54,643772cad1e70aa0e81ff44f,2023-04-13_04h28.01.151,PRaM,2021.2.3,Win32,33.34222459,61b8f3437b89212fae0dfade
5,2.0824,space,0.5488,0,346,346,69,1,,,62db2644ab0a3a353c0dcb54,643772cad1e70aa0e81ff44f,2023-04-13_04h28.01.151,PRaM,2021.2.3,Win32,33.34222459,61b8f3437b89212fae0dfade
5,1.6378,space,1.1127,0,347,347,186,1,,,62db2644ab0a3a353c0dcb54,643772cad1e70aa0e81ff44f,2023-04-13_04h28.01.151,PRaM,2021.2.3,Win32,33.34222459,61b8f3437b89212fae0dfade
6,2.4589,space,0.6482,0,348,348,152,1,,,62db2644ab0a3a353c0dcb54,643772cad1e70aa0e81ff44f,2023-04-13_04h28.01.151,PRaM,2021.2.3,Win32,33.34222459,61b8f3437b89212fae0dfade
2,2.082,space,0.9875,0,349,349,289,1,,,62db2644ab0a3a353c0dcb54,643772cad1e70aa0e81ff44f,2023-04-13_04h28.01.151,PRaM,2021.2.3,Win32,33.34222459,61b8f3437b89212fae0dfade
9,2.1585,space,0.349,0,350,350,325,1,,,62db2644ab0a3a353c0dcb54,643772cad1e70aa0e81ff44f,2023-04-13_04h28.01.151,PRaM,2021.2.3,Win32,33.34222459,61b8f3437b89212fae0dfade
4,2.0237,space,0.4611,0,351,351,183,1,,,62db2644ab0a3a353c0dcb54,643772cad1e70aa0e81ff44f,2023-04-13_04h28.01.151,PRaM,2021.2.3,Win32,33.34222459,61b8f3437b89212fae0dfade
6,2.963,space,1.3252,0,352,352,85,1,,,62db2644ab0a3a353c0dcb54,643772cad1e70aa0e81ff44f,2023-04-13_04h28.01.151,PRaM,2021.2.3,Win32,33.34222459,61b8f3437b89212fae0dfade
6,1.8061,space,0.1999,0,353,353,228,1,,,62db2644ab0a3a353c0dcb54,643772cad1e70aa0e81ff44f,2023-04-13_04h28.01.151,PRaM,2021.2.3,Win32,33.34222459,61b8f3437b89212fae0dfade
3,2.3795,space,0.7092,0,354,354,106,1,,,62db2644ab0a3a353c0dcb54,643772cad1e70aa0e81ff44f,2023-04-13_04h28.01.151,PRaM,2021.2.3,Win32,33.34222459,61b8f3437b89212fae0dfade
4,2.5567,space,0.8357,0,355,355,23,1,,,62db2644ab0a3a353c0dcb54,643772cad1e70aa0e81ff44f,2023-04-13_04h28.01.151,PRaM,2021.2.3,Win32,33.34222459,61b8f3437b89212fae0dfade
5,1.813,space,0.1864,0,356,356,199,1,,,62db2644ab0a3a353c0dcb54,643772cad1e70aa0e81ff44f,2023-04-13_04h28.01.151,PRaM,2021.2.3,Win32,33.34222459,61b8f3437b89212fae0dfade
1,2.7728,space,1.1137,0,357,357,107,1,,,62db2644ab0a3a353c0dcb54,643772cad1e70aa0e81ff44f,2023-04-13_04h28.01.151,PRaM,2021.2.3,Win32,33.34222459,61b8f3437b89212fae0dfade
3,1.9016,space,0.1315,0,358,358,73,1,,,62db2644ab0a3a353c0dcb54,643772cad1e70aa0e81ff44f,2023-04-13_04h28.01.151,PRaM,2021.2.3,Win32,33.34222459,61b8f3437b89212fae0dfade
6,3.5401,space,2.3694,0,359,359,115,1,,,62db2644ab0a3a353c0dcb54,643772cad1e70aa0e81ff44f,2023-04-13_04h28.01.151,PRaM,2021.2.3,Win32,33.34222459,61b8f3437b89212fae0dfade
5,0.546,space,0.3637,0,360,360,181,1,,,62db2644ab0a3a353c0dcb54,643772cad1e70aa0e81ff44f,2023-04-13_04h28.01.151,PRaM,2021.2.3,Win32,33.34222459,61b8f3437b89212fae0dfade
6,2.9721,space,1.5045,0,361,361,285,1,,,62db2644ab0a3a353c0dcb54,643772cad1e70aa0e81ff44f,2023-04-13_04h28.01.151,PRaM,2021.2.3,Win32,33.34222459,61b8f3437b89212fae0dfade
5,0.5987,space,0.5462,0,362,362,305,1,,,62db2644ab0a3a353c0dcb54,643772cad1e70aa0e81ff44f,2023-04-13_04h28.01.151,PRaM,2021.2.3,Win32,33.34222459,61b8f3437b89212fae0dfade
4,2.8387,space,1.2199,0,363,363,120,1,,,62db2644ab0a3a353c0dcb54,643772cad1e70aa0e81ff44f,2023-04-13_04h28.01.151,PRaM,2021.2.3,Win32,33.34222459,61b8f3437b89212fae0dfade
5,0.7808,space,0.634,0,364,364,306,1,,,62db2644ab0a3a353c0dcb54,643772cad1e70aa0e81ff44f,2023-04-13_04h28.01.151,PRaM,2021.2.3,Win32,33.34222459,61b8f3437b89212fae0dfade
7,2.4863,space,0.9343,0,365,365,222,1,,,62db2644ab0a3a353c0dcb54,643772cad1e70aa0e81ff44f,2023-04-13_04h28.01.151,PRaM,2021.2.3,Win32,33.34222459,61b8f3437b89212fae0dfade
6,2.938,space,1.2513,0,366,366,12,1,,,62db2644ab0a3a353c0dcb54,643772cad1e70aa0e81ff44f,2023-04-13_04h28.01.151,PRaM,2021.2.3,Win32,33.34222459,61b8f3437b89212fae0dfade
7,2.6992,space,1.2425,0,367,367,323,1,,,62db2644ab0a3a353c0dcb54,643772cad1e70aa0e81ff44f,2023-04-13_04h28.01.151,PRaM,2021.2.3,Win32,33.34222459,61b8f3437b89212fae0dfade
7,1.8981,space,0.7695,0,368,368,42,1,,,62db2644ab0a3a353c0dcb54,643772cad1e70aa0e81ff44f,2023-04-13_04h28.01.151,PRaM,2021.2.3,Win32,33.34222459,61b8f3437b89212fae0dfade
6,2.5478,space,0.8073,0,369,369,83,1,,,62db2644ab0a3a353c0dcb54,643772cad1e70aa0e81ff44f,2023-04-13_04h28.01.151,PRaM,2021.2.3,Win32,33.34222459,61b8f3437b89212fae0dfade
3,1.7452,space,0.3511,0,370,370,76,1,,,62db2644ab0a3a353c0dcb54,643772cad1e70aa0e81ff44f,2023-04-13_04h28.01.151,PRaM,2021.2.3,Win32,33.34222459,61b8f3437b89212fae0dfade
4,1.7757,space,0.157,0,371,371,370,1,,,62db2644ab0a3a353c0dcb54,643772cad1e70aa0e81ff44f,2023-04-13_04h28.01.151,PRaM,2021.2.3,Win32,33.34222459,61b8f3437b89212fae0dfade
3,1.9329,space,1.1866,0,372,372,57,1,,,62db2644ab0a3a353c0dcb54,643772cad1e70aa0e81ff44f,2023-04-13_04h28.01.151,PRaM,2021.2.3,Win32,33.34222459,61b8f3437b89212fae0dfade
4,1.9493,space,0.9767,0,373,373,101,1,,,62db2644ab0a3a353c0dcb54,643772cad1e70aa0e81ff44f,2023-04-13_04h28.01.151,PRaM,2021.2.3,Win32,33.34222459,61b8f3437b89212fae0dfade
2,4.178,space,2.4663,0,374,374,54,1,,,62db2644ab0a3a353c0dcb54,643772cad1e70aa0e81ff44f,2023-04-13_04h28.01.151,PRaM,2021.2.3,Win32,33.34222459,61b8f3437b89212fae0dfade
2,2.3249,space,0.6671,0,375,375,195,1,,,62db2644ab0a3a353c0dcb54,643772cad1e70aa0e81ff44f,2023-04-13_04h28.01.151,PRaM,2021.2.3,Win32,33.34222459,61b8f3437b89212fae0dfade
7,1.498,space,0.4041,0,376,376,326,1,,,62db2644ab0a3a353c0dcb54,643772cad1e70aa0e81ff44f,2023-04-13_04h28.01.151,PRaM,2021.2.3,Win32,33.34222459,61b8f3437b89212fae0dfade
3,2.5966,space,0.915,0,377,377,300,1,,,62db2644ab0a3a353c0dcb54,643772cad1e70aa0e81ff44f,2023-04-13_04h28.01.151,PRaM,2021.2.3,Win32,33.34222459,61b8f3437b89212fae0dfade
