Rating.response,Rating.rt,EndTrial.keys,EndTrial.rt,trials.thisRepN,trials.thisTrialN,trials.thisN,trials.thisIndex,trials.ran,Pos1,Pos2,participant,session,date,expName,psychopyVersion,OS,frameRate,study_id
2,7.4712,space,8.7055,0,0,0,10,1,,,62ebd3cd785939570957fe59,64377376b14e81d3250a416a,2023-04-13_04h14.46.460,PRaM,2021.2.3,Win32,60.09254252,61b8f3437b89212fae0dfade
3,3.2023,space,1.7494,0,1,1,220,1,,,62ebd3cd785939570957fe59,64377376b14e81d3250a416a,2023-04-13_04h14.46.460,PRaM,2021.2.3,Win32,60.09254252,61b8f3437b89212fae0dfade
6,3.7236,space,2.1229,0,2,2,263,1,,,62ebd3cd785939570957fe59,64377376b14e81d3250a416a,2023-04-13_04h14.46.460,PRaM,2021.2.3,Win32,60.09254252,61b8f3437b89212fae0dfade
3,3.0138,space,1.2188,0,3,3,44,1,,,62ebd3cd785939570957fe59,64377376b14e81d3250a416a,2023-04-13_04h14.46.460,PRaM,2021.2.3,Win32,60.09254252,61b8f3437b89212fae0dfade
8,2.9385,space,1.3835,0,4,4,327,1,,,62ebd3cd785939570957fe59,64377376b14e81d3250a416a,2023-04-13_04h14.46.460,PRaM,2021.2.3,Win32,60.09254252,61b8f3437b89212fae0dfade
7,2.6913,space,0.9238,0,5,5,288,1,,,62ebd3cd785939570957fe59,64377376b14e81d3250a416a,2023-04-13_04h14.46.460,PRaM,2021.2.3,Win32,60.09254252,61b8f3437b89212fae0dfade
5,3.5718,space,1.9179,0,6,6,217,1,,,62ebd3cd785939570957fe59,64377376b14e81d3250a416a,2023-04-13_04h14.46.460,PRaM,2021.2.3,Win32,60.09254252,61b8f3437b89212fae0dfade
5,2.1276,space,0.4033,0,7,7,362,1,,,62ebd3cd785939570957fe59,64377376b14e81d3250a416a,2023-04-13_04h14.46.460,PRaM,2021.2.3,Win32,60.09254252,61b8f3437b89212fae0dfade
6,2.4935,space,0.7013,0,8,8,223,1,,,62ebd3cd785939570957fe59,64377376b14e81d3250a416a,2023-04-13_04h14.46.460,PRaM,2021.2.3,Win32,60.09254252,61b8f3437b89212fae0dfade
8,2.1058,space,0.4012,0,9,9,208,1,,,62ebd3cd785939570957fe59,64377376b14e81d3250a416a,2023-04-13_04h14.46.460,PRaM,2021.2.3,Win32,60.09254252,61b8f3437b89212fae0dfade
2,3.1851,space,1.4863,0,10,10,50,1,,,62ebd3cd785939570957fe59,64377376b14e81d3250a416a,2023-04-13_04h14.46.460,PRaM,2021.2.3,Win32,60.09254252,61b8f3437b89212fae0dfade
9,3.0371,space,1.3899,0,11,11,66,1,,,62ebd3cd785939570957fe59,64377376b14e81d3250a416a,2023-04-13_04h14.46.460,PRaM,2021.2.3,Win32,60.09254252,61b8f3437b89212fae0dfade
5,2.9814,space,1.2118,0,12,12,272,1,,,62ebd3cd785939570957fe59,64377376b14e81d3250a416a,2023-04-13_04h14.46.460,PRaM,2021.2.3,Win32,60.09254252,61b8f3437b89212fae0dfade
3,2.8627,space,1.1089,0,13,13,243,1,,,62ebd3cd785939570957fe59,64377376b14e81d3250a416a,2023-04-13_04h14.46.460,PRaM,2021.2.3,Win32,60.09254252,61b8f3437b89212fae0dfade
2,3.453,space,1.7831,0,14,14,79,1,,,62ebd3cd785939570957fe59,64377376b14e81d3250a416a,2023-04-13_04h14.46.460,PRaM,2021.2.3,Win32,60.09254252,61b8f3437b89212fae0dfade
2,3.09,space,1.4668,0,15,15,1,1,,,62ebd3cd785939570957fe59,64377376b14e81d3250a416a,2023-04-13_04h14.46.460,PRaM,2021.2.3,Win32,60.09254252,61b8f3437b89212fae0dfade
5,2.2603,space,0.4187,0,16,16,257,1,,,62ebd3cd785939570957fe59,64377376b14e81d3250a416a,2023-04-13_04h14.46.460,PRaM,2021.2.3,Win32,60.09254252,61b8f3437b89212fae0dfade
7,2.5554,space,0.8839,0,17,17,255,1,,,62ebd3cd785939570957fe59,64377376b14e81d3250a416a,2023-04-13_04h14.46.460,PRaM,2021.2.3,Win32,60.09254252,61b8f3437b89212fae0dfade
6,2.2297,space,0.4178,0,18,18,233,1,,,62ebd3cd785939570957fe59,64377376b14e81d3250a416a,2023-04-13_04h14.46.460,PRaM,2021.2.3,Win32,60.09254252,61b8f3437b89212fae0dfade
8,2.4609,space,0.6785,0,19,19,363,1,,,62ebd3cd785939570957fe59,64377376b14e81d3250a416a,2023-04-13_04h14.46.460,PRaM,2021.2.3,Win32,60.09254252,61b8f3437b89212fae0dfade
9,2.2571,space,0.4947,0,20,20,301,1,,,62ebd3cd785939570957fe59,64377376b14e81d3250a416a,2023-04-13_04h14.46.460,PRaM,2021.2.3,Win32,60.09254252,61b8f3437b89212fae0dfade
5,2.3544,space,0.6073,0,21,21,356,1,,,62ebd3cd785939570957fe59,64377376b14e81d3250a416a,2023-04-13_04h14.46.460,PRaM,2021.2.3,Win32,60.09254252,61b8f3437b89212fae0dfade
5,2.3881,space,0.6343,0,22,22,143,1,,,62ebd3cd785939570957fe59,64377376b14e81d3250a416a,2023-04-13_04h14.46.460,PRaM,2021.2.3,Win32,60.09254252,61b8f3437b89212fae0dfade
6,1.9101,space,0.1348,0,23,23,168,1,,,62ebd3cd785939570957fe59,64377376b14e81d3250a416a,2023-04-13_04h14.46.460,PRaM,2021.2.3,Win32,60.09254252,61b8f3437b89212fae0dfade
5,1.8543,space,0.0882,0,24,24,160,1,,,62ebd3cd785939570957fe59,64377376b14e81d3250a416a,2023-04-13_04h14.46.460,PRaM,2021.2.3,Win32,60.09254252,61b8f3437b89212fae0dfade
5,2.8055,space,1.1032,0,25,25,82,1,,,62ebd3cd785939570957fe59,64377376b14e81d3250a416a,2023-04-13_04h14.46.460,PRaM,2021.2.3,Win32,60.09254252,61b8f3437b89212fae0dfade
6,2.1317,space,0.3043,0,26,26,19,1,,,62ebd3cd785939570957fe59,64377376b14e81d3250a416a,2023-04-13_04h14.46.460,PRaM,2021.2.3,Win32,60.09254252,61b8f3437b89212fae0dfade
6,1.5143,space,1.4878,0,27,27,4,1,,,62ebd3cd785939570957fe59,64377376b14e81d3250a416a,2023-04-13_04h14.46.460,PRaM,2021.2.3,Win32,60.09254252,61b8f3437b89212fae0dfade
3,2.4734,space,0.7507,0,28,28,250,1,,,62ebd3cd785939570957fe59,64377376b14e81d3250a416a,2023-04-13_04h14.46.460,PRaM,2021.2.3,Win32,60.09254252,61b8f3437b89212fae0dfade
6,2.822,space,1.0846,0,29,29,76,1,,,62ebd3cd785939570957fe59,64377376b14e81d3250a416a,2023-04-13_04h14.46.460,PRaM,2021.2.3,Win32,60.09254252,61b8f3437b89212fae0dfade
7,2.7598,space,1.0014,0,30,30,83,1,,,62ebd3cd785939570957fe59,64377376b14e81d3250a416a,2023-04-13_04h14.46.460,PRaM,2021.2.3,Win32,60.09254252,61b8f3437b89212fae0dfade
6,2.9425,space,1.1895,0,31,31,116,1,,,62ebd3cd785939570957fe59,64377376b14e81d3250a416a,2023-04-13_04h14.46.460,PRaM,2021.2.3,Win32,60.09254252,61b8f3437b89212fae0dfade
4,3.078,space,1.4342,0,32,32,269,1,,,62ebd3cd785939570957fe59,64377376b14e81d3250a416a,2023-04-13_04h14.46.460,PRaM,2021.2.3,Win32,60.09254252,61b8f3437b89212fae0dfade
6,4.2105,space,2.4402,0,33,33,68,1,,,62ebd3cd785939570957fe59,64377376b14e81d3250a416a,2023-04-13_04h14.46.460,PRaM,2021.2.3,Win32,60.09254252,61b8f3437b89212fae0dfade
6,3.0381,space,1.3772,0,34,34,111,1,,,62ebd3cd785939570957fe59,64377376b14e81d3250a416a,2023-04-13_04h14.46.460,PRaM,2021.2.3,Win32,60.09254252,61b8f3437b89212fae0dfade
6,1.6636,space,2.513,0,35,35,221,1,,,62ebd3cd785939570957fe59,64377376b14e81d3250a416a,2023-04-13_04h14.46.460,PRaM,2021.2.3,Win32,60.09254252,61b8f3437b89212fae0dfade
5,3.1859,space,1.4179,0,36,36,316,1,,,62ebd3cd785939570957fe59,64377376b14e81d3250a416a,2023-04-13_04h14.46.460,PRaM,2021.2.3,Win32,60.09254252,61b8f3437b89212fae0dfade
8,2.6363,space,1.0748,0,37,37,242,1,,,62ebd3cd785939570957fe59,64377376b14e81d3250a416a,2023-04-13_04h14.46.460,PRaM,2021.2.3,Win32,60.09254252,61b8f3437b89212fae0dfade
8,2.1237,space,0.3226,0,38,38,209,1,,,62ebd3cd785939570957fe59,64377376b14e81d3250a416a,2023-04-13_04h14.46.460,PRaM,2021.2.3,Win32,60.09254252,61b8f3437b89212fae0dfade
6,2.8604,space,1.1009,0,39,39,348,1,,,62ebd3cd785939570957fe59,64377376b14e81d3250a416a,2023-04-13_04h14.46.460,PRaM,2021.2.3,Win32,60.09254252,61b8f3437b89212fae0dfade
6,1.8979,space,0.1843,0,40,40,358,1,,,62ebd3cd785939570957fe59,64377376b14e81d3250a416a,2023-04-13_04h14.46.460,PRaM,2021.2.3,Win32,60.09254252,61b8f3437b89212fae0dfade
5,10.7562,space,8.9488,0,41,41,97,1,,,62ebd3cd785939570957fe59,64377376b14e81d3250a416a,2023-04-13_04h14.46.460,PRaM,2021.2.3,Win32,60.09254252,61b8f3437b89212fae0dfade
5,1.7797,space,1.3152,0,42,42,29,1,,,62ebd3cd785939570957fe59,64377376b14e81d3250a416a,2023-04-13_04h14.46.460,PRaM,2021.2.3,Win32,60.09254252,61b8f3437b89212fae0dfade
8,2.6152,space,1.0209,0,43,43,16,1,,,62ebd3cd785939570957fe59,64377376b14e81d3250a416a,2023-04-13_04h14.46.460,PRaM,2021.2.3,Win32,60.09254252,61b8f3437b89212fae0dfade
6,3.5879,space,1.8551,0,44,44,216,1,,,62ebd3cd785939570957fe59,64377376b14e81d3250a416a,2023-04-13_04h14.46.460,PRaM,2021.2.3,Win32,60.09254252,61b8f3437b89212fae0dfade
6,6.9865,space,5.2346,0,45,45,201,1,,,62ebd3cd785939570957fe59,64377376b14e81d3250a416a,2023-04-13_04h14.46.460,PRaM,2021.2.3,Win32,60.09254252,61b8f3437b89212fae0dfade
7,2.6039,space,0.7883,0,46,46,46,1,,,62ebd3cd785939570957fe59,64377376b14e81d3250a416a,2023-04-13_04h14.46.460,PRaM,2021.2.3,Win32,60.09254252,61b8f3437b89212fae0dfade
5,3.1922,space,1.5848,0,47,47,63,1,,,62ebd3cd785939570957fe59,64377376b14e81d3250a416a,2023-04-13_04h14.46.460,PRaM,2021.2.3,Win32,60.09254252,61b8f3437b89212fae0dfade
6,1.8223,space,0.0746,0,48,48,345,1,,,62ebd3cd785939570957fe59,64377376b14e81d3250a416a,2023-04-13_04h14.46.460,PRaM,2021.2.3,Win32,60.09254252,61b8f3437b89212fae0dfade
7,2.6989,space,0.8706,0,49,49,152,1,,,62ebd3cd785939570957fe59,64377376b14e81d3250a416a,2023-04-13_04h14.46.460,PRaM,2021.2.3,Win32,60.09254252,61b8f3437b89212fae0dfade
5,2.5564,space,0.824,0,50,50,314,1,,,62ebd3cd785939570957fe59,64377376b14e81d3250a416a,2023-04-13_04h14.46.460,PRaM,2021.2.3,Win32,60.09254252,61b8f3437b89212fae0dfade
5,1.8945,space,0.0678,0,51,51,164,1,,,62ebd3cd785939570957fe59,64377376b14e81d3250a416a,2023-04-13_04h14.46.460,PRaM,2021.2.3,Win32,60.09254252,61b8f3437b89212fae0dfade
7,2.5386,space,0.8271,0,52,52,185,1,,,62ebd3cd785939570957fe59,64377376b14e81d3250a416a,2023-04-13_04h14.46.460,PRaM,2021.2.3,Win32,60.09254252,61b8f3437b89212fae0dfade
1,2.6163,space,1.2344,0,53,53,329,1,,,62ebd3cd785939570957fe59,64377376b14e81d3250a416a,2023-04-13_04h14.46.460,PRaM,2021.2.3,Win32,60.09254252,61b8f3437b89212fae0dfade
2,2.792,space,1.0264,0,54,54,144,1,,,62ebd3cd785939570957fe59,64377376b14e81d3250a416a,2023-04-13_04h14.46.460,PRaM,2021.2.3,Win32,60.09254252,61b8f3437b89212fae0dfade
3,4.1355,space,2.3702,0,55,55,9,1,,,62ebd3cd785939570957fe59,64377376b14e81d3250a416a,2023-04-13_04h14.46.460,PRaM,2021.2.3,Win32,60.09254252,61b8f3437b89212fae0dfade
6,3.9542,space,2.2533,0,56,56,200,1,,,62ebd3cd785939570957fe59,64377376b14e81d3250a416a,2023-04-13_04h14.46.460,PRaM,2021.2.3,Win32,60.09254252,61b8f3437b89212fae0dfade
6,3.6854,space,1.8058,0,57,57,199,1,,,62ebd3cd785939570957fe59,64377376b14e81d3250a416a,2023-04-13_04h14.46.460,PRaM,2021.2.3,Win32,60.09254252,61b8f3437b89212fae0dfade
9,4.6388,space,2.8877,0,58,58,137,1,,,62ebd3cd785939570957fe59,64377376b14e81d3250a416a,2023-04-13_04h14.46.460,PRaM,2021.2.3,Win32,60.09254252,61b8f3437b89212fae0dfade
8,2.0397,space,0.2678,0,59,59,280,1,,,62ebd3cd785939570957fe59,64377376b14e81d3250a416a,2023-04-13_04h14.46.460,PRaM,2021.2.3,Win32,60.09254252,61b8f3437b89212fae0dfade
2,3.3236,space,1.6558,0,60,60,232,1,,,62ebd3cd785939570957fe59,64377376b14e81d3250a416a,2023-04-13_04h14.46.460,PRaM,2021.2.3,Win32,60.09254252,61b8f3437b89212fae0dfade
5,4.3403,space,2.6237,0,61,61,286,1,,,62ebd3cd785939570957fe59,64377376b14e81d3250a416a,2023-04-13_04h14.46.460,PRaM,2021.2.3,Win32,60.09254252,61b8f3437b89212fae0dfade
3,2.3062,space,0.6346,0,62,62,240,1,,,62ebd3cd785939570957fe59,64377376b14e81d3250a416a,2023-04-13_04h14.46.460,PRaM,2021.2.3,Win32,60.09254252,61b8f3437b89212fae0dfade
2,3.5307,space,1.8909,0,63,63,275,1,,,62ebd3cd785939570957fe59,64377376b14e81d3250a416a,2023-04-13_04h14.46.460,PRaM,2021.2.3,Win32,60.09254252,61b8f3437b89212fae0dfade
6,7.7059,space,6.0677,0,64,64,159,1,,,62ebd3cd785939570957fe59,64377376b14e81d3250a416a,2023-04-13_04h14.46.460,PRaM,2021.2.3,Win32,60.09254252,61b8f3437b89212fae0dfade
2,11.3704,space,9.6111,0,65,65,354,1,,,62ebd3cd785939570957fe59,64377376b14e81d3250a416a,2023-04-13_04h14.46.460,PRaM,2021.2.3,Win32,60.09254252,61b8f3437b89212fae0dfade
2,1.6319,space,0.8132,0,66,66,303,1,,,62ebd3cd785939570957fe59,64377376b14e81d3250a416a,2023-04-13_04h14.46.460,PRaM,2021.2.3,Win32,60.09254252,61b8f3437b89212fae0dfade
9,2.7026,space,1.0003,0,67,67,335,1,,,62ebd3cd785939570957fe59,64377376b14e81d3250a416a,2023-04-13_04h14.46.460,PRaM,2021.2.3,Win32,60.09254252,61b8f3437b89212fae0dfade
7,1.9399,space,0.2345,0,68,68,361,1,,,62ebd3cd785939570957fe59,64377376b14e81d3250a416a,2023-04-13_04h14.46.460,PRaM,2021.2.3,Win32,60.09254252,61b8f3437b89212fae0dfade
7,2.674,space,1.1701,0,69,69,270,1,,,62ebd3cd785939570957fe59,64377376b14e81d3250a416a,2023-04-13_04h14.46.460,PRaM,2021.2.3,Win32,60.09254252,61b8f3437b89212fae0dfade
7,2.8035,space,1.0366,0,70,70,225,1,,,62ebd3cd785939570957fe59,64377376b14e81d3250a416a,2023-04-13_04h14.46.460,PRaM,2021.2.3,Win32,60.09254252,61b8f3437b89212fae0dfade
7,3.3423,space,1.6269,0,71,71,119,1,,,62ebd3cd785939570957fe59,64377376b14e81d3250a416a,2023-04-13_04h14.46.460,PRaM,2021.2.3,Win32,60.09254252,61b8f3437b89212fae0dfade
7,1.6589,space,0.6346,0,72,72,192,1,,,62ebd3cd785939570957fe59,64377376b14e81d3250a416a,2023-04-13_04h14.46.460,PRaM,2021.2.3,Win32,60.09254252,61b8f3437b89212fae0dfade
7,1.5526,space,0.452,0,73,73,134,1,,,62ebd3cd785939570957fe59,64377376b14e81d3250a416a,2023-04-13_04h14.46.460,PRaM,2021.2.3,Win32,60.09254252,61b8f3437b89212fae0dfade
5,2.7312,space,1.0723,0,74,74,147,1,,,62ebd3cd785939570957fe59,64377376b14e81d3250a416a,2023-04-13_04h14.46.460,PRaM,2021.2.3,Win32,60.09254252,61b8f3437b89212fae0dfade
5,1.7416,space,0.0099,0,75,75,146,1,,,62ebd3cd785939570957fe59,64377376b14e81d3250a416a,2023-04-13_04h14.46.460,PRaM,2021.2.3,Win32,60.09254252,61b8f3437b89212fae0dfade
2,2.6828,space,1.0836,0,76,76,229,1,,,62ebd3cd785939570957fe59,64377376b14e81d3250a416a,2023-04-13_04h14.46.460,PRaM,2021.2.3,Win32,60.09254252,61b8f3437b89212fae0dfade
3,2.6382,space,1.0014,0,77,77,191,1,,,62ebd3cd785939570957fe59,64377376b14e81d3250a416a,2023-04-13_04h14.46.460,PRaM,2021.2.3,Win32,60.09254252,61b8f3437b89212fae0dfade
1,4.0368,space,2.3373,0,78,78,15,1,,,62ebd3cd785939570957fe59,64377376b14e81d3250a416a,2023-04-13_04h14.46.460,PRaM,2021.2.3,Win32,60.09254252,61b8f3437b89212fae0dfade
,,space,5.5395,0,79,79,253,1,,,62ebd3cd785939570957fe59,64377376b14e81d3250a416a,2023-04-13_04h14.46.460,PRaM,2021.2.3,Win32,60.09254252,61b8f3437b89212fae0dfade
7,8.4418,space,6.7733,0,80,80,64,1,,,62ebd3cd785939570957fe59,64377376b14e81d3250a416a,2023-04-13_04h14.46.460,PRaM,2021.2.3,Win32,60.09254252,61b8f3437b89212fae0dfade
4,3.0032,space,1.6009,0,81,81,338,1,,,62ebd3cd785939570957fe59,64377376b14e81d3250a416a,2023-04-13_04h14.46.460,PRaM,2021.2.3,Win32,60.09254252,61b8f3437b89212fae0dfade
8,2.9298,space,1.6006,0,82,82,132,1,,,62ebd3cd785939570957fe59,64377376b14e81d3250a416a,2023-04-13_04h14.46.460,PRaM,2021.2.3,Win32,60.09254252,61b8f3437b89212fae0dfade
7,5.2026,space,3.5091,0,83,83,370,1,,,62ebd3cd785939570957fe59,64377376b14e81d3250a416a,2023-04-13_04h14.46.460,PRaM,2021.2.3,Win32,60.09254252,61b8f3437b89212fae0dfade
5,3.307,space,1.6403,0,84,84,278,1,,,62ebd3cd785939570957fe59,64377376b14e81d3250a416a,2023-04-13_04h14.46.460,PRaM,2021.2.3,Win32,60.09254252,61b8f3437b89212fae0dfade
7,2.4618,space,0.6828,0,85,85,239,1,,,62ebd3cd785939570957fe59,64377376b14e81d3250a416a,2023-04-13_04h14.46.460,PRaM,2021.2.3,Win32,60.09254252,61b8f3437b89212fae0dfade
4,2.64,space,0.9411,0,86,86,218,1,,,62ebd3cd785939570957fe59,64377376b14e81d3250a416a,2023-04-13_04h14.46.460,PRaM,2021.2.3,Win32,60.09254252,61b8f3437b89212fae0dfade
6,2.2386,space,0.5013,0,87,87,104,1,,,62ebd3cd785939570957fe59,64377376b14e81d3250a416a,2023-04-13_04h14.46.460,PRaM,2021.2.3,Win32,60.09254252,61b8f3437b89212fae0dfade
7,3.5987,space,1.8158,0,88,88,291,1,,,62ebd3cd785939570957fe59,64377376b14e81d3250a416a,2023-04-13_04h14.46.460,PRaM,2021.2.3,Win32,60.09254252,61b8f3437b89212fae0dfade
7,1.9254,space,0.1054,0,89,89,281,1,,,62ebd3cd785939570957fe59,64377376b14e81d3250a416a,2023-04-13_04h14.46.460,PRaM,2021.2.3,Win32,60.09254252,61b8f3437b89212fae0dfade
8,2.2727,space,0.7322,0,90,90,277,1,,,62ebd3cd785939570957fe59,64377376b14e81d3250a416a,2023-04-13_04h14.46.460,PRaM,2021.2.3,Win32,60.09254252,61b8f3437b89212fae0dfade
8,1.66,space,0.6731,0,91,91,30,1,,,62ebd3cd785939570957fe59,64377376b14e81d3250a416a,2023-04-13_04h14.46.460,PRaM,2021.2.3,Win32,60.09254252,61b8f3437b89212fae0dfade
2,3.5891,space,1.8675,0,92,92,247,1,,,62ebd3cd785939570957fe59,64377376b14e81d3250a416a,2023-04-13_04h14.46.460,PRaM,2021.2.3,Win32,60.09254252,61b8f3437b89212fae0dfade
7,2.6685,space,0.9527,0,93,93,304,1,,,62ebd3cd785939570957fe59,64377376b14e81d3250a416a,2023-04-13_04h14.46.460,PRaM,2021.2.3,Win32,60.09254252,61b8f3437b89212fae0dfade
9,2.6401,space,0.9717,0,94,94,197,1,,,62ebd3cd785939570957fe59,64377376b14e81d3250a416a,2023-04-13_04h14.46.460,PRaM,2021.2.3,Win32,60.09254252,61b8f3437b89212fae0dfade
7,2.2568,space,0.6016,0,95,95,173,1,,,62ebd3cd785939570957fe59,64377376b14e81d3250a416a,2023-04-13_04h14.46.460,PRaM,2021.2.3,Win32,60.09254252,61b8f3437b89212fae0dfade
7,1.508,space,0.6276,0,96,96,40,1,,,62ebd3cd785939570957fe59,64377376b14e81d3250a416a,2023-04-13_04h14.46.460,PRaM,2021.2.3,Win32,60.09254252,61b8f3437b89212fae0dfade
5,2.0548,space,0.3345,0,97,97,324,1,,,62ebd3cd785939570957fe59,64377376b14e81d3250a416a,2023-04-13_04h14.46.460,PRaM,2021.2.3,Win32,60.09254252,61b8f3437b89212fae0dfade
5,2.3947,space,0.6232,0,98,98,52,1,,,62ebd3cd785939570957fe59,64377376b14e81d3250a416a,2023-04-13_04h14.46.460,PRaM,2021.2.3,Win32,60.09254252,61b8f3437b89212fae0dfade
1,5.79,space,4.3011,0,99,99,195,1,,,62ebd3cd785939570957fe59,64377376b14e81d3250a416a,2023-04-13_04h14.46.460,PRaM,2021.2.3,Win32,60.09254252,61b8f3437b89212fae0dfade
3,4.3453,space,2.6912,0,100,100,198,1,,,62ebd3cd785939570957fe59,64377376b14e81d3250a416a,2023-04-13_04h14.46.460,PRaM,2021.2.3,Win32,60.09254252,61b8f3437b89212fae0dfade
2,37.6894,space,36.1193,0,101,101,212,1,,,62ebd3cd785939570957fe59,64377376b14e81d3250a416a,2023-04-13_04h14.46.460,PRaM,2021.2.3,Win32,60.09254252,61b8f3437b89212fae0dfade
6,3.1892,space,1.5179,0,102,102,186,1,,,62ebd3cd785939570957fe59,64377376b14e81d3250a416a,2023-04-13_04h14.46.460,PRaM,2021.2.3,Win32,60.09254252,61b8f3437b89212fae0dfade
6,1.399,space,0.4717,0,103,103,21,1,,,62ebd3cd785939570957fe59,64377376b14e81d3250a416a,2023-04-13_04h14.46.460,PRaM,2021.2.3,Win32,60.09254252,61b8f3437b89212fae0dfade
6,13.109,space,11.7205,0,104,104,344,1,,,62ebd3cd785939570957fe59,64377376b14e81d3250a416a,2023-04-13_04h14.46.460,PRaM,2021.2.3,Win32,60.09254252,61b8f3437b89212fae0dfade
7,2.2403,space,0.7858,0,105,105,142,1,,,62ebd3cd785939570957fe59,64377376b14e81d3250a416a,2023-04-13_04h14.46.460,PRaM,2021.2.3,Win32,60.09254252,61b8f3437b89212fae0dfade
7,1.5716,space,0.0704,0,106,106,194,1,,,62ebd3cd785939570957fe59,64377376b14e81d3250a416a,2023-04-13_04h14.46.460,PRaM,2021.2.3,Win32,60.09254252,61b8f3437b89212fae0dfade
9,2.3822,space,0.983,0,107,107,326,1,,,62ebd3cd785939570957fe59,64377376b14e81d3250a416a,2023-04-13_04h14.46.460,PRaM,2021.2.3,Win32,60.09254252,61b8f3437b89212fae0dfade
5,2.3887,space,1.0367,0,108,108,121,1,,,62ebd3cd785939570957fe59,64377376b14e81d3250a416a,2023-04-13_04h14.46.460,PRaM,2021.2.3,Win32,60.09254252,61b8f3437b89212fae0dfade
5,1.5719,space,1.3056,0,109,109,322,1,,,62ebd3cd785939570957fe59,64377376b14e81d3250a416a,2023-04-13_04h14.46.460,PRaM,2021.2.3,Win32,60.09254252,61b8f3437b89212fae0dfade
7,3.7745,space,2.1054,0,110,110,80,1,,,62ebd3cd785939570957fe59,64377376b14e81d3250a416a,2023-04-13_04h14.46.460,PRaM,2021.2.3,Win32,60.09254252,61b8f3437b89212fae0dfade
7,1.8451,space,0.2228,0,111,111,90,1,,,62ebd3cd785939570957fe59,64377376b14e81d3250a416a,2023-04-13_04h14.46.460,PRaM,2021.2.3,Win32,60.09254252,61b8f3437b89212fae0dfade
7,1.6063,space,0.8555,0,112,112,60,1,,,62ebd3cd785939570957fe59,64377376b14e81d3250a416a,2023-04-13_04h14.46.460,PRaM,2021.2.3,Win32,60.09254252,61b8f3437b89212fae0dfade
3,2.6216,space,0.9613,0,113,113,78,1,,,62ebd3cd785939570957fe59,64377376b14e81d3250a416a,2023-04-13_04h14.46.460,PRaM,2021.2.3,Win32,60.09254252,61b8f3437b89212fae0dfade
5,3.8135,space,2.2218,0,114,114,371,1,,,62ebd3cd785939570957fe59,64377376b14e81d3250a416a,2023-04-13_04h14.46.460,PRaM,2021.2.3,Win32,60.09254252,61b8f3437b89212fae0dfade
3,4.4021,space,2.6407,0,115,115,11,1,,,62ebd3cd785939570957fe59,64377376b14e81d3250a416a,2023-04-13_04h14.46.460,PRaM,2021.2.3,Win32,60.09254252,61b8f3437b89212fae0dfade
5,2.8224,space,1.1008,0,116,116,311,1,,,62ebd3cd785939570957fe59,64377376b14e81d3250a416a,2023-04-13_04h14.46.460,PRaM,2021.2.3,Win32,60.09254252,61b8f3437b89212fae0dfade
6,2.3902,space,0.702,0,117,117,112,1,,,62ebd3cd785939570957fe59,64377376b14e81d3250a416a,2023-04-13_04h14.46.460,PRaM,2021.2.3,Win32,60.09254252,61b8f3437b89212fae0dfade
7,2.246,space,0.5845,0,118,118,14,1,,,62ebd3cd785939570957fe59,64377376b14e81d3250a416a,2023-04-13_04h14.46.460,PRaM,2021.2.3,Win32,60.09254252,61b8f3437b89212fae0dfade
6,2.8554,space,1.1347,0,119,119,262,1,,,62ebd3cd785939570957fe59,64377376b14e81d3250a416a,2023-04-13_04h14.46.460,PRaM,2021.2.3,Win32,60.09254252,61b8f3437b89212fae0dfade
6,1.8659,space,0.1584,0,120,120,25,1,,,62ebd3cd785939570957fe59,64377376b14e81d3250a416a,2023-04-13_04h14.46.460,PRaM,2021.2.3,Win32,60.09254252,61b8f3437b89212fae0dfade
8,2.1267,space,0.402,0,121,121,114,1,,,62ebd3cd785939570957fe59,64377376b14e81d3250a416a,2023-04-13_04h14.46.460,PRaM,2021.2.3,Win32,60.09254252,61b8f3437b89212fae0dfade
5,18.6939,space,17.5201,0,122,122,32,1,,,62ebd3cd785939570957fe59,64377376b14e81d3250a416a,2023-04-13_04h14.46.460,PRaM,2021.2.3,Win32,60.09254252,61b8f3437b89212fae0dfade
5,2.0377,space,0.3343,0,123,123,22,1,,,62ebd3cd785939570957fe59,64377376b14e81d3250a416a,2023-04-13_04h14.46.460,PRaM,2021.2.3,Win32,60.09254252,61b8f3437b89212fae0dfade
3,2.2488,space,0.4887,0,124,124,129,1,,,62ebd3cd785939570957fe59,64377376b14e81d3250a416a,2023-04-13_04h14.46.460,PRaM,2021.2.3,Win32,60.09254252,61b8f3437b89212fae0dfade
7,2.6855,space,0.9694,0,125,125,166,1,,,62ebd3cd785939570957fe59,64377376b14e81d3250a416a,2023-04-13_04h14.46.460,PRaM,2021.2.3,Win32,60.09254252,61b8f3437b89212fae0dfade
8,5.1054,space,3.3993,0,126,126,56,1,,,62ebd3cd785939570957fe59,64377376b14e81d3250a416a,2023-04-13_04h14.46.460,PRaM,2021.2.3,Win32,60.09254252,61b8f3437b89212fae0dfade
6,2.3888,space,0.6644,0,127,127,93,1,,,62ebd3cd785939570957fe59,64377376b14e81d3250a416a,2023-04-13_04h14.46.460,PRaM,2021.2.3,Win32,60.09254252,61b8f3437b89212fae0dfade
2,3.5542,space,1.7872,0,128,128,8,1,,,62ebd3cd785939570957fe59,64377376b14e81d3250a416a,2023-04-13_04h14.46.460,PRaM,2021.2.3,Win32,60.09254252,61b8f3437b89212fae0dfade
6,2.5659,space,0.8435,0,129,129,355,1,,,62ebd3cd785939570957fe59,64377376b14e81d3250a416a,2023-04-13_04h14.46.460,PRaM,2021.2.3,Win32,60.09254252,61b8f3437b89212fae0dfade
6,2.5742,space,0.8763,0,130,130,343,1,,,62ebd3cd785939570957fe59,64377376b14e81d3250a416a,2023-04-13_04h14.46.460,PRaM,2021.2.3,Win32,60.09254252,61b8f3437b89212fae0dfade
5,2.8747,space,1.1724,0,131,131,190,1,,,62ebd3cd785939570957fe59,64377376b14e81d3250a416a,2023-04-13_04h14.46.460,PRaM,2021.2.3,Win32,60.09254252,61b8f3437b89212fae0dfade
5,3.9092,space,2.1572,0,132,132,126,1,,,62ebd3cd785939570957fe59,64377376b14e81d3250a416a,2023-04-13_04h14.46.460,PRaM,2021.2.3,Win32,60.09254252,61b8f3437b89212fae0dfade
4,2.7886,space,1.1906,0,133,133,13,1,,,62ebd3cd785939570957fe59,64377376b14e81d3250a416a,2023-04-13_04h14.46.460,PRaM,2021.2.3,Win32,60.09254252,61b8f3437b89212fae0dfade
7,2.6222,space,1.0015,0,134,134,3,1,,,62ebd3cd785939570957fe59,64377376b14e81d3250a416a,2023-04-13_04h14.46.460,PRaM,2021.2.3,Win32,60.09254252,61b8f3437b89212fae0dfade
7,2.4885,space,0.806,0,135,135,219,1,,,62ebd3cd785939570957fe59,64377376b14e81d3250a416a,2023-04-13_04h14.46.460,PRaM,2021.2.3,Win32,60.09254252,61b8f3437b89212fae0dfade
5,2.8378,space,1.1845,0,136,136,241,1,,,62ebd3cd785939570957fe59,64377376b14e81d3250a416a,2023-04-13_04h14.46.460,PRaM,2021.2.3,Win32,60.09254252,61b8f3437b89212fae0dfade
6,2.4767,space,0.8039,0,137,137,96,1,,,62ebd3cd785939570957fe59,64377376b14e81d3250a416a,2023-04-13_04h14.46.460,PRaM,2021.2.3,Win32,60.09254252,61b8f3437b89212fae0dfade
4,3.4761,space,1.7207,0,138,138,34,1,,,62ebd3cd785939570957fe59,64377376b14e81d3250a416a,2023-04-13_04h14.46.460,PRaM,2021.2.3,Win32,60.09254252,61b8f3437b89212fae0dfade
5,2.5574,space,0.8052,0,139,139,299,1,,,62ebd3cd785939570957fe59,64377376b14e81d3250a416a,2023-04-13_04h14.46.460,PRaM,2021.2.3,Win32,60.09254252,61b8f3437b89212fae0dfade
8,3.5405,space,1.7676,0,140,140,196,1,,,62ebd3cd785939570957fe59,64377376b14e81d3250a416a,2023-04-13_04h14.46.460,PRaM,2021.2.3,Win32,60.09254252,61b8f3437b89212fae0dfade
8,1.7486,space,0.0677,0,141,141,53,1,,,62ebd3cd785939570957fe59,64377376b14e81d3250a416a,2023-04-13_04h14.46.460,PRaM,2021.2.3,Win32,60.09254252,61b8f3437b89212fae0dfade
4,4.2518,space,2.5396,0,142,142,330,1,,,62ebd3cd785939570957fe59,64377376b14e81d3250a416a,2023-04-13_04h14.46.460,PRaM,2021.2.3,Win32,60.09254252,61b8f3437b89212fae0dfade
5,2.2688,space,0.5453,0,143,143,364,1,,,62ebd3cd785939570957fe59,64377376b14e81d3250a416a,2023-04-13_04h14.46.460,PRaM,2021.2.3,Win32,60.09254252,61b8f3437b89212fae0dfade
4,3.6566,space,1.6865,0,144,144,45,1,,,62ebd3cd785939570957fe59,64377376b14e81d3250a416a,2023-04-13_04h14.46.460,PRaM,2021.2.3,Win32,60.09254252,61b8f3437b89212fae0dfade
3,2.8253,space,1.1172,0,145,145,176,1,,,62ebd3cd785939570957fe59,64377376b14e81d3250a416a,2023-04-13_04h14.46.460,PRaM,2021.2.3,Win32,60.09254252,61b8f3437b89212fae0dfade
3,2.4716,space,0.8066,0,146,146,235,1,,,62ebd3cd785939570957fe59,64377376b14e81d3250a416a,2023-04-13_04h14.46.460,PRaM,2021.2.3,Win32,60.09254252,61b8f3437b89212fae0dfade
6,2.4137,space,0.6589,0,147,147,69,1,,,62ebd3cd785939570957fe59,64377376b14e81d3250a416a,2023-04-13_04h14.46.460,PRaM,2021.2.3,Win32,60.09254252,61b8f3437b89212fae0dfade
6,2.3661,space,0.6051,0,148,148,123,1,,,62ebd3cd785939570957fe59,64377376b14e81d3250a416a,2023-04-13_04h14.46.460,PRaM,2021.2.3,Win32,60.09254252,61b8f3437b89212fae0dfade
5,2.7275,space,1.043,0,149,149,238,1,,,62ebd3cd785939570957fe59,64377376b14e81d3250a416a,2023-04-13_04h14.46.460,PRaM,2021.2.3,Win32,60.09254252,61b8f3437b89212fae0dfade
6,3.7787,space,2.0183,0,150,150,183,1,,,62ebd3cd785939570957fe59,64377376b14e81d3250a416a,2023-04-13_04h14.46.460,PRaM,2021.2.3,Win32,60.09254252,61b8f3437b89212fae0dfade
6,2.4717,space,1.0353,0,151,151,321,1,,,62ebd3cd785939570957fe59,64377376b14e81d3250a416a,2023-04-13_04h14.46.460,PRaM,2021.2.3,Win32,60.09254252,61b8f3437b89212fae0dfade
3,3.4354,space,1.5576,0,152,152,359,1,,,62ebd3cd785939570957fe59,64377376b14e81d3250a416a,2023-04-13_04h14.46.460,PRaM,2021.2.3,Win32,60.09254252,61b8f3437b89212fae0dfade
8,6.7221,space,5.3386,0,153,153,151,1,,,62ebd3cd785939570957fe59,64377376b14e81d3250a416a,2023-04-13_04h14.46.460,PRaM,2021.2.3,Win32,60.09254252,61b8f3437b89212fae0dfade
5,2.5953,space,0.9691,0,154,154,376,1,,,62ebd3cd785939570957fe59,64377376b14e81d3250a416a,2023-04-13_04h14.46.460,PRaM,2021.2.3,Win32,60.09254252,61b8f3437b89212fae0dfade
6,4.8693,space,3.1706,0,155,155,334,1,,,62ebd3cd785939570957fe59,64377376b14e81d3250a416a,2023-04-13_04h14.46.460,PRaM,2021.2.3,Win32,60.09254252,61b8f3437b89212fae0dfade
5,6.0085,space,4.3917,0,156,156,273,1,,,62ebd3cd785939570957fe59,64377376b14e81d3250a416a,2023-04-13_04h14.46.460,PRaM,2021.2.3,Win32,60.09254252,61b8f3437b89212fae0dfade
3,2.6305,space,0.8867,0,157,157,293,1,,,62ebd3cd785939570957fe59,64377376b14e81d3250a416a,2023-04-13_04h14.46.460,PRaM,2021.2.3,Win32,60.09254252,61b8f3437b89212fae0dfade
6,3.2226,space,1.4886,0,158,158,72,1,,,62ebd3cd785939570957fe59,64377376b14e81d3250a416a,2023-04-13_04h14.46.460,PRaM,2021.2.3,Win32,60.09254252,61b8f3437b89212fae0dfade
6,63.943,space,62.1858,0,159,159,153,1,,,62ebd3cd785939570957fe59,64377376b14e81d3250a416a,2023-04-13_04h14.46.460,PRaM,2021.2.3,Win32,60.09254252,61b8f3437b89212fae0dfade
5,2.8385,space,1.2573,0,160,160,6,1,,,62ebd3cd785939570957fe59,64377376b14e81d3250a416a,2023-04-13_04h14.46.460,PRaM,2021.2.3,Win32,60.09254252,61b8f3437b89212fae0dfade
5,1.938,space,0.2281,0,161,161,373,1,,,62ebd3cd785939570957fe59,64377376b14e81d3250a416a,2023-04-13_04h14.46.460,PRaM,2021.2.3,Win32,60.09254252,61b8f3437b89212fae0dfade
6,3.6928,space,1.9204,0,162,162,128,1,,,62ebd3cd785939570957fe59,64377376b14e81d3250a416a,2023-04-13_04h14.46.460,PRaM,2021.2.3,Win32,60.09254252,61b8f3437b89212fae0dfade
6,5.6764,space,4.0345,0,163,163,74,1,,,62ebd3cd785939570957fe59,64377376b14e81d3250a416a,2023-04-13_04h14.46.460,PRaM,2021.2.3,Win32,60.09254252,61b8f3437b89212fae0dfade
3,2.9191,space,1.2374,0,164,164,234,1,,,62ebd3cd785939570957fe59,64377376b14e81d3250a416a,2023-04-13_04h14.46.460,PRaM,2021.2.3,Win32,60.09254252,61b8f3437b89212fae0dfade
6,2.6086,space,0.9216,0,165,165,171,1,,,62ebd3cd785939570957fe59,64377376b14e81d3250a416a,2023-04-13_04h14.46.460,PRaM,2021.2.3,Win32,60.09254252,61b8f3437b89212fae0dfade
6,2.7734,space,1.0573,0,166,166,306,1,,,62ebd3cd785939570957fe59,64377376b14e81d3250a416a,2023-04-13_04h14.46.460,PRaM,2021.2.3,Win32,60.09254252,61b8f3437b89212fae0dfade
5,2.2233,space,0.5348,0,167,167,73,1,,,62ebd3cd785939570957fe59,64377376b14e81d3250a416a,2023-04-13_04h14.46.460,PRaM,2021.2.3,Win32,60.09254252,61b8f3437b89212fae0dfade
6,12.6554,space,11.4539,0,168,168,279,1,,,62ebd3cd785939570957fe59,64377376b14e81d3250a416a,2023-04-13_04h14.46.460,PRaM,2021.2.3,Win32,60.09254252,61b8f3437b89212fae0dfade
7,6.3365,space,4.5529,0,169,169,207,1,,,62ebd3cd785939570957fe59,64377376b14e81d3250a416a,2023-04-13_04h14.46.460,PRaM,2021.2.3,Win32,60.09254252,61b8f3437b89212fae0dfade
6,2.2776,space,0.8849,0,170,170,0,1,,,62ebd3cd785939570957fe59,64377376b14e81d3250a416a,2023-04-13_04h14.46.460,PRaM,2021.2.3,Win32,60.09254252,61b8f3437b89212fae0dfade
3,4.2298,space,2.4045,0,171,171,312,1,,,62ebd3cd785939570957fe59,64377376b14e81d3250a416a,2023-04-13_04h14.46.460,PRaM,2021.2.3,Win32,60.09254252,61b8f3437b89212fae0dfade
7,3.1394,space,1.4349,0,172,172,85,1,,,62ebd3cd785939570957fe59,64377376b14e81d3250a416a,2023-04-13_04h14.46.460,PRaM,2021.2.3,Win32,60.09254252,61b8f3437b89212fae0dfade
9,3.0894,space,1.3539,0,173,173,75,1,,,62ebd3cd785939570957fe59,64377376b14e81d3250a416a,2023-04-13_04h14.46.460,PRaM,2021.2.3,Win32,60.09254252,61b8f3437b89212fae0dfade
3,3.0476,space,1.2415,0,174,174,227,1,,,62ebd3cd785939570957fe59,64377376b14e81d3250a416a,2023-04-13_04h14.46.460,PRaM,2021.2.3,Win32,60.09254252,61b8f3437b89212fae0dfade
7,16.0263,space,14.4615,0,175,175,285,1,,,62ebd3cd785939570957fe59,64377376b14e81d3250a416a,2023-04-13_04h14.46.460,PRaM,2021.2.3,Win32,60.09254252,61b8f3437b89212fae0dfade
4,5.5546,space,3.801,0,176,176,58,1,,,62ebd3cd785939570957fe59,64377376b14e81d3250a416a,2023-04-13_04h14.46.460,PRaM,2021.2.3,Win32,60.09254252,61b8f3437b89212fae0dfade
7,2.372,space,0.5743,0,177,177,340,1,,,62ebd3cd785939570957fe59,64377376b14e81d3250a416a,2023-04-13_04h14.46.460,PRaM,2021.2.3,Win32,60.09254252,61b8f3437b89212fae0dfade
7,3.3889,space,2.6384,0,178,178,127,1,,,62ebd3cd785939570957fe59,64377376b14e81d3250a416a,2023-04-13_04h14.46.460,PRaM,2021.2.3,Win32,60.09254252,61b8f3437b89212fae0dfade
5,2.1455,space,0.3513,0,179,179,26,1,,,62ebd3cd785939570957fe59,64377376b14e81d3250a416a,2023-04-13_04h14.46.460,PRaM,2021.2.3,Win32,60.09254252,61b8f3437b89212fae0dfade
7,2.1452,space,0.3507,0,180,180,99,1,,,62ebd3cd785939570957fe59,64377376b14e81d3250a416a,2023-04-13_04h14.46.460,PRaM,2021.2.3,Win32,60.09254252,61b8f3437b89212fae0dfade
5,2.3459,space,0.551,0,181,181,177,1,,,62ebd3cd785939570957fe59,64377376b14e81d3250a416a,2023-04-13_04h14.46.460,PRaM,2021.2.3,Win32,60.09254252,61b8f3437b89212fae0dfade
3,3.8429,space,2.002,0,182,182,214,1,,,62ebd3cd785939570957fe59,64377376b14e81d3250a416a,2023-04-13_04h14.46.460,PRaM,2021.2.3,Win32,60.09254252,61b8f3437b89212fae0dfade
5,7.6376,space,5.8849,0,183,183,179,1,,,62ebd3cd785939570957fe59,64377376b14e81d3250a416a,2023-04-13_04h14.46.460,PRaM,2021.2.3,Win32,60.09254252,61b8f3437b89212fae0dfade
7,1.9299,space,0.1999,0,184,184,337,1,,,62ebd3cd785939570957fe59,64377376b14e81d3250a416a,2023-04-13_04h14.46.460,PRaM,2021.2.3,Win32,60.09254252,61b8f3437b89212fae0dfade
6,1.7606,space,0.0185,0,185,185,33,1,,,62ebd3cd785939570957fe59,64377376b14e81d3250a416a,2023-04-13_04h14.46.460,PRaM,2021.2.3,Win32,60.09254252,61b8f3437b89212fae0dfade
7,2.5584,space,0.7717,0,186,186,305,1,,,62ebd3cd785939570957fe59,64377376b14e81d3250a416a,2023-04-13_04h14.46.460,PRaM,2021.2.3,Win32,60.09254252,61b8f3437b89212fae0dfade
2,48.9749,space,47.2851,0,187,187,292,1,,,62ebd3cd785939570957fe59,64377376b14e81d3250a416a,2023-04-13_04h14.46.460,PRaM,2021.2.3,Win32,60.09254252,61b8f3437b89212fae0dfade
6,2.8387,space,1.0361,0,188,188,319,1,,,62ebd3cd785939570957fe59,64377376b14e81d3250a416a,2023-04-13_04h14.46.460,PRaM,2021.2.3,Win32,60.09254252,61b8f3437b89212fae0dfade
3,3.0944,space,1.6905,0,189,189,65,1,,,62ebd3cd785939570957fe59,64377376b14e81d3250a416a,2023-04-13_04h14.46.460,PRaM,2021.2.3,Win32,60.09254252,61b8f3437b89212fae0dfade
7,2.4587,space,0.7843,0,190,190,302,1,,,62ebd3cd785939570957fe59,64377376b14e81d3250a416a,2023-04-13_04h14.46.460,PRaM,2021.2.3,Win32,60.09254252,61b8f3437b89212fae0dfade
5,3.3456,space,1.6096,0,191,191,51,1,,,62ebd3cd785939570957fe59,64377376b14e81d3250a416a,2023-04-13_04h14.46.460,PRaM,2021.2.3,Win32,60.09254252,61b8f3437b89212fae0dfade
3,2.2078,space,0.4686,0,192,192,108,1,,,62ebd3cd785939570957fe59,64377376b14e81d3250a416a,2023-04-13_04h14.46.460,PRaM,2021.2.3,Win32,60.09254252,61b8f3437b89212fae0dfade
8,2.0891,space,0.4172,0,193,193,307,1,,,62ebd3cd785939570957fe59,64377376b14e81d3250a416a,2023-04-13_04h14.46.460,PRaM,2021.2.3,Win32,60.09254252,61b8f3437b89212fae0dfade
,,space,0.1038,0,194,194,224,1,,,62ebd3cd785939570957fe59,64377376b14e81d3250a416a,2023-04-13_04h14.46.460,PRaM,2021.2.3,Win32,60.09254252,61b8f3437b89212fae0dfade
1,12.3711,space,10.6421,0,195,195,103,1,,,62ebd3cd785939570957fe59,64377376b14e81d3250a416a,2023-04-13_04h14.46.460,PRaM,2021.2.3,Win32,60.09254252,61b8f3437b89212fae0dfade
6,2.0884,space,0.3846,0,196,196,357,1,,,62ebd3cd785939570957fe59,64377376b14e81d3250a416a,2023-04-13_04h14.46.460,PRaM,2021.2.3,Win32,60.09254252,61b8f3437b89212fae0dfade
2,8.9547,space,7.4924,0,197,197,300,1,,,62ebd3cd785939570957fe59,64377376b14e81d3250a416a,2023-04-13_04h14.46.460,PRaM,2021.2.3,Win32,60.09254252,61b8f3437b89212fae0dfade
7,12.4803,space,10.7929,0,198,198,294,1,,,62ebd3cd785939570957fe59,64377376b14e81d3250a416a,2023-04-13_04h14.46.460,PRaM,2021.2.3,Win32,60.09254252,61b8f3437b89212fae0dfade
6,17.0065,space,15.3246,0,199,199,256,1,,,62ebd3cd785939570957fe59,64377376b14e81d3250a416a,2023-04-13_04h14.46.460,PRaM,2021.2.3,Win32,60.09254252,61b8f3437b89212fae0dfade
6,3.7527,space,2.0089,0,200,200,290,1,,,62ebd3cd785939570957fe59,64377376b14e81d3250a416a,2023-04-13_04h14.46.460,PRaM,2021.2.3,Win32,60.09254252,61b8f3437b89212fae0dfade
6,1.9483,space,0.1266,0,201,201,261,1,,,62ebd3cd785939570957fe59,64377376b14e81d3250a416a,2023-04-13_04h14.46.460,PRaM,2021.2.3,Win32,60.09254252,61b8f3437b89212fae0dfade
5,2.1429,space,0.3678,0,202,202,49,1,,,62ebd3cd785939570957fe59,64377376b14e81d3250a416a,2023-04-13_04h14.46.460,PRaM,2021.2.3,Win32,60.09254252,61b8f3437b89212fae0dfade
4,3.0267,space,1.3337,0,203,203,309,1,,,62ebd3cd785939570957fe59,64377376b14e81d3250a416a,2023-04-13_04h14.46.460,PRaM,2021.2.3,Win32,60.09254252,61b8f3437b89212fae0dfade
1,4.8556,space,3.0762,0,204,204,94,1,,,62ebd3cd785939570957fe59,64377376b14e81d3250a416a,2023-04-13_04h14.46.460,PRaM,2021.2.3,Win32,60.09254252,61b8f3437b89212fae0dfade
1,2.4569,space,0.5749,0,205,205,67,1,,,62ebd3cd785939570957fe59,64377376b14e81d3250a416a,2023-04-13_04h14.46.460,PRaM,2021.2.3,Win32,60.09254252,61b8f3437b89212fae0dfade
2,3.0362,space,1.2887,0,206,206,48,1,,,62ebd3cd785939570957fe59,64377376b14e81d3250a416a,2023-04-13_04h14.46.460,PRaM,2021.2.3,Win32,60.09254252,61b8f3437b89212fae0dfade
2,1.4937,space,0.9048,0,207,207,31,1,,,62ebd3cd785939570957fe59,64377376b14e81d3250a416a,2023-04-13_04h14.46.460,PRaM,2021.2.3,Win32,60.09254252,61b8f3437b89212fae0dfade
7,3.5643,space,1.8009,0,208,208,42,1,,,62ebd3cd785939570957fe59,64377376b14e81d3250a416a,2023-04-13_04h14.46.460,PRaM,2021.2.3,Win32,60.09254252,61b8f3437b89212fae0dfade
3,4.4945,space,3.0024,0,209,209,204,1,,,62ebd3cd785939570957fe59,64377376b14e81d3250a416a,2023-04-13_04h14.46.460,PRaM,2021.2.3,Win32,60.09254252,61b8f3437b89212fae0dfade
1,6.9612,space,5.2897,0,210,210,41,1,,,62ebd3cd785939570957fe59,64377376b14e81d3250a416a,2023-04-13_04h14.46.460,PRaM,2021.2.3,Win32,60.09254252,61b8f3437b89212fae0dfade
5,4.4943,space,2.8004,0,211,211,133,1,,,62ebd3cd785939570957fe59,64377376b14e81d3250a416a,2023-04-13_04h14.46.460,PRaM,2021.2.3,Win32,60.09254252,61b8f3437b89212fae0dfade
6,2.6968,space,0.9705,0,212,212,211,1,,,62ebd3cd785939570957fe59,64377376b14e81d3250a416a,2023-04-13_04h14.46.460,PRaM,2021.2.3,Win32,60.09254252,61b8f3437b89212fae0dfade
9,2.9408,space,1.2679,0,213,213,276,1,,,62ebd3cd785939570957fe59,64377376b14e81d3250a416a,2023-04-13_04h14.46.460,PRaM,2021.2.3,Win32,60.09254252,61b8f3437b89212fae0dfade
5,3.3487,space,1.6512,0,214,214,23,1,,,62ebd3cd785939570957fe59,64377376b14e81d3250a416a,2023-04-13_04h14.46.460,PRaM,2021.2.3,Win32,60.09254252,61b8f3437b89212fae0dfade
3,2.8955,space,1.1018,0,215,215,203,1,,,62ebd3cd785939570957fe59,64377376b14e81d3250a416a,2023-04-13_04h14.46.460,PRaM,2021.2.3,Win32,60.09254252,61b8f3437b89212fae0dfade
3,5.8031,space,4.0078,0,216,216,113,1,,,62ebd3cd785939570957fe59,64377376b14e81d3250a416a,2023-04-13_04h14.46.460,PRaM,2021.2.3,Win32,60.09254252,61b8f3437b89212fae0dfade
6,3.5569,space,2.0217,0,217,217,175,1,,,62ebd3cd785939570957fe59,64377376b14e81d3250a416a,2023-04-13_04h14.46.460,PRaM,2021.2.3,Win32,60.09254252,61b8f3437b89212fae0dfade
6,2.0235,space,0.2513,0,218,218,145,1,,,62ebd3cd785939570957fe59,64377376b14e81d3250a416a,2023-04-13_04h14.46.460,PRaM,2021.2.3,Win32,60.09254252,61b8f3437b89212fae0dfade
7,4.3733,space,2.6686,0,219,219,295,1,,,62ebd3cd785939570957fe59,64377376b14e81d3250a416a,2023-04-13_04h14.46.460,PRaM,2021.2.3,Win32,60.09254252,61b8f3437b89212fae0dfade
3,2.8544,space,1.1493,0,220,220,289,1,,,62ebd3cd785939570957fe59,64377376b14e81d3250a416a,2023-04-13_04h14.46.460,PRaM,2021.2.3,Win32,60.09254252,61b8f3437b89212fae0dfade
5,3.2411,space,1.6345,0,221,221,368,1,,,62ebd3cd785939570957fe59,64377376b14e81d3250a416a,2023-04-13_04h14.46.460,PRaM,2021.2.3,Win32,60.09254252,61b8f3437b89212fae0dfade
6,2.9886,space,1.2714,0,222,222,298,1,,,62ebd3cd785939570957fe59,64377376b14e81d3250a416a,2023-04-13_04h14.46.460,PRaM,2021.2.3,Win32,60.09254252,61b8f3437b89212fae0dfade
7,2.7267,space,0.9536,0,223,223,274,1,,,62ebd3cd785939570957fe59,64377376b14e81d3250a416a,2023-04-13_04h14.46.460,PRaM,2021.2.3,Win32,60.09254252,61b8f3437b89212fae0dfade
4,3.8888,space,2.2748,0,224,224,71,1,,,62ebd3cd785939570957fe59,64377376b14e81d3250a416a,2023-04-13_04h14.46.460,PRaM,2021.2.3,Win32,60.09254252,61b8f3437b89212fae0dfade
7,3.9523,space,2.5431,0,225,225,323,1,,,62ebd3cd785939570957fe59,64377376b14e81d3250a416a,2023-04-13_04h14.46.460,PRaM,2021.2.3,Win32,60.09254252,61b8f3437b89212fae0dfade
7,2.1582,space,0.5395,0,226,226,366,1,,,62ebd3cd785939570957fe59,64377376b14e81d3250a416a,2023-04-13_04h14.46.460,PRaM,2021.2.3,Win32,60.09254252,61b8f3437b89212fae0dfade
3,3.1546,space,1.3264,0,227,227,125,1,,,62ebd3cd785939570957fe59,64377376b14e81d3250a416a,2023-04-13_04h14.46.460,PRaM,2021.2.3,Win32,60.09254252,61b8f3437b89212fae0dfade
8,3.4857,space,1.8267,0,228,228,228,1,,,62ebd3cd785939570957fe59,64377376b14e81d3250a416a,2023-04-13_04h14.46.460,PRaM,2021.2.3,Win32,60.09254252,61b8f3437b89212fae0dfade
3,19.9548,space,18.4828,0,229,229,170,1,,,62ebd3cd785939570957fe59,64377376b14e81d3250a416a,2023-04-13_04h14.46.460,PRaM,2021.2.3,Win32,60.09254252,61b8f3437b89212fae0dfade
5,2.5752,space,0.8837,0,230,230,77,1,,,62ebd3cd785939570957fe59,64377376b14e81d3250a416a,2023-04-13_04h14.46.460,PRaM,2021.2.3,Win32,60.09254252,61b8f3437b89212fae0dfade
4,2.299,space,0.6814,0,231,231,158,1,,,62ebd3cd785939570957fe59,64377376b14e81d3250a416a,2023-04-13_04h14.46.460,PRaM,2021.2.3,Win32,60.09254252,61b8f3437b89212fae0dfade
,,space,9.1781,0,232,232,87,1,,,62ebd3cd785939570957fe59,64377376b14e81d3250a416a,2023-04-13_04h14.46.460,PRaM,2021.2.3,Win32,60.09254252,61b8f3437b89212fae0dfade
7,2.5909,space,0.994,0,233,233,88,1,,,62ebd3cd785939570957fe59,64377376b14e81d3250a416a,2023-04-13_04h14.46.460,PRaM,2021.2.3,Win32,60.09254252,61b8f3437b89212fae0dfade
5,2.9252,space,1.2682,0,234,234,341,1,,,62ebd3cd785939570957fe59,64377376b14e81d3250a416a,2023-04-13_04h14.46.460,PRaM,2021.2.3,Win32,60.09254252,61b8f3437b89212fae0dfade
6,2.6221,space,1.0008,0,235,235,57,1,,,62ebd3cd785939570957fe59,64377376b14e81d3250a416a,2023-04-13_04h14.46.460,PRaM,2021.2.3,Win32,60.09254252,61b8f3437b89212fae0dfade
3,3.4043,space,1.8379,0,236,236,245,1,,,62ebd3cd785939570957fe59,64377376b14e81d3250a416a,2023-04-13_04h14.46.460,PRaM,2021.2.3,Win32,60.09254252,61b8f3437b89212fae0dfade
3,7.0194,space,5.8196,0,237,237,283,1,,,62ebd3cd785939570957fe59,64377376b14e81d3250a416a,2023-04-13_04h14.46.460,PRaM,2021.2.3,Win32,60.09254252,61b8f3437b89212fae0dfade
6,3.0888,space,1.402,0,238,238,156,1,,,62ebd3cd785939570957fe59,64377376b14e81d3250a416a,2023-04-13_04h14.46.460,PRaM,2021.2.3,Win32,60.09254252,61b8f3437b89212fae0dfade
6,2.8721,space,1.0421,0,239,239,296,1,,,62ebd3cd785939570957fe59,64377376b14e81d3250a416a,2023-04-13_04h14.46.460,PRaM,2021.2.3,Win32,60.09254252,61b8f3437b89212fae0dfade
2,4.8203,space,3.3879,0,240,240,258,1,,,62ebd3cd785939570957fe59,64377376b14e81d3250a416a,2023-04-13_04h14.46.460,PRaM,2021.2.3,Win32,60.09254252,61b8f3437b89212fae0dfade
1,4.637,space,2.8731,0,241,241,89,1,,,62ebd3cd785939570957fe59,64377376b14e81d3250a416a,2023-04-13_04h14.46.460,PRaM,2021.2.3,Win32,60.09254252,61b8f3437b89212fae0dfade
5,3.9043,space,2.4863,0,242,242,346,1,,,62ebd3cd785939570957fe59,64377376b14e81d3250a416a,2023-04-13_04h14.46.460,PRaM,2021.2.3,Win32,60.09254252,61b8f3437b89212fae0dfade
6,3.6119,space,1.9406,0,243,243,120,1,,,62ebd3cd785939570957fe59,64377376b14e81d3250a416a,2023-04-13_04h14.46.460,PRaM,2021.2.3,Win32,60.09254252,61b8f3437b89212fae0dfade
7,2.3739,space,0.6714,0,244,244,244,1,,,62ebd3cd785939570957fe59,64377376b14e81d3250a416a,2023-04-13_04h14.46.460,PRaM,2021.2.3,Win32,60.09254252,61b8f3437b89212fae0dfade
6,2.6156,space,1.1179,0,245,245,117,1,,,62ebd3cd785939570957fe59,64377376b14e81d3250a416a,2023-04-13_04h14.46.460,PRaM,2021.2.3,Win32,60.09254252,61b8f3437b89212fae0dfade
3,10.5048,space,9.0007,0,246,246,5,1,,,62ebd3cd785939570957fe59,64377376b14e81d3250a416a,2023-04-13_04h14.46.460,PRaM,2021.2.3,Win32,60.09254252,61b8f3437b89212fae0dfade
5,2.895,space,1.2885,0,247,247,101,1,,,62ebd3cd785939570957fe59,64377376b14e81d3250a416a,2023-04-13_04h14.46.460,PRaM,2021.2.3,Win32,60.09254252,61b8f3437b89212fae0dfade
9,3.1965,space,1.8676,0,248,248,222,1,,,62ebd3cd785939570957fe59,64377376b14e81d3250a416a,2023-04-13_04h14.46.460,PRaM,2021.2.3,Win32,60.09254252,61b8f3437b89212fae0dfade
7,3.2684,space,1.4008,0,249,249,297,1,,,62ebd3cd785939570957fe59,64377376b14e81d3250a416a,2023-04-13_04h14.46.460,PRaM,2021.2.3,Win32,60.09254252,61b8f3437b89212fae0dfade
5,10.5398,space,8.9686,0,250,250,161,1,,,62ebd3cd785939570957fe59,64377376b14e81d3250a416a,2023-04-13_04h14.46.460,PRaM,2021.2.3,Win32,60.09254252,61b8f3437b89212fae0dfade
2,8.2194,space,6.6698,0,251,251,122,1,,,62ebd3cd785939570957fe59,64377376b14e81d3250a416a,2023-04-13_04h14.46.460,PRaM,2021.2.3,Win32,60.09254252,61b8f3437b89212fae0dfade
5,3.6952,space,2.1821,0,252,252,206,1,,,62ebd3cd785939570957fe59,64377376b14e81d3250a416a,2023-04-13_04h14.46.460,PRaM,2021.2.3,Win32,60.09254252,61b8f3437b89212fae0dfade
7,3.2025,space,1.4936,0,253,253,59,1,,,62ebd3cd785939570957fe59,64377376b14e81d3250a416a,2023-04-13_04h14.46.460,PRaM,2021.2.3,Win32,60.09254252,61b8f3437b89212fae0dfade
5,2.4234,space,0.7747,0,254,254,124,1,,,62ebd3cd785939570957fe59,64377376b14e81d3250a416a,2023-04-13_04h14.46.460,PRaM,2021.2.3,Win32,60.09254252,61b8f3437b89212fae0dfade
5,23.5903,space,21.8185,0,255,255,351,1,,,62ebd3cd785939570957fe59,64377376b14e81d3250a416a,2023-04-13_04h14.46.460,PRaM,2021.2.3,Win32,60.09254252,61b8f3437b89212fae0dfade
2,6.4202,space,4.6938,0,256,256,135,1,,,62ebd3cd785939570957fe59,64377376b14e81d3250a416a,2023-04-13_04h14.46.460,PRaM,2021.2.3,Win32,60.09254252,61b8f3437b89212fae0dfade
7,2.3165,space,0.5669,0,257,257,328,1,,,62ebd3cd785939570957fe59,64377376b14e81d3250a416a,2023-04-13_04h14.46.460,PRaM,2021.2.3,Win32,60.09254252,61b8f3437b89212fae0dfade
7,3.0374,space,1.2387,0,258,258,165,1,,,62ebd3cd785939570957fe59,64377376b14e81d3250a416a,2023-04-13_04h14.46.460,PRaM,2021.2.3,Win32,60.09254252,61b8f3437b89212fae0dfade
7,2.1245,space,0.4082,0,259,259,62,1,,,62ebd3cd785939570957fe59,64377376b14e81d3250a416a,2023-04-13_04h14.46.460,PRaM,2021.2.3,Win32,60.09254252,61b8f3437b89212fae0dfade
6,2.3408,space,0.5898,0,260,260,213,1,,,62ebd3cd785939570957fe59,64377376b14e81d3250a416a,2023-04-13_04h14.46.460,PRaM,2021.2.3,Win32,60.09254252,61b8f3437b89212fae0dfade
5,15.7051,space,14.0514,0,261,261,7,1,,,62ebd3cd785939570957fe59,64377376b14e81d3250a416a,2023-04-13_04h14.46.460,PRaM,2021.2.3,Win32,60.09254252,61b8f3437b89212fae0dfade
6,2.6912,space,1.1433,0,262,262,43,1,,,62ebd3cd785939570957fe59,64377376b14e81d3250a416a,2023-04-13_04h14.46.460,PRaM,2021.2.3,Win32,60.09254252,61b8f3437b89212fae0dfade
3,2.6192,space,0.8913,0,263,263,353,1,,,62ebd3cd785939570957fe59,64377376b14e81d3250a416a,2023-04-13_04h14.46.460,PRaM,2021.2.3,Win32,60.09254252,61b8f3437b89212fae0dfade
1,3.939,space,2.2376,0,264,264,237,1,,,62ebd3cd785939570957fe59,64377376b14e81d3250a416a,2023-04-13_04h14.46.460,PRaM,2021.2.3,Win32,60.09254252,61b8f3437b89212fae0dfade
6,3.9253,space,2.2378,0,265,265,352,1,,,62ebd3cd785939570957fe59,64377376b14e81d3250a416a,2023-04-13_04h14.46.460,PRaM,2021.2.3,Win32,60.09254252,61b8f3437b89212fae0dfade
6,3.3628,space,1.7007,0,266,266,254,1,,,62ebd3cd785939570957fe59,64377376b14e81d3250a416a,2023-04-13_04h14.46.460,PRaM,2021.2.3,Win32,60.09254252,61b8f3437b89212fae0dfade
3,2.8763,space,1.1791,0,267,267,189,1,,,62ebd3cd785939570957fe59,64377376b14e81d3250a416a,2023-04-13_04h14.46.460,PRaM,2021.2.3,Win32,60.09254252,61b8f3437b89212fae0dfade
6,4.4844,space,2.8591,0,268,268,86,1,,,62ebd3cd785939570957fe59,64377376b14e81d3250a416a,2023-04-13_04h14.46.460,PRaM,2021.2.3,Win32,60.09254252,61b8f3437b89212fae0dfade
2,7.0126,space,5.3351,0,269,269,39,1,,,62ebd3cd785939570957fe59,64377376b14e81d3250a416a,2023-04-13_04h14.46.460,PRaM,2021.2.3,Win32,60.09254252,61b8f3437b89212fae0dfade
2,2.8821,space,1.4551,0,270,270,55,1,,,62ebd3cd785939570957fe59,64377376b14e81d3250a416a,2023-04-13_04h14.46.460,PRaM,2021.2.3,Win32,60.09254252,61b8f3437b89212fae0dfade
2,5.4521,space,4.0097,0,271,271,24,1,,,62ebd3cd785939570957fe59,64377376b14e81d3250a416a,2023-04-13_04h14.46.460,PRaM,2021.2.3,Win32,60.09254252,61b8f3437b89212fae0dfade
6,2.7039,space,0.9052,0,272,272,169,1,,,62ebd3cd785939570957fe59,64377376b14e81d3250a416a,2023-04-13_04h14.46.460,PRaM,2021.2.3,Win32,60.09254252,61b8f3437b89212fae0dfade
6,2.5583,space,0.8852,0,273,273,47,1,,,62ebd3cd785939570957fe59,64377376b14e81d3250a416a,2023-04-13_04h14.46.460,PRaM,2021.2.3,Win32,60.09254252,61b8f3437b89212fae0dfade
2,6.5383,space,6.3363,0,274,274,37,1,,,62ebd3cd785939570957fe59,64377376b14e81d3250a416a,2023-04-13_04h14.46.460,PRaM,2021.2.3,Win32,60.09254252,61b8f3437b89212fae0dfade
3,3.3613,space,2.0559,0,275,275,193,1,,,62ebd3cd785939570957fe59,64377376b14e81d3250a416a,2023-04-13_04h14.46.460,PRaM,2021.2.3,Win32,60.09254252,61b8f3437b89212fae0dfade
5,2.6372,space,0.9805,0,276,276,2,1,,,62ebd3cd785939570957fe59,64377376b14e81d3250a416a,2023-04-13_04h14.46.460,PRaM,2021.2.3,Win32,60.09254252,61b8f3437b89212fae0dfade
7,2.7919,space,1.051,0,277,277,350,1,,,62ebd3cd785939570957fe59,64377376b14e81d3250a416a,2023-04-13_04h14.46.460,PRaM,2021.2.3,Win32,60.09254252,61b8f3437b89212fae0dfade
5,2.371,space,0.6662,0,278,278,332,1,,,62ebd3cd785939570957fe59,64377376b14e81d3250a416a,2023-04-13_04h14.46.460,PRaM,2021.2.3,Win32,60.09254252,61b8f3437b89212fae0dfade
6,9.5398,space,7.8277,0,279,279,182,1,,,62ebd3cd785939570957fe59,64377376b14e81d3250a416a,2023-04-13_04h14.46.460,PRaM,2021.2.3,Win32,60.09254252,61b8f3437b89212fae0dfade
8,2.6627,space,0.9841,0,280,280,17,1,,,62ebd3cd785939570957fe59,64377376b14e81d3250a416a,2023-04-13_04h14.46.460,PRaM,2021.2.3,Win32,60.09254252,61b8f3437b89212fae0dfade
6,6.1078,space,4.3011,0,281,281,81,1,,,62ebd3cd785939570957fe59,64377376b14e81d3250a416a,2023-04-13_04h14.46.460,PRaM,2021.2.3,Win32,60.09254252,61b8f3437b89212fae0dfade
6,3.3205,space,1.7206,0,282,282,266,1,,,62ebd3cd785939570957fe59,64377376b14e81d3250a416a,2023-04-13_04h14.46.460,PRaM,2021.2.3,Win32,60.09254252,61b8f3437b89212fae0dfade
2,3.3955,space,1.7325,0,283,283,35,1,,,62ebd3cd785939570957fe59,64377376b14e81d3250a416a,2023-04-13_04h14.46.460,PRaM,2021.2.3,Win32,60.09254252,61b8f3437b89212fae0dfade
6,9.6222,space,7.9537,0,284,284,282,1,,,62ebd3cd785939570957fe59,64377376b14e81d3250a416a,2023-04-13_04h14.46.460,PRaM,2021.2.3,Win32,60.09254252,61b8f3437b89212fae0dfade
3,11.2768,space,9.5685,0,285,285,287,1,,,62ebd3cd785939570957fe59,64377376b14e81d3250a416a,2023-04-13_04h14.46.460,PRaM,2021.2.3,Win32,60.09254252,61b8f3437b89212fae0dfade
6,4.3246,space,2.6512,0,286,286,375,1,,,62ebd3cd785939570957fe59,64377376b14e81d3250a416a,2023-04-13_04h14.46.460,PRaM,2021.2.3,Win32,60.09254252,61b8f3437b89212fae0dfade
5,11.846,space,10.3181,0,287,287,180,1,,,62ebd3cd785939570957fe59,64377376b14e81d3250a416a,2023-04-13_04h14.46.460,PRaM,2021.2.3,Win32,60.09254252,61b8f3437b89212fae0dfade
3,3.0745,space,1.4678,0,288,288,28,1,,,62ebd3cd785939570957fe59,64377376b14e81d3250a416a,2023-04-13_04h14.46.460,PRaM,2021.2.3,Win32,60.09254252,61b8f3437b89212fae0dfade
5,2.4873,space,0.801,0,289,289,377,1,,,62ebd3cd785939570957fe59,64377376b14e81d3250a416a,2023-04-13_04h14.46.460,PRaM,2021.2.3,Win32,60.09254252,61b8f3437b89212fae0dfade
7,25.0828,space,23.4023,0,290,290,372,1,,,62ebd3cd785939570957fe59,64377376b14e81d3250a416a,2023-04-13_04h14.46.460,PRaM,2021.2.3,Win32,60.09254252,61b8f3437b89212fae0dfade
6,3.9207,space,2.2348,0,291,291,18,1,,,62ebd3cd785939570957fe59,64377376b14e81d3250a416a,2023-04-13_04h14.46.460,PRaM,2021.2.3,Win32,60.09254252,61b8f3437b89212fae0dfade
2,2.855,space,1.2142,0,292,292,315,1,,,62ebd3cd785939570957fe59,64377376b14e81d3250a416a,2023-04-13_04h14.46.460,PRaM,2021.2.3,Win32,60.09254252,61b8f3437b89212fae0dfade
6,3.8101,space,2.1779,0,293,293,246,1,,,62ebd3cd785939570957fe59,64377376b14e81d3250a416a,2023-04-13_04h14.46.460,PRaM,2021.2.3,Win32,60.09254252,61b8f3437b89212fae0dfade
5,3.4382,space,1.6344,0,294,294,92,1,,,62ebd3cd785939570957fe59,64377376b14e81d3250a416a,2023-04-13_04h14.46.460,PRaM,2021.2.3,Win32,60.09254252,61b8f3437b89212fae0dfade
2,15.5797,space,13.9078,0,295,295,308,1,,,62ebd3cd785939570957fe59,64377376b14e81d3250a416a,2023-04-13_04h14.46.460,PRaM,2021.2.3,Win32,60.09254252,61b8f3437b89212fae0dfade
2,3.1395,space,2.0732,0,296,296,157,1,,,62ebd3cd785939570957fe59,64377376b14e81d3250a416a,2023-04-13_04h14.46.460,PRaM,2021.2.3,Win32,60.09254252,61b8f3437b89212fae0dfade
1,2.289,space,0.6521,0,297,297,231,1,,,62ebd3cd785939570957fe59,64377376b14e81d3250a416a,2023-04-13_04h14.46.460,PRaM,2021.2.3,Win32,60.09254252,61b8f3437b89212fae0dfade
7,3.819,space,2.0623,0,298,298,20,1,,,62ebd3cd785939570957fe59,64377376b14e81d3250a416a,2023-04-13_04h14.46.460,PRaM,2021.2.3,Win32,60.09254252,61b8f3437b89212fae0dfade
5,5.305,space,3.5332,0,299,299,369,1,,,62ebd3cd785939570957fe59,64377376b14e81d3250a416a,2023-04-13_04h14.46.460,PRaM,2021.2.3,Win32,60.09254252,61b8f3437b89212fae0dfade
6,2.3644,space,0.8946,0,300,300,249,1,,,62ebd3cd785939570957fe59,64377376b14e81d3250a416a,2023-04-13_04h14.46.460,PRaM,2021.2.3,Win32,60.09254252,61b8f3437b89212fae0dfade
3,12.3562,space,10.6509,0,301,301,268,1,,,62ebd3cd785939570957fe59,64377376b14e81d3250a416a,2023-04-13_04h14.46.460,PRaM,2021.2.3,Win32,60.09254252,61b8f3437b89212fae0dfade
3,2.6883,space,1.6513,0,302,302,215,1,,,62ebd3cd785939570957fe59,64377376b14e81d3250a416a,2023-04-13_04h14.46.460,PRaM,2021.2.3,Win32,60.09254252,61b8f3437b89212fae0dfade
1,3.072,space,1.4054,0,303,303,27,1,,,62ebd3cd785939570957fe59,64377376b14e81d3250a416a,2023-04-13_04h14.46.460,PRaM,2021.2.3,Win32,60.09254252,61b8f3437b89212fae0dfade
8,4.5597,space,2.6591,0,304,304,331,1,,,62ebd3cd785939570957fe59,64377376b14e81d3250a416a,2023-04-13_04h14.46.460,PRaM,2021.2.3,Win32,60.09254252,61b8f3437b89212fae0dfade
5,3.5546,space,2.375,0,305,305,184,1,,,62ebd3cd785939570957fe59,64377376b14e81d3250a416a,2023-04-13_04h14.46.460,PRaM,2021.2.3,Win32,60.09254252,61b8f3437b89212fae0dfade
5,8.6123,space,7.8726,0,306,306,98,1,,,62ebd3cd785939570957fe59,64377376b14e81d3250a416a,2023-04-13_04h14.46.460,PRaM,2021.2.3,Win32,60.09254252,61b8f3437b89212fae0dfade
6,2.4222,space,0.7094,0,307,307,252,1,,,62ebd3cd785939570957fe59,64377376b14e81d3250a416a,2023-04-13_04h14.46.460,PRaM,2021.2.3,Win32,60.09254252,61b8f3437b89212fae0dfade
2,43.3893,space,41.9857,0,308,308,360,1,,,62ebd3cd785939570957fe59,64377376b14e81d3250a416a,2023-04-13_04h14.46.460,PRaM,2021.2.3,Win32,60.09254252,61b8f3437b89212fae0dfade
4,5.5853,space,3.9219,0,309,309,172,1,,,62ebd3cd785939570957fe59,64377376b14e81d3250a416a,2023-04-13_04h14.46.460,PRaM,2021.2.3,Win32,60.09254252,61b8f3437b89212fae0dfade
6,2.7485,space,0.8757,0,310,310,139,1,,,62ebd3cd785939570957fe59,64377376b14e81d3250a416a,2023-04-13_04h14.46.460,PRaM,2021.2.3,Win32,60.09254252,61b8f3437b89212fae0dfade
3,3.0283,space,1.299,0,311,311,318,1,,,62ebd3cd785939570957fe59,64377376b14e81d3250a416a,2023-04-13_04h14.46.460,PRaM,2021.2.3,Win32,60.09254252,61b8f3437b89212fae0dfade
6,2.422,space,0.6894,0,312,312,178,1,,,62ebd3cd785939570957fe59,64377376b14e81d3250a416a,2023-04-13_04h14.46.460,PRaM,2021.2.3,Win32,60.09254252,61b8f3437b89212fae0dfade
5,3.814,space,2.091,0,313,313,187,1,,,62ebd3cd785939570957fe59,64377376b14e81d3250a416a,2023-04-13_04h14.46.460,PRaM,2021.2.3,Win32,60.09254252,61b8f3437b89212fae0dfade
9,4.2954,space,2.9121,0,314,314,320,1,,,62ebd3cd785939570957fe59,64377376b14e81d3250a416a,2023-04-13_04h14.46.460,PRaM,2021.2.3,Win32,60.09254252,61b8f3437b89212fae0dfade
3,2.6249,space,0.9571,0,315,315,70,1,,,62ebd3cd785939570957fe59,64377376b14e81d3250a416a,2023-04-13_04h14.46.460,PRaM,2021.2.3,Win32,60.09254252,61b8f3437b89212fae0dfade
2,2.0987,space,0.4345,0,316,316,265,1,,,62ebd3cd785939570957fe59,64377376b14e81d3250a416a,2023-04-13_04h14.46.460,PRaM,2021.2.3,Win32,60.09254252,61b8f3437b89212fae0dfade
4,5.1276,space,3.4197,0,317,317,267,1,,,62ebd3cd785939570957fe59,64377376b14e81d3250a416a,2023-04-13_04h14.46.460,PRaM,2021.2.3,Win32,60.09254252,61b8f3437b89212fae0dfade
3,53.28,space,51.5849,0,318,318,181,1,,,62ebd3cd785939570957fe59,64377376b14e81d3250a416a,2023-04-13_04h14.46.460,PRaM,2021.2.3,Win32,60.09254252,61b8f3437b89212fae0dfade
2,5.2191,space,3.5695,0,319,319,91,1,,,62ebd3cd785939570957fe59,64377376b14e81d3250a416a,2023-04-13_04h14.46.460,PRaM,2021.2.3,Win32,60.09254252,61b8f3437b89212fae0dfade
6,18.0683,space,16.483,0,320,320,310,1,,,62ebd3cd785939570957fe59,64377376b14e81d3250a416a,2023-04-13_04h14.46.460,PRaM,2021.2.3,Win32,60.09254252,61b8f3437b89212fae0dfade
3,2.5876,space,0.9195,0,321,321,174,1,,,62ebd3cd785939570957fe59,64377376b14e81d3250a416a,2023-04-13_04h14.46.460,PRaM,2021.2.3,Win32,60.09254252,61b8f3437b89212fae0dfade
8,4.6697,space,2.9691,0,322,322,61,1,,,62ebd3cd785939570957fe59,64377376b14e81d3250a416a,2023-04-13_04h14.46.460,PRaM,2021.2.3,Win32,60.09254252,61b8f3437b89212fae0dfade
6,5.9262,space,4.1826,0,323,323,259,1,,,62ebd3cd785939570957fe59,64377376b14e81d3250a416a,2023-04-13_04h14.46.460,PRaM,2021.2.3,Win32,60.09254252,61b8f3437b89212fae0dfade
3,21.5048,space,19.8431,0,324,324,188,1,,,62ebd3cd785939570957fe59,64377376b14e81d3250a416a,2023-04-13_04h14.46.460,PRaM,2021.2.3,Win32,60.09254252,61b8f3437b89212fae0dfade
7,4.162,space,2.4551,0,325,325,325,1,,,62ebd3cd785939570957fe59,64377376b14e81d3250a416a,2023-04-13_04h14.46.460,PRaM,2021.2.3,Win32,60.09254252,61b8f3437b89212fae0dfade
5,8.2045,space,6.5282,0,326,326,349,1,,,62ebd3cd785939570957fe59,64377376b14e81d3250a416a,2023-04-13_04h14.46.460,PRaM,2021.2.3,Win32,60.09254252,61b8f3437b89212fae0dfade
6,3.6457,space,2.0177,0,327,327,347,1,,,62ebd3cd785939570957fe59,64377376b14e81d3250a416a,2023-04-13_04h14.46.460,PRaM,2021.2.3,Win32,60.09254252,61b8f3437b89212fae0dfade
6,2.1214,space,0.4178,0,328,328,271,1,,,62ebd3cd785939570957fe59,64377376b14e81d3250a416a,2023-04-13_04h14.46.460,PRaM,2021.2.3,Win32,60.09254252,61b8f3437b89212fae0dfade
6,3.3369,space,1.5848,0,329,329,84,1,,,62ebd3cd785939570957fe59,64377376b14e81d3250a416a,2023-04-13_04h14.46.460,PRaM,2021.2.3,Win32,60.09254252,61b8f3437b89212fae0dfade
,,space,2.0274,0,330,330,12,1,,,62ebd3cd785939570957fe59,64377376b14e81d3250a416a,2023-04-13_04h14.46.460,PRaM,2021.2.3,Win32,60.09254252,61b8f3437b89212fae0dfade
6,1.976,space,0.7187,0,331,331,38,1,,,62ebd3cd785939570957fe59,64377376b14e81d3250a416a,2023-04-13_04h14.46.460,PRaM,2021.2.3,Win32,60.09254252,61b8f3437b89212fae0dfade
6,1.9258,space,0.5332,0,332,332,118,1,,,62ebd3cd785939570957fe59,64377376b14e81d3250a416a,2023-04-13_04h14.46.460,PRaM,2021.2.3,Win32,60.09254252,61b8f3437b89212fae0dfade
6,1.6634,space,0.0514,0,333,333,102,1,,,62ebd3cd785939570957fe59,64377376b14e81d3250a416a,2023-04-13_04h14.46.460,PRaM,2021.2.3,Win32,60.09254252,61b8f3437b89212fae0dfade
3,3.9732,space,2.6114,0,334,334,210,1,,,62ebd3cd785939570957fe59,64377376b14e81d3250a416a,2023-04-13_04h14.46.460,PRaM,2021.2.3,Win32,60.09254252,61b8f3437b89212fae0dfade
3,21.4551,space,19.8919,0,335,335,148,1,,,62ebd3cd785939570957fe59,64377376b14e81d3250a416a,2023-04-13_04h14.46.460,PRaM,2021.2.3,Win32,60.09254252,61b8f3437b89212fae0dfade
6,7.9358,space,6.3529,0,336,336,163,1,,,62ebd3cd785939570957fe59,64377376b14e81d3250a416a,2023-04-13_04h14.46.460,PRaM,2021.2.3,Win32,60.09254252,61b8f3437b89212fae0dfade
7,4.4395,space,2.9494,0,337,337,149,1,,,62ebd3cd785939570957fe59,64377376b14e81d3250a416a,2023-04-13_04h14.46.460,PRaM,2021.2.3,Win32,60.09254252,61b8f3437b89212fae0dfade
3,52.5566,space,50.9406,0,338,338,130,1,,,62ebd3cd785939570957fe59,64377376b14e81d3250a416a,2023-04-13_04h14.46.460,PRaM,2021.2.3,Win32,60.09254252,61b8f3437b89212fae0dfade
3,38.3266,space,36.6214,0,339,339,131,1,,,62ebd3cd785939570957fe59,64377376b14e81d3250a416a,2023-04-13_04h14.46.460,PRaM,2021.2.3,Win32,60.09254252,61b8f3437b89212fae0dfade
3,2.9916,space,1.3178,0,340,340,155,1,,,62ebd3cd785939570957fe59,64377376b14e81d3250a416a,2023-04-13_04h14.46.460,PRaM,2021.2.3,Win32,60.09254252,61b8f3437b89212fae0dfade
7,2.6902,space,0.9996,0,341,341,264,1,,,62ebd3cd785939570957fe59,64377376b14e81d3250a416a,2023-04-13_04h14.46.460,PRaM,2021.2.3,Win32,60.09254252,61b8f3437b89212fae0dfade
4,2.8231,space,1.1893,0,342,342,106,1,,,62ebd3cd785939570957fe59,64377376b14e81d3250a416a,2023-04-13_04h14.46.460,PRaM,2021.2.3,Win32,60.09254252,61b8f3437b89212fae0dfade
6,6.7566,space,5.0681,0,343,343,154,1,,,62ebd3cd785939570957fe59,64377376b14e81d3250a416a,2023-04-13_04h14.46.460,PRaM,2021.2.3,Win32,60.09254252,61b8f3437b89212fae0dfade
6,3.6866,space,2.2014,0,344,344,226,1,,,62ebd3cd785939570957fe59,64377376b14e81d3250a416a,2023-04-13_04h14.46.460,PRaM,2021.2.3,Win32,60.09254252,61b8f3437b89212fae0dfade
1,2.7227,space,1.2344,0,345,345,107,1,,,62ebd3cd785939570957fe59,64377376b14e81d3250a416a,2023-04-13_04h14.46.460,PRaM,2021.2.3,Win32,60.09254252,61b8f3437b89212fae0dfade
6,3.0458,space,1.3345,0,346,346,202,1,,,62ebd3cd785939570957fe59,64377376b14e81d3250a416a,2023-04-13_04h14.46.460,PRaM,2021.2.3,Win32,60.09254252,61b8f3437b89212fae0dfade
6,1.8884,space,0.1853,0,347,347,317,1,,,62ebd3cd785939570957fe59,64377376b14e81d3250a416a,2023-04-13_04h14.46.460,PRaM,2021.2.3,Win32,60.09254252,61b8f3437b89212fae0dfade
8,3.2424,space,1.4975,0,348,348,110,1,,,62ebd3cd785939570957fe59,64377376b14e81d3250a416a,2023-04-13_04h14.46.460,PRaM,2021.2.3,Win32,60.09254252,61b8f3437b89212fae0dfade
5,8.4895,space,6.7512,0,349,349,260,1,,,62ebd3cd785939570957fe59,64377376b14e81d3250a416a,2023-04-13_04h14.46.460,PRaM,2021.2.3,Win32,60.09254252,61b8f3437b89212fae0dfade
5,2.359,space,0.7346,0,350,350,100,1,,,62ebd3cd785939570957fe59,64377376b14e81d3250a416a,2023-04-13_04h14.46.460,PRaM,2021.2.3,Win32,60.09254252,61b8f3437b89212fae0dfade
5,1.7232,space,1.2136,0,351,351,167,1,,,62ebd3cd785939570957fe59,64377376b14e81d3250a416a,2023-04-13_04h14.46.460,PRaM,2021.2.3,Win32,60.09254252,61b8f3437b89212fae0dfade
5,1.8731,space,0.1735,0,352,352,236,1,,,62ebd3cd785939570957fe59,64377376b14e81d3250a416a,2023-04-13_04h14.46.460,PRaM,2021.2.3,Win32,60.09254252,61b8f3437b89212fae0dfade
5,1.6708,space,0.9746,0,353,353,367,1,,,62ebd3cd785939570957fe59,64377376b14e81d3250a416a,2023-04-13_04h14.46.460,PRaM,2021.2.3,Win32,60.09254252,61b8f3437b89212fae0dfade
6,7.0542,space,5.3078,0,354,354,150,1,,,62ebd3cd785939570957fe59,64377376b14e81d3250a416a,2023-04-13_04h14.46.460,PRaM,2021.2.3,Win32,60.09254252,61b8f3437b89212fae0dfade
4,2.3743,space,0.7011,0,355,355,333,1,,,62ebd3cd785939570957fe59,64377376b14e81d3250a416a,2023-04-13_04h14.46.460,PRaM,2021.2.3,Win32,60.09254252,61b8f3437b89212fae0dfade
6,2.7854,space,1.0673,0,356,356,365,1,,,62ebd3cd785939570957fe59,64377376b14e81d3250a416a,2023-04-13_04h14.46.460,PRaM,2021.2.3,Win32,60.09254252,61b8f3437b89212fae0dfade
5,2.4404,space,0.7189,0,357,357,141,1,,,62ebd3cd785939570957fe59,64377376b14e81d3250a416a,2023-04-13_04h14.46.460,PRaM,2021.2.3,Win32,60.09254252,61b8f3437b89212fae0dfade
3,38.8052,space,37.27,0,358,358,284,1,,,62ebd3cd785939570957fe59,64377376b14e81d3250a416a,2023-04-13_04h14.46.460,PRaM,2021.2.3,Win32,60.09254252,61b8f3437b89212fae0dfade
3,12.2913,space,10.7686,0,359,359,54,1,,,62ebd3cd785939570957fe59,64377376b14e81d3250a416a,2023-04-13_04h14.46.460,PRaM,2021.2.3,Win32,60.09254252,61b8f3437b89212fae0dfade
5,3.8443,space,2.3174,0,360,360,162,1,,,62ebd3cd785939570957fe59,64377376b14e81d3250a416a,2023-04-13_04h14.46.460,PRaM,2021.2.3,Win32,60.09254252,61b8f3437b89212fae0dfade
6,8.0206,space,6.9013,0,361,361,115,1,,,62ebd3cd785939570957fe59,64377376b14e81d3250a416a,2023-04-13_04h14.46.460,PRaM,2021.2.3,Win32,60.09254252,61b8f3437b89212fae0dfade
6,1.9645,space,0.3712,0,362,362,339,1,,,62ebd3cd785939570957fe59,64377376b14e81d3250a416a,2023-04-13_04h14.46.460,PRaM,2021.2.3,Win32,60.09254252,61b8f3437b89212fae0dfade
5,2.0282,space,0.2937,0,363,363,374,1,,,62ebd3cd785939570957fe59,64377376b14e81d3250a416a,2023-04-13_04h14.46.460,PRaM,2021.2.3,Win32,60.09254252,61b8f3437b89212fae0dfade
6,3.7003,space,1.9061,0,364,364,313,1,,,62ebd3cd785939570957fe59,64377376b14e81d3250a416a,2023-04-13_04h14.46.460,PRaM,2021.2.3,Win32,60.09254252,61b8f3437b89212fae0dfade
8,2.3447,space,0.604,0,365,365,136,1,,,62ebd3cd785939570957fe59,64377376b14e81d3250a416a,2023-04-13_04h14.46.460,PRaM,2021.2.3,Win32,60.09254252,61b8f3437b89212fae0dfade
2,2.1401,space,0.4704,0,366,366,36,1,,,62ebd3cd785939570957fe59,64377376b14e81d3250a416a,2023-04-13_04h14.46.460,PRaM,2021.2.3,Win32,60.09254252,61b8f3437b89212fae0dfade
3,17.9235,space,16.2163,0,367,367,205,1,,,62ebd3cd785939570957fe59,64377376b14e81d3250a416a,2023-04-13_04h14.46.460,PRaM,2021.2.3,Win32,60.09254252,61b8f3437b89212fae0dfade
7,2.0901,space,0.4342,0,368,368,140,1,,,62ebd3cd785939570957fe59,64377376b14e81d3250a416a,2023-04-13_04h14.46.460,PRaM,2021.2.3,Win32,60.09254252,61b8f3437b89212fae0dfade
4,2.9389,space,1.2064,0,369,369,95,1,,,62ebd3cd785939570957fe59,64377376b14e81d3250a416a,2023-04-13_04h14.46.460,PRaM,2021.2.3,Win32,60.09254252,61b8f3437b89212fae0dfade
6,13.6555,space,12.0111,0,370,370,105,1,,,62ebd3cd785939570957fe59,64377376b14e81d3250a416a,2023-04-13_04h14.46.460,PRaM,2021.2.3,Win32,60.09254252,61b8f3437b89212fae0dfade
4,9.0076,space,7.2177,0,371,371,109,1,,,62ebd3cd785939570957fe59,64377376b14e81d3250a416a,2023-04-13_04h14.46.460,PRaM,2021.2.3,Win32,60.09254252,61b8f3437b89212fae0dfade
5,3.202,space,1.419,0,372,372,342,1,,,62ebd3cd785939570957fe59,64377376b14e81d3250a416a,2023-04-13_04h14.46.460,PRaM,2021.2.3,Win32,60.09254252,61b8f3437b89212fae0dfade
5,1.222,space,1.6917,0,373,373,138,1,,,62ebd3cd785939570957fe59,64377376b14e81d3250a416a,2023-04-13_04h14.46.460,PRaM,2021.2.3,Win32,60.09254252,61b8f3437b89212fae0dfade
6,1.911,space,0.2015,0,374,374,336,1,,,62ebd3cd785939570957fe59,64377376b14e81d3250a416a,2023-04-13_04h14.46.460,PRaM,2021.2.3,Win32,60.09254252,61b8f3437b89212fae0dfade
3,2.5049,space,0.834,0,375,375,251,1,,,62ebd3cd785939570957fe59,64377376b14e81d3250a416a,2023-04-13_04h14.46.460,PRaM,2021.2.3,Win32,60.09254252,61b8f3437b89212fae0dfade
3,2.9913,space,1.3012,0,376,376,248,1,,,62ebd3cd785939570957fe59,64377376b14e81d3250a416a,2023-04-13_04h14.46.460,PRaM,2021.2.3,Win32,60.09254252,61b8f3437b89212fae0dfade
5,3.1974,space,1.4673,0,377,377,230,1,,,62ebd3cd785939570957fe59,64377376b14e81d3250a416a,2023-04-13_04h14.46.460,PRaM,2021.2.3,Win32,60.09254252,61b8f3437b89212fae0dfade
