Rating.response,Rating.rt,EndTrial.keys,EndTrial.rt,trials.thisRepN,trials.thisTrialN,trials.thisN,trials.thisIndex,trials.ran,Pos1,Pos2,participant,session,date,expName,psychopyVersion,OS,frameRate,study_id
3,8.7277,space,8.2339,0,0,0,303,1,,,6314c1e76c3f71e2127f1976,6437730663a65dcf51a417db,04-12-2023_20h14.35.583,PRaM,2021.2.3,Linux x86_64,60.0276127,61b8f3437b89212fae0dfade
5,13.0837,space,15.3447,0,1,1,174,1,,,6314c1e76c3f71e2127f1976,6437730663a65dcf51a417db,04-12-2023_20h14.35.583,PRaM,2021.2.3,Linux x86_64,60.0276127,61b8f3437b89212fae0dfade
1,3.1758,space,3.3171,0,2,2,87,1,,,6314c1e76c3f71e2127f1976,6437730663a65dcf51a417db,04-12-2023_20h14.35.583,PRaM,2021.2.3,Linux x86_64,60.0276127,61b8f3437b89212fae0dfade
2,64.8855,space,64.4858,0,3,3,163,1,,,6314c1e76c3f71e2127f1976,6437730663a65dcf51a417db,04-12-2023_20h14.35.583,PRaM,2021.2.3,Linux x86_64,60.0276127,61b8f3437b89212fae0dfade
2,10.9141,space,10.1465,0,4,4,24,1,,,6314c1e76c3f71e2127f1976,6437730663a65dcf51a417db,04-12-2023_20h14.35.583,PRaM,2021.2.3,Linux x86_64,60.0276127,61b8f3437b89212fae0dfade
6,19.5827,space,18.0407,0,5,5,173,1,,,6314c1e76c3f71e2127f1976,6437730663a65dcf51a417db,04-12-2023_20h14.35.583,PRaM,2021.2.3,Linux x86_64,60.0276127,61b8f3437b89212fae0dfade
7,5.1334,space,3.484,0,6,6,363,1,,,6314c1e76c3f71e2127f1976,6437730663a65dcf51a417db,04-12-2023_20h14.35.583,PRaM,2021.2.3,Linux x86_64,60.0276127,61b8f3437b89212fae0dfade
8,74.2169,space,73.6158,0,7,7,75,1,,,6314c1e76c3f71e2127f1976,6437730663a65dcf51a417db,04-12-2023_20h14.35.583,PRaM,2021.2.3,Linux x86_64,60.0276127,61b8f3437b89212fae0dfade
1,7.3007,space,5.9328,0,8,8,243,1,,,6314c1e76c3f71e2127f1976,6437730663a65dcf51a417db,04-12-2023_20h14.35.583,PRaM,2021.2.3,Linux x86_64,60.0276127,61b8f3437b89212fae0dfade
1,13.6093,space,13.3938,0,9,9,50,1,,,6314c1e76c3f71e2127f1976,6437730663a65dcf51a417db,04-12-2023_20h14.35.583,PRaM,2021.2.3,Linux x86_64,60.0276127,61b8f3437b89212fae0dfade
9,10.524,space,9.8637,0,10,10,208,1,,,6314c1e76c3f71e2127f1976,6437730663a65dcf51a417db,04-12-2023_20h14.35.583,PRaM,2021.2.3,Linux x86_64,60.0276127,61b8f3437b89212fae0dfade
5,14.3545,space,13.7106,0,11,11,292,1,,,6314c1e76c3f71e2127f1976,6437730663a65dcf51a417db,04-12-2023_20h14.35.583,PRaM,2021.2.3,Linux x86_64,60.0276127,61b8f3437b89212fae0dfade
1,25.3943,space,27.2111,0,12,12,81,1,,,6314c1e76c3f71e2127f1976,6437730663a65dcf51a417db,04-12-2023_20h14.35.583,PRaM,2021.2.3,Linux x86_64,60.0276127,61b8f3437b89212fae0dfade
1,4.3821,space,3.4537,0,13,13,57,1,,,6314c1e76c3f71e2127f1976,6437730663a65dcf51a417db,04-12-2023_20h14.35.583,PRaM,2021.2.3,Linux x86_64,60.0276127,61b8f3437b89212fae0dfade
1,3.7318,space,2.5218,0,14,14,237,1,,,6314c1e76c3f71e2127f1976,6437730663a65dcf51a417db,04-12-2023_20h14.35.583,PRaM,2021.2.3,Linux x86_64,60.0276127,61b8f3437b89212fae0dfade
2,13.5183,space,12.4397,0,15,15,151,1,,,6314c1e76c3f71e2127f1976,6437730663a65dcf51a417db,04-12-2023_20h14.35.583,PRaM,2021.2.3,Linux x86_64,60.0276127,61b8f3437b89212fae0dfade
5,6.8428,space,5.6784,0,16,16,273,1,,,6314c1e76c3f71e2127f1976,6437730663a65dcf51a417db,04-12-2023_20h14.35.583,PRaM,2021.2.3,Linux x86_64,60.0276127,61b8f3437b89212fae0dfade
1,5.5028,space,4.7003,0,17,17,250,1,,,6314c1e76c3f71e2127f1976,6437730663a65dcf51a417db,04-12-2023_20h14.35.583,PRaM,2021.2.3,Linux x86_64,60.0276127,61b8f3437b89212fae0dfade
2,8.0313,space,6.4337,0,18,18,149,1,,,6314c1e76c3f71e2127f1976,6437730663a65dcf51a417db,04-12-2023_20h14.35.583,PRaM,2021.2.3,Linux x86_64,60.0276127,61b8f3437b89212fae0dfade
5,3.1102,space,1.5319,0,19,19,224,1,,,6314c1e76c3f71e2127f1976,6437730663a65dcf51a417db,04-12-2023_20h14.35.583,PRaM,2021.2.3,Linux x86_64,60.0276127,61b8f3437b89212fae0dfade
2,7.7347,space,6.4646,0,20,20,169,1,,,6314c1e76c3f71e2127f1976,6437730663a65dcf51a417db,04-12-2023_20h14.35.583,PRaM,2021.2.3,Linux x86_64,60.0276127,61b8f3437b89212fae0dfade
5,9.1393,space,7.5032,0,21,21,294,1,,,6314c1e76c3f71e2127f1976,6437730663a65dcf51a417db,04-12-2023_20h14.35.583,PRaM,2021.2.3,Linux x86_64,60.0276127,61b8f3437b89212fae0dfade
8,5.581,space,4.4999,0,22,22,350,1,,,6314c1e76c3f71e2127f1976,6437730663a65dcf51a417db,04-12-2023_20h14.35.583,PRaM,2021.2.3,Linux x86_64,60.0276127,61b8f3437b89212fae0dfade
9,13.3108,space,13.6644,0,23,23,16,1,,,6314c1e76c3f71e2127f1976,6437730663a65dcf51a417db,04-12-2023_20h14.35.583,PRaM,2021.2.3,Linux x86_64,60.0276127,61b8f3437b89212fae0dfade
8,10.339,space,9.5813,0,24,24,119,1,,,6314c1e76c3f71e2127f1976,6437730663a65dcf51a417db,04-12-2023_20h14.35.583,PRaM,2021.2.3,Linux x86_64,60.0276127,61b8f3437b89212fae0dfade
4,10.0655,space,8.8212,0,25,25,21,1,,,6314c1e76c3f71e2127f1976,6437730663a65dcf51a417db,04-12-2023_20h14.35.583,PRaM,2021.2.3,Linux x86_64,60.0276127,61b8f3437b89212fae0dfade
1,12.5626,space,40.3226,0,26,26,313,1,,,6314c1e76c3f71e2127f1976,6437730663a65dcf51a417db,04-12-2023_20h14.35.583,PRaM,2021.2.3,Linux x86_64,60.0276127,61b8f3437b89212fae0dfade
4,174.0909,space,172.7523,0,27,27,93,1,,,6314c1e76c3f71e2127f1976,6437730663a65dcf51a417db,04-12-2023_20h14.35.583,PRaM,2021.2.3,Linux x86_64,60.0276127,61b8f3437b89212fae0dfade
1,67.7796,space,66.2692,0,28,28,126,1,,,6314c1e76c3f71e2127f1976,6437730663a65dcf51a417db,04-12-2023_20h14.35.583,PRaM,2021.2.3,Linux x86_64,60.0276127,61b8f3437b89212fae0dfade
1,7.0031,space,5.8396,0,29,29,67,1,,,6314c1e76c3f71e2127f1976,6437730663a65dcf51a417db,04-12-2023_20h14.35.583,PRaM,2021.2.3,Linux x86_64,60.0276127,61b8f3437b89212fae0dfade
1,5.7455,space,4.6009,0,30,30,39,1,,,6314c1e76c3f71e2127f1976,6437730663a65dcf51a417db,04-12-2023_20h14.35.583,PRaM,2021.2.3,Linux x86_64,60.0276127,61b8f3437b89212fae0dfade
5,6.3757,space,5.9407,0,31,31,179,1,,,6314c1e76c3f71e2127f1976,6437730663a65dcf51a417db,04-12-2023_20h14.35.583,PRaM,2021.2.3,Linux x86_64,60.0276127,61b8f3437b89212fae0dfade
1,7.9845,space,7.1405,0,32,32,78,1,,,6314c1e76c3f71e2127f1976,6437730663a65dcf51a417db,04-12-2023_20h14.35.583,PRaM,2021.2.3,Linux x86_64,60.0276127,61b8f3437b89212fae0dfade
1,10.7454,space,9.7134,0,33,33,73,1,,,6314c1e76c3f71e2127f1976,6437730663a65dcf51a417db,04-12-2023_20h14.35.583,PRaM,2021.2.3,Linux x86_64,60.0276127,61b8f3437b89212fae0dfade
9,6.8142,space,5.5195,0,34,34,134,1,,,6314c1e76c3f71e2127f1976,6437730663a65dcf51a417db,04-12-2023_20h14.35.583,PRaM,2021.2.3,Linux x86_64,60.0276127,61b8f3437b89212fae0dfade
7,54.3776,space,53.8935,0,35,35,223,1,,,6314c1e76c3f71e2127f1976,6437730663a65dcf51a417db,04-12-2023_20h14.35.583,PRaM,2021.2.3,Linux x86_64,60.0276127,61b8f3437b89212fae0dfade
4,8.3049,space,8.0644,0,36,36,216,1,,,6314c1e76c3f71e2127f1976,6437730663a65dcf51a417db,04-12-2023_20h14.35.583,PRaM,2021.2.3,Linux x86_64,60.0276127,61b8f3437b89212fae0dfade
1,4.1843,space,2.7308,0,37,37,260,1,,,6314c1e76c3f71e2127f1976,6437730663a65dcf51a417db,04-12-2023_20h14.35.583,PRaM,2021.2.3,Linux x86_64,60.0276127,61b8f3437b89212fae0dfade
8,5.2185,space,4.0809,0,38,38,297,1,,,6314c1e76c3f71e2127f1976,6437730663a65dcf51a417db,04-12-2023_20h14.35.583,PRaM,2021.2.3,Linux x86_64,60.0276127,61b8f3437b89212fae0dfade
9,3.4804,space,2.4689,0,39,39,320,1,,,6314c1e76c3f71e2127f1976,6437730663a65dcf51a417db,04-12-2023_20h14.35.583,PRaM,2021.2.3,Linux x86_64,60.0276127,61b8f3437b89212fae0dfade
1,4.207,space,2.5679,0,40,40,5,1,,,6314c1e76c3f71e2127f1976,6437730663a65dcf51a417db,04-12-2023_20h14.35.583,PRaM,2021.2.3,Linux x86_64,60.0276127,61b8f3437b89212fae0dfade
7,5.8092,space,5.1331,0,41,41,110,1,,,6314c1e76c3f71e2127f1976,6437730663a65dcf51a417db,04-12-2023_20h14.35.583,PRaM,2021.2.3,Linux x86_64,60.0276127,61b8f3437b89212fae0dfade
7,4.8356,space,3.417,0,42,42,368,1,,,6314c1e76c3f71e2127f1976,6437730663a65dcf51a417db,04-12-2023_20h14.35.583,PRaM,2021.2.3,Linux x86_64,60.0276127,61b8f3437b89212fae0dfade
8,9.8541,space,8.9338,0,43,43,236,1,,,6314c1e76c3f71e2127f1976,6437730663a65dcf51a417db,04-12-2023_20h14.35.583,PRaM,2021.2.3,Linux x86_64,60.0276127,61b8f3437b89212fae0dfade
1,6.482,space,5.0145,0,44,44,351,1,,,6314c1e76c3f71e2127f1976,6437730663a65dcf51a417db,04-12-2023_20h14.35.583,PRaM,2021.2.3,Linux x86_64,60.0276127,61b8f3437b89212fae0dfade
7,6.6736,space,5.5138,0,45,45,154,1,,,6314c1e76c3f71e2127f1976,6437730663a65dcf51a417db,04-12-2023_20h14.35.583,PRaM,2021.2.3,Linux x86_64,60.0276127,61b8f3437b89212fae0dfade
9,4.1339,space,3.0844,0,46,46,279,1,,,6314c1e76c3f71e2127f1976,6437730663a65dcf51a417db,04-12-2023_20h14.35.583,PRaM,2021.2.3,Linux x86_64,60.0276127,61b8f3437b89212fae0dfade
2,4.1012,space,2.9837,0,47,47,122,1,,,6314c1e76c3f71e2127f1976,6437730663a65dcf51a417db,04-12-2023_20h14.35.583,PRaM,2021.2.3,Linux x86_64,60.0276127,61b8f3437b89212fae0dfade
1,5.1662,space,8.9806,0,48,48,231,1,,,6314c1e76c3f71e2127f1976,6437730663a65dcf51a417db,04-12-2023_20h14.35.583,PRaM,2021.2.3,Linux x86_64,60.0276127,61b8f3437b89212fae0dfade
1,6.234,space,5.9485,0,49,49,258,1,,,6314c1e76c3f71e2127f1976,6437730663a65dcf51a417db,04-12-2023_20h14.35.583,PRaM,2021.2.3,Linux x86_64,60.0276127,61b8f3437b89212fae0dfade
2,7.2592,space,5.8164,0,50,50,345,1,,,6314c1e76c3f71e2127f1976,6437730663a65dcf51a417db,04-12-2023_20h14.35.583,PRaM,2021.2.3,Linux x86_64,60.0276127,61b8f3437b89212fae0dfade
5,4.3394,space,5.1692,0,51,51,362,1,,,6314c1e76c3f71e2127f1976,6437730663a65dcf51a417db,04-12-2023_20h14.35.583,PRaM,2021.2.3,Linux x86_64,60.0276127,61b8f3437b89212fae0dfade
1,43.5492,space,42.648,0,52,52,317,1,,,6314c1e76c3f71e2127f1976,6437730663a65dcf51a417db,04-12-2023_20h14.35.583,PRaM,2021.2.3,Linux x86_64,60.0276127,61b8f3437b89212fae0dfade
5,4.0408,space,4.2687,0,53,53,167,1,,,6314c1e76c3f71e2127f1976,6437730663a65dcf51a417db,04-12-2023_20h14.35.583,PRaM,2021.2.3,Linux x86_64,60.0276127,61b8f3437b89212fae0dfade
3,41.7884,space,41.5667,0,54,54,340,1,,,6314c1e76c3f71e2127f1976,6437730663a65dcf51a417db,04-12-2023_20h14.35.583,PRaM,2021.2.3,Linux x86_64,60.0276127,61b8f3437b89212fae0dfade
8,8.9053,space,7.3448,0,55,55,304,1,,,6314c1e76c3f71e2127f1976,6437730663a65dcf51a417db,04-12-2023_20h14.35.583,PRaM,2021.2.3,Linux x86_64,60.0276127,61b8f3437b89212fae0dfade
1,5.4174,space,4.0576,0,56,56,103,1,,,6314c1e76c3f71e2127f1976,6437730663a65dcf51a417db,04-12-2023_20h14.35.583,PRaM,2021.2.3,Linux x86_64,60.0276127,61b8f3437b89212fae0dfade
6,7.0106,space,5.3307,0,57,57,29,1,,,6314c1e76c3f71e2127f1976,6437730663a65dcf51a417db,04-12-2023_20h14.35.583,PRaM,2021.2.3,Linux x86_64,60.0276127,61b8f3437b89212fae0dfade
5,9.9875,space,8.4549,0,58,58,213,1,,,6314c1e76c3f71e2127f1976,6437730663a65dcf51a417db,04-12-2023_20h14.35.583,PRaM,2021.2.3,Linux x86_64,60.0276127,61b8f3437b89212fae0dfade
1,5.6474,space,12.3774,0,59,59,108,1,,,6314c1e76c3f71e2127f1976,6437730663a65dcf51a417db,04-12-2023_20h14.35.583,PRaM,2021.2.3,Linux x86_64,60.0276127,61b8f3437b89212fae0dfade
5,142.8279,space,141.5192,0,60,60,66,1,,,6314c1e76c3f71e2127f1976,6437730663a65dcf51a417db,04-12-2023_20h14.35.583,PRaM,2021.2.3,Linux x86_64,60.0276127,61b8f3437b89212fae0dfade
1,3.9036,space,2.6191,0,61,61,90,1,,,6314c1e76c3f71e2127f1976,6437730663a65dcf51a417db,04-12-2023_20h14.35.583,PRaM,2021.2.3,Linux x86_64,60.0276127,61b8f3437b89212fae0dfade
9,3.8184,space,3.3861,0,62,62,17,1,,,6314c1e76c3f71e2127f1976,6437730663a65dcf51a417db,04-12-2023_20h14.35.583,PRaM,2021.2.3,Linux x86_64,60.0276127,61b8f3437b89212fae0dfade
5,10.738,space,9.2192,0,63,63,58,1,,,6314c1e76c3f71e2127f1976,6437730663a65dcf51a417db,04-12-2023_20h14.35.583,PRaM,2021.2.3,Linux x86_64,60.0276127,61b8f3437b89212fae0dfade
5,8.3205,space,6.9512,0,64,64,307,1,,,6314c1e76c3f71e2127f1976,6437730663a65dcf51a417db,04-12-2023_20h14.35.583,PRaM,2021.2.3,Linux x86_64,60.0276127,61b8f3437b89212fae0dfade
6,7.6309,space,5.9839,0,65,65,117,1,,,6314c1e76c3f71e2127f1976,6437730663a65dcf51a417db,04-12-2023_20h14.35.583,PRaM,2021.2.3,Linux x86_64,60.0276127,61b8f3437b89212fae0dfade
7,5.0728,space,3.4148,0,66,66,244,1,,,6314c1e76c3f71e2127f1976,6437730663a65dcf51a417db,04-12-2023_20h14.35.583,PRaM,2021.2.3,Linux x86_64,60.0276127,61b8f3437b89212fae0dfade
7,9.248,space,7.5951,0,67,67,281,1,,,6314c1e76c3f71e2127f1976,6437730663a65dcf51a417db,04-12-2023_20h14.35.583,PRaM,2021.2.3,Linux x86_64,60.0276127,61b8f3437b89212fae0dfade
2,9.9343,space,8.7141,0,68,68,152,1,,,6314c1e76c3f71e2127f1976,6437730663a65dcf51a417db,04-12-2023_20h14.35.583,PRaM,2021.2.3,Linux x86_64,60.0276127,61b8f3437b89212fae0dfade
6,6.5341,space,5.6892,0,69,69,277,1,,,6314c1e76c3f71e2127f1976,6437730663a65dcf51a417db,04-12-2023_20h14.35.583,PRaM,2021.2.3,Linux x86_64,60.0276127,61b8f3437b89212fae0dfade
1,8.9186,space,7.6773,0,70,70,321,1,,,6314c1e76c3f71e2127f1976,6437730663a65dcf51a417db,04-12-2023_20h14.35.583,PRaM,2021.2.3,Linux x86_64,60.0276127,61b8f3437b89212fae0dfade
5,16.372,space,14.8175,0,71,71,265,1,,,6314c1e76c3f71e2127f1976,6437730663a65dcf51a417db,04-12-2023_20h14.35.583,PRaM,2021.2.3,Linux x86_64,60.0276127,61b8f3437b89212fae0dfade
5,6.3244,space,4.9161,0,72,72,197,1,,,6314c1e76c3f71e2127f1976,6437730663a65dcf51a417db,04-12-2023_20h14.35.583,PRaM,2021.2.3,Linux x86_64,60.0276127,61b8f3437b89212fae0dfade
1,11.621,space,9.9477,0,73,73,333,1,,,6314c1e76c3f71e2127f1976,6437730663a65dcf51a417db,04-12-2023_20h14.35.583,PRaM,2021.2.3,Linux x86_64,60.0276127,61b8f3437b89212fae0dfade
5,5.9362,space,5,0,74,74,187,1,,,6314c1e76c3f71e2127f1976,6437730663a65dcf51a417db,04-12-2023_20h14.35.583,PRaM,2021.2.3,Linux x86_64,60.0276127,61b8f3437b89212fae0dfade
2,14.1256,space,12.4308,0,75,75,261,1,,,6314c1e76c3f71e2127f1976,6437730663a65dcf51a417db,04-12-2023_20h14.35.583,PRaM,2021.2.3,Linux x86_64,60.0276127,61b8f3437b89212fae0dfade
1,6.4346,space,4.8192,0,76,76,82,1,,,6314c1e76c3f71e2127f1976,6437730663a65dcf51a417db,04-12-2023_20h14.35.583,PRaM,2021.2.3,Linux x86_64,60.0276127,61b8f3437b89212fae0dfade
1,21.2433,space,20.1302,0,77,77,249,1,,,6314c1e76c3f71e2127f1976,6437730663a65dcf51a417db,04-12-2023_20h14.35.583,PRaM,2021.2.3,Linux x86_64,60.0276127,61b8f3437b89212fae0dfade
5,9.3939,space,7.7315,0,78,78,288,1,,,6314c1e76c3f71e2127f1976,6437730663a65dcf51a417db,04-12-2023_20h14.35.583,PRaM,2021.2.3,Linux x86_64,60.0276127,61b8f3437b89212fae0dfade
1,4.4316,space,2.8342,0,79,79,253,1,,,6314c1e76c3f71e2127f1976,6437730663a65dcf51a417db,04-12-2023_20h14.35.583,PRaM,2021.2.3,Linux x86_64,60.0276127,61b8f3437b89212fae0dfade
1,2.9837,space,1.3334,0,80,80,36,1,,,6314c1e76c3f71e2127f1976,6437730663a65dcf51a417db,04-12-2023_20h14.35.583,PRaM,2021.2.3,Linux x86_64,60.0276127,61b8f3437b89212fae0dfade
1,6.9599,space,5.2507,0,81,81,37,1,,,6314c1e76c3f71e2127f1976,6437730663a65dcf51a417db,04-12-2023_20h14.35.583,PRaM,2021.2.3,Linux x86_64,60.0276127,61b8f3437b89212fae0dfade
9,3.8043,space,2.3151,0,82,82,137,1,,,6314c1e76c3f71e2127f1976,6437730663a65dcf51a417db,04-12-2023_20h14.35.583,PRaM,2021.2.3,Linux x86_64,60.0276127,61b8f3437b89212fae0dfade
5,3.493,space,1.9534,0,83,83,341,1,,,6314c1e76c3f71e2127f1976,6437730663a65dcf51a417db,04-12-2023_20h14.35.583,PRaM,2021.2.3,Linux x86_64,60.0276127,61b8f3437b89212fae0dfade
2,11.4339,space,10.2785,0,84,84,309,1,,,6314c1e76c3f71e2127f1976,6437730663a65dcf51a417db,04-12-2023_20h14.35.583,PRaM,2021.2.3,Linux x86_64,60.0276127,61b8f3437b89212fae0dfade
7,5.3517,space,3.5515,0,85,85,48,1,,,6314c1e76c3f71e2127f1976,6437730663a65dcf51a417db,04-12-2023_20h14.35.583,PRaM,2021.2.3,Linux x86_64,60.0276127,61b8f3437b89212fae0dfade
7,3.2807,space,1.9384,0,86,86,80,1,,,6314c1e76c3f71e2127f1976,6437730663a65dcf51a417db,04-12-2023_20h14.35.583,PRaM,2021.2.3,Linux x86_64,60.0276127,61b8f3437b89212fae0dfade
5,4.6718,space,3.4469,0,87,87,358,1,,,6314c1e76c3f71e2127f1976,6437730663a65dcf51a417db,04-12-2023_20h14.35.583,PRaM,2021.2.3,Linux x86_64,60.0276127,61b8f3437b89212fae0dfade
1,4.4672,space,2.8005,0,88,88,284,1,,,6314c1e76c3f71e2127f1976,6437730663a65dcf51a417db,04-12-2023_20h14.35.583,PRaM,2021.2.3,Linux x86_64,60.0276127,61b8f3437b89212fae0dfade
2,6.1988,space,4.4639,0,89,89,212,1,,,6314c1e76c3f71e2127f1976,6437730663a65dcf51a417db,04-12-2023_20h14.35.583,PRaM,2021.2.3,Linux x86_64,60.0276127,61b8f3437b89212fae0dfade
2,4.6324,space,3.3491,0,90,90,359,1,,,6314c1e76c3f71e2127f1976,6437730663a65dcf51a417db,04-12-2023_20h14.35.583,PRaM,2021.2.3,Linux x86_64,60.0276127,61b8f3437b89212fae0dfade
7,5.9127,space,5.113,0,91,91,278,1,,,6314c1e76c3f71e2127f1976,6437730663a65dcf51a417db,04-12-2023_20h14.35.583,PRaM,2021.2.3,Linux x86_64,60.0276127,61b8f3437b89212fae0dfade
2,6.8883,space,5.5833,0,92,92,215,1,,,6314c1e76c3f71e2127f1976,6437730663a65dcf51a417db,04-12-2023_20h14.35.583,PRaM,2021.2.3,Linux x86_64,60.0276127,61b8f3437b89212fae0dfade
1,3.2698,space,1.6513,0,93,93,207,1,,,6314c1e76c3f71e2127f1976,6437730663a65dcf51a417db,04-12-2023_20h14.35.583,PRaM,2021.2.3,Linux x86_64,60.0276127,61b8f3437b89212fae0dfade
2,7.0319,space,5.4687,0,94,94,100,1,,,6314c1e76c3f71e2127f1976,6437730663a65dcf51a417db,04-12-2023_20h14.35.583,PRaM,2021.2.3,Linux x86_64,60.0276127,61b8f3437b89212fae0dfade
5,3.9287,space,2.2193,0,95,95,170,1,,,6314c1e76c3f71e2127f1976,6437730663a65dcf51a417db,04-12-2023_20h14.35.583,PRaM,2021.2.3,Linux x86_64,60.0276127,61b8f3437b89212fae0dfade
2,5.3337,space,3.6492,0,96,96,89,1,,,6314c1e76c3f71e2127f1976,6437730663a65dcf51a417db,04-12-2023_20h14.35.583,PRaM,2021.2.3,Linux x86_64,60.0276127,61b8f3437b89212fae0dfade
2,4.8608,space,3.2331,0,97,97,8,1,,,6314c1e76c3f71e2127f1976,6437730663a65dcf51a417db,04-12-2023_20h14.35.583,PRaM,2021.2.3,Linux x86_64,60.0276127,61b8f3437b89212fae0dfade
2,10.1992,space,9.7468,0,98,98,22,1,,,6314c1e76c3f71e2127f1976,6437730663a65dcf51a417db,04-12-2023_20h14.35.583,PRaM,2021.2.3,Linux x86_64,60.0276127,61b8f3437b89212fae0dfade
5,3.4636,space,1.6396,0,99,99,332,1,,,6314c1e76c3f71e2127f1976,6437730663a65dcf51a417db,04-12-2023_20h14.35.583,PRaM,2021.2.3,Linux x86_64,60.0276127,61b8f3437b89212fae0dfade
7,8.1753,space,6.8165,0,100,100,259,1,,,6314c1e76c3f71e2127f1976,6437730663a65dcf51a417db,04-12-2023_20h14.35.583,PRaM,2021.2.3,Linux x86_64,60.0276127,61b8f3437b89212fae0dfade
3,7.5925,space,5.8817,0,101,101,314,1,,,6314c1e76c3f71e2127f1976,6437730663a65dcf51a417db,04-12-2023_20h14.35.583,PRaM,2021.2.3,Linux x86_64,60.0276127,61b8f3437b89212fae0dfade
3,6.4316,space,4.8221,0,102,102,63,1,,,6314c1e76c3f71e2127f1976,6437730663a65dcf51a417db,04-12-2023_20h14.35.583,PRaM,2021.2.3,Linux x86_64,60.0276127,61b8f3437b89212fae0dfade
3,10.4117,space,8.989,0,103,103,353,1,,,6314c1e76c3f71e2127f1976,6437730663a65dcf51a417db,04-12-2023_20h14.35.583,PRaM,2021.2.3,Linux x86_64,60.0276127,61b8f3437b89212fae0dfade
1,4.4327,space,3.4038,0,104,104,109,1,,,6314c1e76c3f71e2127f1976,6437730663a65dcf51a417db,04-12-2023_20h14.35.583,PRaM,2021.2.3,Linux x86_64,60.0276127,61b8f3437b89212fae0dfade
5,10.7213,space,11.4015,0,105,105,365,1,,,6314c1e76c3f71e2127f1976,6437730663a65dcf51a417db,04-12-2023_20h14.35.583,PRaM,2021.2.3,Linux x86_64,60.0276127,61b8f3437b89212fae0dfade
5,2.8927,space,1.2185,0,106,106,272,1,,,6314c1e76c3f71e2127f1976,6437730663a65dcf51a417db,04-12-2023_20h14.35.583,PRaM,2021.2.3,Linux x86_64,60.0276127,61b8f3437b89212fae0dfade
5,2.3744,space,0.6722,0,107,107,371,1,,,6314c1e76c3f71e2127f1976,6437730663a65dcf51a417db,04-12-2023_20h14.35.583,PRaM,2021.2.3,Linux x86_64,60.0276127,61b8f3437b89212fae0dfade
6,6.7009,space,4.9856,0,108,108,85,1,,,6314c1e76c3f71e2127f1976,6437730663a65dcf51a417db,04-12-2023_20h14.35.583,PRaM,2021.2.3,Linux x86_64,60.0276127,61b8f3437b89212fae0dfade
8,4.8082,space,3.1164,0,109,109,196,1,,,6314c1e76c3f71e2127f1976,6437730663a65dcf51a417db,04-12-2023_20h14.35.583,PRaM,2021.2.3,Linux x86_64,60.0276127,61b8f3437b89212fae0dfade
5,2.8916,space,1.2218,0,110,110,286,1,,,6314c1e76c3f71e2127f1976,6437730663a65dcf51a417db,04-12-2023_20h14.35.583,PRaM,2021.2.3,Linux x86_64,60.0276127,61b8f3437b89212fae0dfade
5,5.9554,space,4.3174,0,111,111,114,1,,,6314c1e76c3f71e2127f1976,6437730663a65dcf51a417db,04-12-2023_20h14.35.583,PRaM,2021.2.3,Linux x86_64,60.0276127,61b8f3437b89212fae0dfade
2,3.6574,space,1.9524,0,112,112,138,1,,,6314c1e76c3f71e2127f1976,6437730663a65dcf51a417db,04-12-2023_20h14.35.583,PRaM,2021.2.3,Linux x86_64,60.0276127,61b8f3437b89212fae0dfade
6,5.0388,space,4.1722,0,113,113,205,1,,,6314c1e76c3f71e2127f1976,6437730663a65dcf51a417db,04-12-2023_20h14.35.583,PRaM,2021.2.3,Linux x86_64,60.0276127,61b8f3437b89212fae0dfade
9,3.473,space,1.8878,0,114,114,3,1,,,6314c1e76c3f71e2127f1976,6437730663a65dcf51a417db,04-12-2023_20h14.35.583,PRaM,2021.2.3,Linux x86_64,60.0276127,61b8f3437b89212fae0dfade
9,4.5474,space,3.5508,0,115,115,372,1,,,6314c1e76c3f71e2127f1976,6437730663a65dcf51a417db,04-12-2023_20h14.35.583,PRaM,2021.2.3,Linux x86_64,60.0276127,61b8f3437b89212fae0dfade
1,3.6349,space,2.0012,0,116,116,214,1,,,6314c1e76c3f71e2127f1976,6437730663a65dcf51a417db,04-12-2023_20h14.35.583,PRaM,2021.2.3,Linux x86_64,60.0276127,61b8f3437b89212fae0dfade
2,4.0542,space,3.3171,0,117,117,15,1,,,6314c1e76c3f71e2127f1976,6437730663a65dcf51a417db,04-12-2023_20h14.35.583,PRaM,2021.2.3,Linux x86_64,60.0276127,61b8f3437b89212fae0dfade
2,5.2753,space,4.2195,0,118,118,161,1,,,6314c1e76c3f71e2127f1976,6437730663a65dcf51a417db,04-12-2023_20h14.35.583,PRaM,2021.2.3,Linux x86_64,60.0276127,61b8f3437b89212fae0dfade
5,5.7409,space,4.0403,0,119,119,228,1,,,6314c1e76c3f71e2127f1976,6437730663a65dcf51a417db,04-12-2023_20h14.35.583,PRaM,2021.2.3,Linux x86_64,60.0276127,61b8f3437b89212fae0dfade
5,3.1234,space,1.3839,0,120,120,26,1,,,6314c1e76c3f71e2127f1976,6437730663a65dcf51a417db,04-12-2023_20h14.35.583,PRaM,2021.2.3,Linux x86_64,60.0276127,61b8f3437b89212fae0dfade
2,102.1352,space,100.8875,0,121,121,361,1,,,6314c1e76c3f71e2127f1976,6437730663a65dcf51a417db,04-12-2023_20h14.35.583,PRaM,2021.2.3,Linux x86_64,60.0276127,61b8f3437b89212fae0dfade
5,5.4435,space,3.5168,0,122,122,94,1,,,6314c1e76c3f71e2127f1976,6437730663a65dcf51a417db,04-12-2023_20h14.35.583,PRaM,2021.2.3,Linux x86_64,60.0276127,61b8f3437b89212fae0dfade
6,7.4504,space,5.7626,0,123,123,142,1,,,6314c1e76c3f71e2127f1976,6437730663a65dcf51a417db,04-12-2023_20h14.35.583,PRaM,2021.2.3,Linux x86_64,60.0276127,61b8f3437b89212fae0dfade
5,2.5422,space,0.6577,0,124,124,311,1,,,6314c1e76c3f71e2127f1976,6437730663a65dcf51a417db,04-12-2023_20h14.35.583,PRaM,2021.2.3,Linux x86_64,60.0276127,61b8f3437b89212fae0dfade
6,5.836,space,4.2355,0,125,125,198,1,,,6314c1e76c3f71e2127f1976,6437730663a65dcf51a417db,04-12-2023_20h14.35.583,PRaM,2021.2.3,Linux x86_64,60.0276127,61b8f3437b89212fae0dfade
1,5.5158,space,3.8894,0,126,126,79,1,,,6314c1e76c3f71e2127f1976,6437730663a65dcf51a417db,04-12-2023_20h14.35.583,PRaM,2021.2.3,Linux x86_64,60.0276127,61b8f3437b89212fae0dfade
2,4.8961,space,3.7016,0,127,127,159,1,,,6314c1e76c3f71e2127f1976,6437730663a65dcf51a417db,04-12-2023_20h14.35.583,PRaM,2021.2.3,Linux x86_64,60.0276127,61b8f3437b89212fae0dfade
6,7.0547,space,5.1419,0,128,128,326,1,,,6314c1e76c3f71e2127f1976,6437730663a65dcf51a417db,04-12-2023_20h14.35.583,PRaM,2021.2.3,Linux x86_64,60.0276127,61b8f3437b89212fae0dfade
1,3.3933,space,1.4675,0,129,129,88,1,,,6314c1e76c3f71e2127f1976,6437730663a65dcf51a417db,04-12-2023_20h14.35.583,PRaM,2021.2.3,Linux x86_64,60.0276127,61b8f3437b89212fae0dfade
6,7.0506,space,5.3682,0,130,130,45,1,,,6314c1e76c3f71e2127f1976,6437730663a65dcf51a417db,04-12-2023_20h14.35.583,PRaM,2021.2.3,Linux x86_64,60.0276127,61b8f3437b89212fae0dfade
8,2.6283,space,2.5666,0,131,131,337,1,,,6314c1e76c3f71e2127f1976,6437730663a65dcf51a417db,04-12-2023_20h14.35.583,PRaM,2021.2.3,Linux x86_64,60.0276127,61b8f3437b89212fae0dfade
5,5.156,space,3.4861,0,132,132,184,1,,,6314c1e76c3f71e2127f1976,6437730663a65dcf51a417db,04-12-2023_20h14.35.583,PRaM,2021.2.3,Linux x86_64,60.0276127,61b8f3437b89212fae0dfade
5,3.2265,space,3.7325,0,133,133,95,1,,,6314c1e76c3f71e2127f1976,6437730663a65dcf51a417db,04-12-2023_20h14.35.583,PRaM,2021.2.3,Linux x86_64,60.0276127,61b8f3437b89212fae0dfade
3,8.8217,space,7.1497,0,134,134,99,1,,,6314c1e76c3f71e2127f1976,6437730663a65dcf51a417db,04-12-2023_20h14.35.583,PRaM,2021.2.3,Linux x86_64,60.0276127,61b8f3437b89212fae0dfade
5,7.1901,space,5.348,0,135,135,31,1,,,6314c1e76c3f71e2127f1976,6437730663a65dcf51a417db,04-12-2023_20h14.35.583,PRaM,2021.2.3,Linux x86_64,60.0276127,61b8f3437b89212fae0dfade
1,3.6335,space,1.9489,0,136,136,191,1,,,6314c1e76c3f71e2127f1976,6437730663a65dcf51a417db,04-12-2023_20h14.35.583,PRaM,2021.2.3,Linux x86_64,60.0276127,61b8f3437b89212fae0dfade
7,4.569,space,2.9176,0,137,137,255,1,,,6314c1e76c3f71e2127f1976,6437730663a65dcf51a417db,04-12-2023_20h14.35.583,PRaM,2021.2.3,Linux x86_64,60.0276127,61b8f3437b89212fae0dfade
1,4.056,space,2.3542,0,138,138,148,1,,,6314c1e76c3f71e2127f1976,6437730663a65dcf51a417db,04-12-2023_20h14.35.583,PRaM,2021.2.3,Linux x86_64,60.0276127,61b8f3437b89212fae0dfade
7,10.8381,space,9.8639,0,139,139,14,1,,,6314c1e76c3f71e2127f1976,6437730663a65dcf51a417db,04-12-2023_20h14.35.583,PRaM,2021.2.3,Linux x86_64,60.0276127,61b8f3437b89212fae0dfade
5,2.857,space,0.9862,0,140,140,175,1,,,6314c1e76c3f71e2127f1976,6437730663a65dcf51a417db,04-12-2023_20h14.35.583,PRaM,2021.2.3,Linux x86_64,60.0276127,61b8f3437b89212fae0dfade
5,5.1222,space,3.3527,0,141,141,347,1,,,6314c1e76c3f71e2127f1976,6437730663a65dcf51a417db,04-12-2023_20h14.35.583,PRaM,2021.2.3,Linux x86_64,60.0276127,61b8f3437b89212fae0dfade
3,5.518,space,3.9834,0,142,142,97,1,,,6314c1e76c3f71e2127f1976,6437730663a65dcf51a417db,04-12-2023_20h14.35.583,PRaM,2021.2.3,Linux x86_64,60.0276127,61b8f3437b89212fae0dfade
2,5.281,space,3.5691,0,143,143,113,1,,,6314c1e76c3f71e2127f1976,6437730663a65dcf51a417db,04-12-2023_20h14.35.583,PRaM,2021.2.3,Linux x86_64,60.0276127,61b8f3437b89212fae0dfade
1,5.202,space,4.0734,0,144,144,98,1,,,6314c1e76c3f71e2127f1976,6437730663a65dcf51a417db,04-12-2023_20h14.35.583,PRaM,2021.2.3,Linux x86_64,60.0276127,61b8f3437b89212fae0dfade
5,3.9696,space,2.5855,0,145,145,324,1,,,6314c1e76c3f71e2127f1976,6437730663a65dcf51a417db,04-12-2023_20h14.35.583,PRaM,2021.2.3,Linux x86_64,60.0276127,61b8f3437b89212fae0dfade
5,1.7229,space,1.2862,0,146,146,343,1,,,6314c1e76c3f71e2127f1976,6437730663a65dcf51a417db,04-12-2023_20h14.35.583,PRaM,2021.2.3,Linux x86_64,60.0276127,61b8f3437b89212fae0dfade
8,5.3512,space,3.8151,0,147,147,64,1,,,6314c1e76c3f71e2127f1976,6437730663a65dcf51a417db,04-12-2023_20h14.35.583,PRaM,2021.2.3,Linux x86_64,60.0276127,61b8f3437b89212fae0dfade
9,3.4732,space,1.6518,0,148,148,323,1,,,6314c1e76c3f71e2127f1976,6437730663a65dcf51a417db,04-12-2023_20h14.35.583,PRaM,2021.2.3,Linux x86_64,60.0276127,61b8f3437b89212fae0dfade
1,4.1272,space,3.4047,0,149,149,190,1,,,6314c1e76c3f71e2127f1976,6437730663a65dcf51a417db,04-12-2023_20h14.35.583,PRaM,2021.2.3,Linux x86_64,60.0276127,61b8f3437b89212fae0dfade
6,97.8359,space,96.2859,0,150,150,306,1,,,6314c1e76c3f71e2127f1976,6437730663a65dcf51a417db,04-12-2023_20h14.35.583,PRaM,2021.2.3,Linux x86_64,60.0276127,61b8f3437b89212fae0dfade
6,5.5684,space,4.5168,0,151,151,4,1,,,6314c1e76c3f71e2127f1976,6437730663a65dcf51a417db,04-12-2023_20h14.35.583,PRaM,2021.2.3,Linux x86_64,60.0276127,61b8f3437b89212fae0dfade
5,13.5016,space,11.8014,0,152,152,308,1,,,6314c1e76c3f71e2127f1976,6437730663a65dcf51a417db,04-12-2023_20h14.35.583,PRaM,2021.2.3,Linux x86_64,60.0276127,61b8f3437b89212fae0dfade
5,9.4573,space,7.9973,0,153,153,121,1,,,6314c1e76c3f71e2127f1976,6437730663a65dcf51a417db,04-12-2023_20h14.35.583,PRaM,2021.2.3,Linux x86_64,60.0276127,61b8f3437b89212fae0dfade
6,346.654,space,344.9662,0,154,154,46,1,,,6314c1e76c3f71e2127f1976,6437730663a65dcf51a417db,04-12-2023_20h14.35.583,PRaM,2021.2.3,Linux x86_64,60.0276127,61b8f3437b89212fae0dfade
6,5.6332,space,3.8494,0,155,155,344,1,,,6314c1e76c3f71e2127f1976,6437730663a65dcf51a417db,04-12-2023_20h14.35.583,PRaM,2021.2.3,Linux x86_64,60.0276127,61b8f3437b89212fae0dfade
,,space,1.4256,0,156,156,354,1,,,6314c1e76c3f71e2127f1976,6437730663a65dcf51a417db,04-12-2023_20h14.35.583,PRaM,2021.2.3,Linux x86_64,60.0276127,61b8f3437b89212fae0dfade
5,9.5466,space,7.9149,0,157,157,180,1,,,6314c1e76c3f71e2127f1976,6437730663a65dcf51a417db,04-12-2023_20h14.35.583,PRaM,2021.2.3,Linux x86_64,60.0276127,61b8f3437b89212fae0dfade
6,9.1197,space,7.4864,0,158,158,123,1,,,6314c1e76c3f71e2127f1976,6437730663a65dcf51a417db,04-12-2023_20h14.35.583,PRaM,2021.2.3,Linux x86_64,60.0276127,61b8f3437b89212fae0dfade
9,3.0708,space,1.4674,0,159,159,38,1,,,6314c1e76c3f71e2127f1976,6437730663a65dcf51a417db,04-12-2023_20h14.35.583,PRaM,2021.2.3,Linux x86_64,60.0276127,61b8f3437b89212fae0dfade
6,5.3693,space,3.7062,0,160,160,370,1,,,6314c1e76c3f71e2127f1976,6437730663a65dcf51a417db,04-12-2023_20h14.35.583,PRaM,2021.2.3,Linux x86_64,60.0276127,61b8f3437b89212fae0dfade
1,3.2108,space,2.0336,0,161,161,290,1,,,6314c1e76c3f71e2127f1976,6437730663a65dcf51a417db,04-12-2023_20h14.35.583,PRaM,2021.2.3,Linux x86_64,60.0276127,61b8f3437b89212fae0dfade
1,5.9523,space,4.748,0,162,162,248,1,,,6314c1e76c3f71e2127f1976,6437730663a65dcf51a417db,04-12-2023_20h14.35.583,PRaM,2021.2.3,Linux x86_64,60.0276127,61b8f3437b89212fae0dfade
9,3.1982,space,2.0703,0,163,163,115,1,,,6314c1e76c3f71e2127f1976,6437730663a65dcf51a417db,04-12-2023_20h14.35.583,PRaM,2021.2.3,Linux x86_64,60.0276127,61b8f3437b89212fae0dfade
2,6.4649,space,5.9629,0,164,164,346,1,,,6314c1e76c3f71e2127f1976,6437730663a65dcf51a417db,04-12-2023_20h14.35.583,PRaM,2021.2.3,Linux x86_64,60.0276127,61b8f3437b89212fae0dfade
5,6.7762,space,5.1834,0,165,165,352,1,,,6314c1e76c3f71e2127f1976,6437730663a65dcf51a417db,04-12-2023_20h14.35.583,PRaM,2021.2.3,Linux x86_64,60.0276127,61b8f3437b89212fae0dfade
6,4.2687,space,2.4661,0,166,166,76,1,,,6314c1e76c3f71e2127f1976,6437730663a65dcf51a417db,04-12-2023_20h14.35.583,PRaM,2021.2.3,Linux x86_64,60.0276127,61b8f3437b89212fae0dfade
5,2.6226,space,0.8668,0,167,167,356,1,,,6314c1e76c3f71e2127f1976,6437730663a65dcf51a417db,04-12-2023_20h14.35.583,PRaM,2021.2.3,Linux x86_64,60.0276127,61b8f3437b89212fae0dfade
6,3.7171,space,1.8827,0,168,168,271,1,,,6314c1e76c3f71e2127f1976,6437730663a65dcf51a417db,04-12-2023_20h14.35.583,PRaM,2021.2.3,Linux x86_64,60.0276127,61b8f3437b89212fae0dfade
1,6.438,space,4.7999,0,169,169,283,1,,,6314c1e76c3f71e2127f1976,6437730663a65dcf51a417db,04-12-2023_20h14.35.583,PRaM,2021.2.3,Linux x86_64,60.0276127,61b8f3437b89212fae0dfade
6,6.6694,space,4.9493,0,170,170,230,1,,,6314c1e76c3f71e2127f1976,6437730663a65dcf51a417db,04-12-2023_20h14.35.583,PRaM,2021.2.3,Linux x86_64,60.0276127,61b8f3437b89212fae0dfade
4,3.5968,space,1.82,0,171,171,234,1,,,6314c1e76c3f71e2127f1976,6437730663a65dcf51a417db,04-12-2023_20h14.35.583,PRaM,2021.2.3,Linux x86_64,60.0276127,61b8f3437b89212fae0dfade
7,4.1559,space,3.8926,0,172,172,143,1,,,6314c1e76c3f71e2127f1976,6437730663a65dcf51a417db,04-12-2023_20h14.35.583,PRaM,2021.2.3,Linux x86_64,60.0276127,61b8f3437b89212fae0dfade
1,9.4552,space,7.9023,0,173,173,201,1,,,6314c1e76c3f71e2127f1976,6437730663a65dcf51a417db,04-12-2023_20h14.35.583,PRaM,2021.2.3,Linux x86_64,60.0276127,61b8f3437b89212fae0dfade
7,4.6187,space,3.3884,0,174,174,120,1,,,6314c1e76c3f71e2127f1976,6437730663a65dcf51a417db,04-12-2023_20h14.35.583,PRaM,2021.2.3,Linux x86_64,60.0276127,61b8f3437b89212fae0dfade
2,3.3312,space,6.2823,0,175,175,155,1,,,6314c1e76c3f71e2127f1976,6437730663a65dcf51a417db,04-12-2023_20h14.35.583,PRaM,2021.2.3,Linux x86_64,60.0276127,61b8f3437b89212fae0dfade
8,4.8261,space,3.7019,0,176,176,192,1,,,6314c1e76c3f71e2127f1976,6437730663a65dcf51a417db,04-12-2023_20h14.35.583,PRaM,2021.2.3,Linux x86_64,60.0276127,61b8f3437b89212fae0dfade
2,5.5248,space,3.9228,0,177,177,172,1,,,6314c1e76c3f71e2127f1976,6437730663a65dcf51a417db,04-12-2023_20h14.35.583,PRaM,2021.2.3,Linux x86_64,60.0276127,61b8f3437b89212fae0dfade
1,3.7138,space,2.1018,0,178,178,232,1,,,6314c1e76c3f71e2127f1976,6437730663a65dcf51a417db,04-12-2023_20h14.35.583,PRaM,2021.2.3,Linux x86_64,60.0276127,61b8f3437b89212fae0dfade
5,4.847,space,3.1997,0,179,179,62,1,,,6314c1e76c3f71e2127f1976,6437730663a65dcf51a417db,04-12-2023_20h14.35.583,PRaM,2021.2.3,Linux x86_64,60.0276127,61b8f3437b89212fae0dfade
1,3.4567,space,1.8029,0,180,180,229,1,,,6314c1e76c3f71e2127f1976,6437730663a65dcf51a417db,04-12-2023_20h14.35.583,PRaM,2021.2.3,Linux x86_64,60.0276127,61b8f3437b89212fae0dfade
6,6.1238,space,4.4489,0,181,181,338,1,,,6314c1e76c3f71e2127f1976,6437730663a65dcf51a417db,04-12-2023_20h14.35.583,PRaM,2021.2.3,Linux x86_64,60.0276127,61b8f3437b89212fae0dfade
6,3.1643,space,1.5511,0,182,182,274,1,,,6314c1e76c3f71e2127f1976,6437730663a65dcf51a417db,04-12-2023_20h14.35.583,PRaM,2021.2.3,Linux x86_64,60.0276127,61b8f3437b89212fae0dfade
8,5.0522,space,3.3865,0,183,183,61,1,,,6314c1e76c3f71e2127f1976,6437730663a65dcf51a417db,04-12-2023_20h14.35.583,PRaM,2021.2.3,Linux x86_64,60.0276127,61b8f3437b89212fae0dfade
5,3.3407,space,1.5736,0,184,184,218,1,,,6314c1e76c3f71e2127f1976,6437730663a65dcf51a417db,04-12-2023_20h14.35.583,PRaM,2021.2.3,Linux x86_64,60.0276127,61b8f3437b89212fae0dfade
6,82.6733,space,81.0487,0,185,185,282,1,,,6314c1e76c3f71e2127f1976,6437730663a65dcf51a417db,04-12-2023_20h14.35.583,PRaM,2021.2.3,Linux x86_64,60.0276127,61b8f3437b89212fae0dfade
5,37.5227,space,35.8855,0,186,186,144,1,,,6314c1e76c3f71e2127f1976,6437730663a65dcf51a417db,04-12-2023_20h14.35.583,PRaM,2021.2.3,Linux x86_64,60.0276127,61b8f3437b89212fae0dfade
2,6.962,space,5.2832,0,187,187,182,1,,,6314c1e76c3f71e2127f1976,6437730663a65dcf51a417db,04-12-2023_20h14.35.583,PRaM,2021.2.3,Linux x86_64,60.0276127,61b8f3437b89212fae0dfade
8,8.7392,space,7.0814,0,188,188,194,1,,,6314c1e76c3f71e2127f1976,6437730663a65dcf51a417db,04-12-2023_20h14.35.583,PRaM,2021.2.3,Linux x86_64,60.0276127,61b8f3437b89212fae0dfade
1,4.5339,space,3.8674,0,189,189,247,1,,,6314c1e76c3f71e2127f1976,6437730663a65dcf51a417db,04-12-2023_20h14.35.583,PRaM,2021.2.3,Linux x86_64,60.0276127,61b8f3437b89212fae0dfade
1,30.4901,space,28.9058,0,190,190,330,1,,,6314c1e76c3f71e2127f1976,6437730663a65dcf51a417db,04-12-2023_20h14.35.583,PRaM,2021.2.3,Linux x86_64,60.0276127,61b8f3437b89212fae0dfade
1,128.5297,space,126.7226,0,191,191,131,1,,,6314c1e76c3f71e2127f1976,6437730663a65dcf51a417db,04-12-2023_20h14.35.583,PRaM,2021.2.3,Linux x86_64,60.0276127,61b8f3437b89212fae0dfade
5,5.475,space,3.7849,0,192,192,104,1,,,6314c1e76c3f71e2127f1976,6437730663a65dcf51a417db,04-12-2023_20h14.35.583,PRaM,2021.2.3,Linux x86_64,60.0276127,61b8f3437b89212fae0dfade
5,2.5942,space,1.1848,0,193,193,375,1,,,6314c1e76c3f71e2127f1976,6437730663a65dcf51a417db,04-12-2023_20h14.35.583,PRaM,2021.2.3,Linux x86_64,60.0276127,61b8f3437b89212fae0dfade
7,4.2523,space,2.9593,0,194,194,83,1,,,6314c1e76c3f71e2127f1976,6437730663a65dcf51a417db,04-12-2023_20h14.35.583,PRaM,2021.2.3,Linux x86_64,60.0276127,61b8f3437b89212fae0dfade
9,24.7138,space,23.7339,0,195,195,285,1,,,6314c1e76c3f71e2127f1976,6437730663a65dcf51a417db,04-12-2023_20h14.35.583,PRaM,2021.2.3,Linux x86_64,60.0276127,61b8f3437b89212fae0dfade
5,6.8373,space,5.2977,0,196,196,135,1,,,6314c1e76c3f71e2127f1976,6437730663a65dcf51a417db,04-12-2023_20h14.35.583,PRaM,2021.2.3,Linux x86_64,60.0276127,61b8f3437b89212fae0dfade
1,5.3846,space,3.5975,0,197,197,262,1,,,6314c1e76c3f71e2127f1976,6437730663a65dcf51a417db,04-12-2023_20h14.35.583,PRaM,2021.2.3,Linux x86_64,60.0276127,61b8f3437b89212fae0dfade
2,7.4227,space,5.5927,0,198,198,293,1,,,6314c1e76c3f71e2127f1976,6437730663a65dcf51a417db,04-12-2023_20h14.35.583,PRaM,2021.2.3,Linux x86_64,60.0276127,61b8f3437b89212fae0dfade
5,3.5615,space,1.6666,0,199,199,349,1,,,6314c1e76c3f71e2127f1976,6437730663a65dcf51a417db,04-12-2023_20h14.35.583,PRaM,2021.2.3,Linux x86_64,60.0276127,61b8f3437b89212fae0dfade
5,6.5746,space,5.0333,0,200,200,127,1,,,6314c1e76c3f71e2127f1976,6437730663a65dcf51a417db,04-12-2023_20h14.35.583,PRaM,2021.2.3,Linux x86_64,60.0276127,61b8f3437b89212fae0dfade
5,5.5753,space,3.963,0,201,201,366,1,,,6314c1e76c3f71e2127f1976,6437730663a65dcf51a417db,04-12-2023_20h14.35.583,PRaM,2021.2.3,Linux x86_64,60.0276127,61b8f3437b89212fae0dfade
1,5.6853,space,4.0999,0,202,202,268,1,,,6314c1e76c3f71e2127f1976,6437730663a65dcf51a417db,04-12-2023_20h14.35.583,PRaM,2021.2.3,Linux x86_64,60.0276127,61b8f3437b89212fae0dfade
1,11.5757,space,9.952,0,203,203,125,1,,,6314c1e76c3f71e2127f1976,6437730663a65dcf51a417db,04-12-2023_20h14.35.583,PRaM,2021.2.3,Linux x86_64,60.0276127,61b8f3437b89212fae0dfade
8,5.3676,space,3.6808,0,204,204,7,1,,,6314c1e76c3f71e2127f1976,6437730663a65dcf51a417db,04-12-2023_20h14.35.583,PRaM,2021.2.3,Linux x86_64,60.0276127,61b8f3437b89212fae0dfade
9,5.5469,space,4.0818,0,205,205,136,1,,,6314c1e76c3f71e2127f1976,6437730663a65dcf51a417db,04-12-2023_20h14.35.583,PRaM,2021.2.3,Linux x86_64,60.0276127,61b8f3437b89212fae0dfade
5,2.8952,space,0.9154,0,206,206,139,1,,,6314c1e76c3f71e2127f1976,6437730663a65dcf51a417db,04-12-2023_20h14.35.583,PRaM,2021.2.3,Linux x86_64,60.0276127,61b8f3437b89212fae0dfade
2,3.4376,space,1.5548,0,207,207,164,1,,,6314c1e76c3f71e2127f1976,6437730663a65dcf51a417db,04-12-2023_20h14.35.583,PRaM,2021.2.3,Linux x86_64,60.0276127,61b8f3437b89212fae0dfade
1,3.1946,space,1.4845,0,208,208,275,1,,,6314c1e76c3f71e2127f1976,6437730663a65dcf51a417db,04-12-2023_20h14.35.583,PRaM,2021.2.3,Linux x86_64,60.0276127,61b8f3437b89212fae0dfade
3,5.7315,space,3.9677,0,209,209,305,1,,,6314c1e76c3f71e2127f1976,6437730663a65dcf51a417db,04-12-2023_20h14.35.583,PRaM,2021.2.3,Linux x86_64,60.0276127,61b8f3437b89212fae0dfade
5,2.7712,space,0.9331,0,210,210,280,1,,,6314c1e76c3f71e2127f1976,6437730663a65dcf51a417db,04-12-2023_20h14.35.583,PRaM,2021.2.3,Linux x86_64,60.0276127,61b8f3437b89212fae0dfade
9,2.7449,space,0.9059,0,211,211,276,1,,,6314c1e76c3f71e2127f1976,6437730663a65dcf51a417db,04-12-2023_20h14.35.583,PRaM,2021.2.3,Linux x86_64,60.0276127,61b8f3437b89212fae0dfade
5,2.5005,space,0.6684,0,212,212,206,1,,,6314c1e76c3f71e2127f1976,6437730663a65dcf51a417db,04-12-2023_20h14.35.583,PRaM,2021.2.3,Linux x86_64,60.0276127,61b8f3437b89212fae0dfade
2,4.8944,space,3.2463,0,213,213,35,1,,,6314c1e76c3f71e2127f1976,6437730663a65dcf51a417db,04-12-2023_20h14.35.583,PRaM,2021.2.3,Linux x86_64,60.0276127,61b8f3437b89212fae0dfade
2,3.8466,space,2.0182,0,214,214,157,1,,,6314c1e76c3f71e2127f1976,6437730663a65dcf51a417db,04-12-2023_20h14.35.583,PRaM,2021.2.3,Linux x86_64,60.0276127,61b8f3437b89212fae0dfade
2,3.474,space,1.9682,0,215,215,153,1,,,6314c1e76c3f71e2127f1976,6437730663a65dcf51a417db,04-12-2023_20h14.35.583,PRaM,2021.2.3,Linux x86_64,60.0276127,61b8f3437b89212fae0dfade
5,4.0401,space,2.7018,0,216,216,140,1,,,6314c1e76c3f71e2127f1976,6437730663a65dcf51a417db,04-12-2023_20h14.35.583,PRaM,2021.2.3,Linux x86_64,60.0276127,61b8f3437b89212fae0dfade
5,11.4236,space,9.6176,0,217,217,147,1,,,6314c1e76c3f71e2127f1976,6437730663a65dcf51a417db,04-12-2023_20h14.35.583,PRaM,2021.2.3,Linux x86_64,60.0276127,61b8f3437b89212fae0dfade
2,4.3243,space,2.4173,0,218,218,23,1,,,6314c1e76c3f71e2127f1976,6437730663a65dcf51a417db,04-12-2023_20h14.35.583,PRaM,2021.2.3,Linux x86_64,60.0276127,61b8f3437b89212fae0dfade
6,4.6491,space,2.7376,0,219,219,132,1,,,6314c1e76c3f71e2127f1976,6437730663a65dcf51a417db,04-12-2023_20h14.35.583,PRaM,2021.2.3,Linux x86_64,60.0276127,61b8f3437b89212fae0dfade
5,2.5395,space,0.8152,0,220,220,257,1,,,6314c1e76c3f71e2127f1976,6437730663a65dcf51a417db,04-12-2023_20h14.35.583,PRaM,2021.2.3,Linux x86_64,60.0276127,61b8f3437b89212fae0dfade
6,5.813,space,3.9367,0,221,221,30,1,,,6314c1e76c3f71e2127f1976,6437730663a65dcf51a417db,04-12-2023_20h14.35.583,PRaM,2021.2.3,Linux x86_64,60.0276127,61b8f3437b89212fae0dfade
1,3.6149,space,1.8198,0,222,222,41,1,,,6314c1e76c3f71e2127f1976,6437730663a65dcf51a417db,04-12-2023_20h14.35.583,PRaM,2021.2.3,Linux x86_64,60.0276127,61b8f3437b89212fae0dfade
1,4.2015,space,3.4244,0,223,223,91,1,,,6314c1e76c3f71e2127f1976,6437730663a65dcf51a417db,04-12-2023_20h14.35.583,PRaM,2021.2.3,Linux x86_64,60.0276127,61b8f3437b89212fae0dfade
1,2.2762,space,0.4996,0,224,224,300,1,,,6314c1e76c3f71e2127f1976,6437730663a65dcf51a417db,04-12-2023_20h14.35.583,PRaM,2021.2.3,Linux x86_64,60.0276127,61b8f3437b89212fae0dfade
1,3.3047,space,1.4003,0,225,225,162,1,,,6314c1e76c3f71e2127f1976,6437730663a65dcf51a417db,04-12-2023_20h14.35.583,PRaM,2021.2.3,Linux x86_64,60.0276127,61b8f3437b89212fae0dfade
5,4.8912,space,3.0222,0,226,226,71,1,,,6314c1e76c3f71e2127f1976,6437730663a65dcf51a417db,04-12-2023_20h14.35.583,PRaM,2021.2.3,Linux x86_64,60.0276127,61b8f3437b89212fae0dfade
4,5.0843,space,3.2003,0,227,227,335,1,,,6314c1e76c3f71e2127f1976,6437730663a65dcf51a417db,04-12-2023_20h14.35.583,PRaM,2021.2.3,Linux x86_64,60.0276127,61b8f3437b89212fae0dfade
2,4.7734,space,2.9521,0,228,228,156,1,,,6314c1e76c3f71e2127f1976,6437730663a65dcf51a417db,04-12-2023_20h14.35.583,PRaM,2021.2.3,Linux x86_64,60.0276127,61b8f3437b89212fae0dfade
7,5.1848,space,3.7702,0,229,229,331,1,,,6314c1e76c3f71e2127f1976,6437730663a65dcf51a417db,04-12-2023_20h14.35.583,PRaM,2021.2.3,Linux x86_64,60.0276127,61b8f3437b89212fae0dfade
7,3.3421,space,1.6508,0,230,230,84,1,,,6314c1e76c3f71e2127f1976,6437730663a65dcf51a417db,04-12-2023_20h14.35.583,PRaM,2021.2.3,Linux x86_64,60.0276127,61b8f3437b89212fae0dfade
5,2.4585,space,0.5679,0,231,231,322,1,,,6314c1e76c3f71e2127f1976,6437730663a65dcf51a417db,04-12-2023_20h14.35.583,PRaM,2021.2.3,Linux x86_64,60.0276127,61b8f3437b89212fae0dfade
5,2.693,space,0.8496,0,232,232,12,1,,,6314c1e76c3f71e2127f1976,6437730663a65dcf51a417db,04-12-2023_20h14.35.583,PRaM,2021.2.3,Linux x86_64,60.0276127,61b8f3437b89212fae0dfade
1,4.2242,space,2.5362,0,233,233,210,1,,,6314c1e76c3f71e2127f1976,6437730663a65dcf51a417db,04-12-2023_20h14.35.583,PRaM,2021.2.3,Linux x86_64,60.0276127,61b8f3437b89212fae0dfade
5,7.1737,space,5.3823,0,234,234,47,1,,,6314c1e76c3f71e2127f1976,6437730663a65dcf51a417db,04-12-2023_20h14.35.583,PRaM,2021.2.3,Linux x86_64,60.0276127,61b8f3437b89212fae0dfade
5,2.1936,space,0.4867,0,235,235,241,1,,,6314c1e76c3f71e2127f1976,6437730663a65dcf51a417db,04-12-2023_20h14.35.583,PRaM,2021.2.3,Linux x86_64,60.0276127,61b8f3437b89212fae0dfade
1,3.1827,space,1.4016,0,236,236,369,1,,,6314c1e76c3f71e2127f1976,6437730663a65dcf51a417db,04-12-2023_20h14.35.583,PRaM,2021.2.3,Linux x86_64,60.0276127,61b8f3437b89212fae0dfade
7,5.6645,space,4.2524,0,237,237,329,1,,,6314c1e76c3f71e2127f1976,6437730663a65dcf51a417db,04-12-2023_20h14.35.583,PRaM,2021.2.3,Linux x86_64,60.0276127,61b8f3437b89212fae0dfade
7,5.4227,space,3.8478,0,238,238,334,1,,,6314c1e76c3f71e2127f1976,6437730663a65dcf51a417db,04-12-2023_20h14.35.583,PRaM,2021.2.3,Linux x86_64,60.0276127,61b8f3437b89212fae0dfade
8,5.712,space,4.0654,0,239,239,20,1,,,6314c1e76c3f71e2127f1976,6437730663a65dcf51a417db,04-12-2023_20h14.35.583,PRaM,2021.2.3,Linux x86_64,60.0276127,61b8f3437b89212fae0dfade
3,6.7425,space,5.0655,0,240,240,203,1,,,6314c1e76c3f71e2127f1976,6437730663a65dcf51a417db,04-12-2023_20h14.35.583,PRaM,2021.2.3,Linux x86_64,60.0276127,61b8f3437b89212fae0dfade
1,4.7156,space,3.1195,0,241,241,133,1,,,6314c1e76c3f71e2127f1976,6437730663a65dcf51a417db,04-12-2023_20h14.35.583,PRaM,2021.2.3,Linux x86_64,60.0276127,61b8f3437b89212fae0dfade
6,7.2172,space,6.6166,0,242,242,211,1,,,6314c1e76c3f71e2127f1976,6437730663a65dcf51a417db,04-12-2023_20h14.35.583,PRaM,2021.2.3,Linux x86_64,60.0276127,61b8f3437b89212fae0dfade
9,4.8164,space,3.5836,0,243,243,141,1,,,6314c1e76c3f71e2127f1976,6437730663a65dcf51a417db,04-12-2023_20h14.35.583,PRaM,2021.2.3,Linux x86_64,60.0276127,61b8f3437b89212fae0dfade
9,2.419,space,0.7732,0,244,244,301,1,,,6314c1e76c3f71e2127f1976,6437730663a65dcf51a417db,04-12-2023_20h14.35.583,PRaM,2021.2.3,Linux x86_64,60.0276127,61b8f3437b89212fae0dfade
2,6.0925,space,4.4495,0,245,245,263,1,,,6314c1e76c3f71e2127f1976,6437730663a65dcf51a417db,04-12-2023_20h14.35.583,PRaM,2021.2.3,Linux x86_64,60.0276127,61b8f3437b89212fae0dfade
2,4.139,space,2.4664,0,246,246,28,1,,,6314c1e76c3f71e2127f1976,6437730663a65dcf51a417db,04-12-2023_20h14.35.583,PRaM,2021.2.3,Linux x86_64,60.0276127,61b8f3437b89212fae0dfade
5,4.0618,space,2.4166,0,247,247,239,1,,,6314c1e76c3f71e2127f1976,6437730663a65dcf51a417db,04-12-2023_20h14.35.583,PRaM,2021.2.3,Linux x86_64,60.0276127,61b8f3437b89212fae0dfade
1,2.9938,space,1.2531,0,248,248,13,1,,,6314c1e76c3f71e2127f1976,6437730663a65dcf51a417db,04-12-2023_20h14.35.583,PRaM,2021.2.3,Linux x86_64,60.0276127,61b8f3437b89212fae0dfade
1,1.8745,space,0.7492,0,249,249,289,1,,,6314c1e76c3f71e2127f1976,6437730663a65dcf51a417db,04-12-2023_20h14.35.583,PRaM,2021.2.3,Linux x86_64,60.0276127,61b8f3437b89212fae0dfade
5,2.7886,space,1.3206,0,250,250,181,1,,,6314c1e76c3f71e2127f1976,6437730663a65dcf51a417db,04-12-2023_20h14.35.583,PRaM,2021.2.3,Linux x86_64,60.0276127,61b8f3437b89212fae0dfade
1,9.422,space,7.732,0,251,251,1,1,,,6314c1e76c3f71e2127f1976,6437730663a65dcf51a417db,04-12-2023_20h14.35.583,PRaM,2021.2.3,Linux x86_64,60.0276127,61b8f3437b89212fae0dfade
6,5.5115,space,3.9007,0,252,252,168,1,,,6314c1e76c3f71e2127f1976,6437730663a65dcf51a417db,04-12-2023_20h14.35.583,PRaM,2021.2.3,Linux x86_64,60.0276127,61b8f3437b89212fae0dfade
5,2.1116,space,0.3691,0,253,253,52,1,,,6314c1e76c3f71e2127f1976,6437730663a65dcf51a417db,04-12-2023_20h14.35.583,PRaM,2021.2.3,Linux x86_64,60.0276127,61b8f3437b89212fae0dfade
1,4.3708,space,2.7581,0,254,254,74,1,,,6314c1e76c3f71e2127f1976,6437730663a65dcf51a417db,04-12-2023_20h14.35.583,PRaM,2021.2.3,Linux x86_64,60.0276127,61b8f3437b89212fae0dfade
1,3.3871,space,1.6314,0,255,255,204,1,,,6314c1e76c3f71e2127f1976,6437730663a65dcf51a417db,04-12-2023_20h14.35.583,PRaM,2021.2.3,Linux x86_64,60.0276127,61b8f3437b89212fae0dfade
7,3.097,space,1.3004,0,256,256,328,1,,,6314c1e76c3f71e2127f1976,6437730663a65dcf51a417db,04-12-2023_20h14.35.583,PRaM,2021.2.3,Linux x86_64,60.0276127,61b8f3437b89212fae0dfade
2,3.4639,space,1.6707,0,257,257,18,1,,,6314c1e76c3f71e2127f1976,6437730663a65dcf51a417db,04-12-2023_20h14.35.583,PRaM,2021.2.3,Linux x86_64,60.0276127,61b8f3437b89212fae0dfade
9,3.307,space,1.8361,0,258,258,327,1,,,6314c1e76c3f71e2127f1976,6437730663a65dcf51a417db,04-12-2023_20h14.35.583,PRaM,2021.2.3,Linux x86_64,60.0276127,61b8f3437b89212fae0dfade
1,5.3802,space,3.966,0,259,259,217,1,,,6314c1e76c3f71e2127f1976,6437730663a65dcf51a417db,04-12-2023_20h14.35.583,PRaM,2021.2.3,Linux x86_64,60.0276127,61b8f3437b89212fae0dfade
1,2.4431,space,0.865,0,260,260,34,1,,,6314c1e76c3f71e2127f1976,6437730663a65dcf51a417db,04-12-2023_20h14.35.583,PRaM,2021.2.3,Linux x86_64,60.0276127,61b8f3437b89212fae0dfade
5,4.522,space,2.849,0,261,261,40,1,,,6314c1e76c3f71e2127f1976,6437730663a65dcf51a417db,04-12-2023_20h14.35.583,PRaM,2021.2.3,Linux x86_64,60.0276127,61b8f3437b89212fae0dfade
6,6.2148,space,4.3905,0,262,262,342,1,,,6314c1e76c3f71e2127f1976,6437730663a65dcf51a417db,04-12-2023_20h14.35.583,PRaM,2021.2.3,Linux x86_64,60.0276127,61b8f3437b89212fae0dfade
5,2.1418,space,0.8676,0,263,263,374,1,,,6314c1e76c3f71e2127f1976,6437730663a65dcf51a417db,04-12-2023_20h14.35.583,PRaM,2021.2.3,Linux x86_64,60.0276127,61b8f3437b89212fae0dfade
2,4.3026,space,2.6004,0,264,264,178,1,,,6314c1e76c3f71e2127f1976,6437730663a65dcf51a417db,04-12-2023_20h14.35.583,PRaM,2021.2.3,Linux x86_64,60.0276127,61b8f3437b89212fae0dfade
5,2.4393,space,0.6492,0,265,265,376,1,,,6314c1e76c3f71e2127f1976,6437730663a65dcf51a417db,04-12-2023_20h14.35.583,PRaM,2021.2.3,Linux x86_64,60.0276127,61b8f3437b89212fae0dfade
5,7.6586,space,5.8832,0,266,266,188,1,,,6314c1e76c3f71e2127f1976,6437730663a65dcf51a417db,04-12-2023_20h14.35.583,PRaM,2021.2.3,Linux x86_64,60.0276127,61b8f3437b89212fae0dfade
1,8.2831,space,6.6843,0,267,267,107,1,,,6314c1e76c3f71e2127f1976,6437730663a65dcf51a417db,04-12-2023_20h14.35.583,PRaM,2021.2.3,Linux x86_64,60.0276127,61b8f3437b89212fae0dfade
2,9.3811,space,7.6143,0,268,268,246,1,,,6314c1e76c3f71e2127f1976,6437730663a65dcf51a417db,04-12-2023_20h14.35.583,PRaM,2021.2.3,Linux x86_64,60.0276127,61b8f3437b89212fae0dfade
6,4.7361,space,3.123,0,269,269,86,1,,,6314c1e76c3f71e2127f1976,6437730663a65dcf51a417db,04-12-2023_20h14.35.583,PRaM,2021.2.3,Linux x86_64,60.0276127,61b8f3437b89212fae0dfade
1,2.6555,space,0.8511,0,270,270,10,1,,,6314c1e76c3f71e2127f1976,6437730663a65dcf51a417db,04-12-2023_20h14.35.583,PRaM,2021.2.3,Linux x86_64,60.0276127,61b8f3437b89212fae0dfade
5,4.9072,space,3.2524,0,271,271,68,1,,,6314c1e76c3f71e2127f1976,6437730663a65dcf51a417db,04-12-2023_20h14.35.583,PRaM,2021.2.3,Linux x86_64,60.0276127,61b8f3437b89212fae0dfade
2,3.5256,space,1.7188,0,272,272,111,1,,,6314c1e76c3f71e2127f1976,6437730663a65dcf51a417db,04-12-2023_20h14.35.583,PRaM,2021.2.3,Linux x86_64,60.0276127,61b8f3437b89212fae0dfade
5,2.9909,space,1.3378,0,273,273,124,1,,,6314c1e76c3f71e2127f1976,6437730663a65dcf51a417db,04-12-2023_20h14.35.583,PRaM,2021.2.3,Linux x86_64,60.0276127,61b8f3437b89212fae0dfade
1,3.4335,space,9.2331,0,274,274,269,1,,,6314c1e76c3f71e2127f1976,6437730663a65dcf51a417db,04-12-2023_20h14.35.583,PRaM,2021.2.3,Linux x86_64,60.0276127,61b8f3437b89212fae0dfade
1,2.2866,space,0.983,0,275,275,318,1,,,6314c1e76c3f71e2127f1976,6437730663a65dcf51a417db,04-12-2023_20h14.35.583,PRaM,2021.2.3,Linux x86_64,60.0276127,61b8f3437b89212fae0dfade
1,2.4088,space,0.7326,0,276,276,287,1,,,6314c1e76c3f71e2127f1976,6437730663a65dcf51a417db,04-12-2023_20h14.35.583,PRaM,2021.2.3,Linux x86_64,60.0276127,61b8f3437b89212fae0dfade
7,6.8061,space,5.5005,0,277,277,199,1,,,6314c1e76c3f71e2127f1976,6437730663a65dcf51a417db,04-12-2023_20h14.35.583,PRaM,2021.2.3,Linux x86_64,60.0276127,61b8f3437b89212fae0dfade
7,2.6756,space,0.9362,0,278,278,43,1,,,6314c1e76c3f71e2127f1976,6437730663a65dcf51a417db,04-12-2023_20h14.35.583,PRaM,2021.2.3,Linux x86_64,60.0276127,61b8f3437b89212fae0dfade
1,2.6636,space,1.0517,0,279,279,130,1,,,6314c1e76c3f71e2127f1976,6437730663a65dcf51a417db,04-12-2023_20h14.35.583,PRaM,2021.2.3,Linux x86_64,60.0276127,61b8f3437b89212fae0dfade
6,4.5477,space,3.0997,0,280,280,25,1,,,6314c1e76c3f71e2127f1976,6437730663a65dcf51a417db,04-12-2023_20h14.35.583,PRaM,2021.2.3,Linux x86_64,60.0276127,61b8f3437b89212fae0dfade
6,4.7113,space,3.0194,0,281,281,325,1,,,6314c1e76c3f71e2127f1976,6437730663a65dcf51a417db,04-12-2023_20h14.35.583,PRaM,2021.2.3,Linux x86_64,60.0276127,61b8f3437b89212fae0dfade
1,3.7094,space,1.9348,0,282,282,189,1,,,6314c1e76c3f71e2127f1976,6437730663a65dcf51a417db,04-12-2023_20h14.35.583,PRaM,2021.2.3,Linux x86_64,60.0276127,61b8f3437b89212fae0dfade
5,4.0557,space,2.283,0,283,283,116,1,,,6314c1e76c3f71e2127f1976,6437730663a65dcf51a417db,04-12-2023_20h14.35.583,PRaM,2021.2.3,Linux x86_64,60.0276127,61b8f3437b89212fae0dfade
5,2.7084,space,1.9182,0,284,284,165,1,,,6314c1e76c3f71e2127f1976,6437730663a65dcf51a417db,04-12-2023_20h14.35.583,PRaM,2021.2.3,Linux x86_64,60.0276127,61b8f3437b89212fae0dfade
,,space,1.3679,0,285,285,65,1,,,6314c1e76c3f71e2127f1976,6437730663a65dcf51a417db,04-12-2023_20h14.35.583,PRaM,2021.2.3,Linux x86_64,60.0276127,61b8f3437b89212fae0dfade
9,7.1119,space,5.4864,0,286,286,225,1,,,6314c1e76c3f71e2127f1976,6437730663a65dcf51a417db,04-12-2023_20h14.35.583,PRaM,2021.2.3,Linux x86_64,60.0276127,61b8f3437b89212fae0dfade
1,4.447,space,3.2861,0,287,287,220,1,,,6314c1e76c3f71e2127f1976,6437730663a65dcf51a417db,04-12-2023_20h14.35.583,PRaM,2021.2.3,Linux x86_64,60.0276127,61b8f3437b89212fae0dfade
5,4.5613,space,3.6718,0,288,288,202,1,,,6314c1e76c3f71e2127f1976,6437730663a65dcf51a417db,04-12-2023_20h14.35.583,PRaM,2021.2.3,Linux x86_64,60.0276127,61b8f3437b89212fae0dfade
5,1.7054,space,0.0606,0,289,289,200,1,,,6314c1e76c3f71e2127f1976,6437730663a65dcf51a417db,04-12-2023_20h14.35.583,PRaM,2021.2.3,Linux x86_64,60.0276127,61b8f3437b89212fae0dfade
7,3.7071,space,1.9846,0,290,290,222,1,,,6314c1e76c3f71e2127f1976,6437730663a65dcf51a417db,04-12-2023_20h14.35.583,PRaM,2021.2.3,Linux x86_64,60.0276127,61b8f3437b89212fae0dfade
5,3.3619,space,2.2362,0,291,291,270,1,,,6314c1e76c3f71e2127f1976,6437730663a65dcf51a417db,04-12-2023_20h14.35.583,PRaM,2021.2.3,Linux x86_64,60.0276127,61b8f3437b89212fae0dfade
5,23.618,space,22.6889,0,292,292,129,1,,,6314c1e76c3f71e2127f1976,6437730663a65dcf51a417db,04-12-2023_20h14.35.583,PRaM,2021.2.3,Linux x86_64,60.0276127,61b8f3437b89212fae0dfade
2,4.0828,space,2.2853,0,293,293,145,1,,,6314c1e76c3f71e2127f1976,6437730663a65dcf51a417db,04-12-2023_20h14.35.583,PRaM,2021.2.3,Linux x86_64,60.0276127,61b8f3437b89212fae0dfade
7,5.6146,space,3.8737,0,294,294,60,1,,,6314c1e76c3f71e2127f1976,6437730663a65dcf51a417db,04-12-2023_20h14.35.583,PRaM,2021.2.3,Linux x86_64,60.0276127,61b8f3437b89212fae0dfade
6,7.6537,space,5.8345,0,295,295,105,1,,,6314c1e76c3f71e2127f1976,6437730663a65dcf51a417db,04-12-2023_20h14.35.583,PRaM,2021.2.3,Linux x86_64,60.0276127,61b8f3437b89212fae0dfade
2,3.7609,space,1.9031,0,296,296,315,1,,,6314c1e76c3f71e2127f1976,6437730663a65dcf51a417db,04-12-2023_20h14.35.583,PRaM,2021.2.3,Linux x86_64,60.0276127,61b8f3437b89212fae0dfade
1,4.5635,space,2.5867,0,297,297,254,1,,,6314c1e76c3f71e2127f1976,6437730663a65dcf51a417db,04-12-2023_20h14.35.583,PRaM,2021.2.3,Linux x86_64,60.0276127,61b8f3437b89212fae0dfade
9,11.2522,space,12.5807,0,298,298,72,1,,,6314c1e76c3f71e2127f1976,6437730663a65dcf51a417db,04-12-2023_20h14.35.583,PRaM,2021.2.3,Linux x86_64,60.0276127,61b8f3437b89212fae0dfade
9,6.4845,space,5.0183,0,299,299,112,1,,,6314c1e76c3f71e2127f1976,6437730663a65dcf51a417db,04-12-2023_20h14.35.583,PRaM,2021.2.3,Linux x86_64,60.0276127,61b8f3437b89212fae0dfade
7,6.4296,space,4.7441,0,300,300,291,1,,,6314c1e76c3f71e2127f1976,6437730663a65dcf51a417db,04-12-2023_20h14.35.583,PRaM,2021.2.3,Linux x86_64,60.0276127,61b8f3437b89212fae0dfade
6,5.2357,space,3.8044,0,301,301,0,1,,,6314c1e76c3f71e2127f1976,6437730663a65dcf51a417db,04-12-2023_20h14.35.583,PRaM,2021.2.3,Linux x86_64,60.0276127,61b8f3437b89212fae0dfade
6,5.9723,space,4.2833,0,302,302,298,1,,,6314c1e76c3f71e2127f1976,6437730663a65dcf51a417db,04-12-2023_20h14.35.583,PRaM,2021.2.3,Linux x86_64,60.0276127,61b8f3437b89212fae0dfade
1,2.7925,space,1.0906,0,303,303,312,1,,,6314c1e76c3f71e2127f1976,6437730663a65dcf51a417db,04-12-2023_20h14.35.583,PRaM,2021.2.3,Linux x86_64,60.0276127,61b8f3437b89212fae0dfade
4,4.3172,space,2.9664,0,304,304,360,1,,,6314c1e76c3f71e2127f1976,6437730663a65dcf51a417db,04-12-2023_20h14.35.583,PRaM,2021.2.3,Linux x86_64,60.0276127,61b8f3437b89212fae0dfade
5,7.2866,space,6.2178,0,305,305,176,1,,,6314c1e76c3f71e2127f1976,6437730663a65dcf51a417db,04-12-2023_20h14.35.583,PRaM,2021.2.3,Linux x86_64,60.0276127,61b8f3437b89212fae0dfade
5,2.4744,space,0.7197,0,306,306,171,1,,,6314c1e76c3f71e2127f1976,6437730663a65dcf51a417db,04-12-2023_20h14.35.583,PRaM,2021.2.3,Linux x86_64,60.0276127,61b8f3437b89212fae0dfade
5,33.6647,space,31.989,0,307,307,233,1,,,6314c1e76c3f71e2127f1976,6437730663a65dcf51a417db,04-12-2023_20h14.35.583,PRaM,2021.2.3,Linux x86_64,60.0276127,61b8f3437b89212fae0dfade
5,2.4638,space,0.6202,0,308,308,106,1,,,6314c1e76c3f71e2127f1976,6437730663a65dcf51a417db,04-12-2023_20h14.35.583,PRaM,2021.2.3,Linux x86_64,60.0276127,61b8f3437b89212fae0dfade
6,4.6014,space,2.7673,0,309,309,51,1,,,6314c1e76c3f71e2127f1976,6437730663a65dcf51a417db,04-12-2023_20h14.35.583,PRaM,2021.2.3,Linux x86_64,60.0276127,61b8f3437b89212fae0dfade
2,3.5472,space,1.8821,0,310,310,266,1,,,6314c1e76c3f71e2127f1976,6437730663a65dcf51a417db,04-12-2023_20h14.35.583,PRaM,2021.2.3,Linux x86_64,60.0276127,61b8f3437b89212fae0dfade
6,5.4816,space,3.7816,0,311,311,355,1,,,6314c1e76c3f71e2127f1976,6437730663a65dcf51a417db,04-12-2023_20h14.35.583,PRaM,2021.2.3,Linux x86_64,60.0276127,61b8f3437b89212fae0dfade
5,4.8585,space,2.9707,0,312,312,32,1,,,6314c1e76c3f71e2127f1976,6437730663a65dcf51a417db,04-12-2023_20h14.35.583,PRaM,2021.2.3,Linux x86_64,60.0276127,61b8f3437b89212fae0dfade
9,4.9651,space,3.218,0,313,313,267,1,,,6314c1e76c3f71e2127f1976,6437730663a65dcf51a417db,04-12-2023_20h14.35.583,PRaM,2021.2.3,Linux x86_64,60.0276127,61b8f3437b89212fae0dfade
8,4.2173,space,2.3342,0,314,314,221,1,,,6314c1e76c3f71e2127f1976,6437730663a65dcf51a417db,04-12-2023_20h14.35.583,PRaM,2021.2.3,Linux x86_64,60.0276127,61b8f3437b89212fae0dfade
2,5.5073,space,3.6512,0,315,315,59,1,,,6314c1e76c3f71e2127f1976,6437730663a65dcf51a417db,04-12-2023_20h14.35.583,PRaM,2021.2.3,Linux x86_64,60.0276127,61b8f3437b89212fae0dfade
1,3.4661,space,5.1373,0,316,316,296,1,,,6314c1e76c3f71e2127f1976,6437730663a65dcf51a417db,04-12-2023_20h14.35.583,PRaM,2021.2.3,Linux x86_64,60.0276127,61b8f3437b89212fae0dfade
2,13.6028,space,12.2622,0,317,317,128,1,,,6314c1e76c3f71e2127f1976,6437730663a65dcf51a417db,04-12-2023_20h14.35.583,PRaM,2021.2.3,Linux x86_64,60.0276127,61b8f3437b89212fae0dfade
5,3.9577,space,2.3515,0,318,318,373,1,,,6314c1e76c3f71e2127f1976,6437730663a65dcf51a417db,04-12-2023_20h14.35.583,PRaM,2021.2.3,Linux x86_64,60.0276127,61b8f3437b89212fae0dfade
9,5.5065,space,3.6857,0,319,319,336,1,,,6314c1e76c3f71e2127f1976,6437730663a65dcf51a417db,04-12-2023_20h14.35.583,PRaM,2021.2.3,Linux x86_64,60.0276127,61b8f3437b89212fae0dfade
9,2.3781,space,1.0173,0,320,320,302,1,,,6314c1e76c3f71e2127f1976,6437730663a65dcf51a417db,04-12-2023_20h14.35.583,PRaM,2021.2.3,Linux x86_64,60.0276127,61b8f3437b89212fae0dfade
5,3.8236,space,2.2346,0,321,321,146,1,,,6314c1e76c3f71e2127f1976,6437730663a65dcf51a417db,04-12-2023_20h14.35.583,PRaM,2021.2.3,Linux x86_64,60.0276127,61b8f3437b89212fae0dfade
5,4.3736,space,2.6655,0,322,322,55,1,,,6314c1e76c3f71e2127f1976,6437730663a65dcf51a417db,04-12-2023_20h14.35.583,PRaM,2021.2.3,Linux x86_64,60.0276127,61b8f3437b89212fae0dfade
1,3.4337,space,1.705,0,323,323,11,1,,,6314c1e76c3f71e2127f1976,6437730663a65dcf51a417db,04-12-2023_20h14.35.583,PRaM,2021.2.3,Linux x86_64,60.0276127,61b8f3437b89212fae0dfade
9,4.0002,space,2.3532,0,324,324,357,1,,,6314c1e76c3f71e2127f1976,6437730663a65dcf51a417db,04-12-2023_20h14.35.583,PRaM,2021.2.3,Linux x86_64,60.0276127,61b8f3437b89212fae0dfade
1,3.2527,space,1.5131,0,325,325,193,1,,,6314c1e76c3f71e2127f1976,6437730663a65dcf51a417db,04-12-2023_20h14.35.583,PRaM,2021.2.3,Linux x86_64,60.0276127,61b8f3437b89212fae0dfade
5,7.3333,space,5.57,0,326,326,56,1,,,6314c1e76c3f71e2127f1976,6437730663a65dcf51a417db,04-12-2023_20h14.35.583,PRaM,2021.2.3,Linux x86_64,60.0276127,61b8f3437b89212fae0dfade
5,2.2447,space,0.4209,0,327,327,299,1,,,6314c1e76c3f71e2127f1976,6437730663a65dcf51a417db,04-12-2023_20h14.35.583,PRaM,2021.2.3,Linux x86_64,60.0276127,61b8f3437b89212fae0dfade
1,3.042,space,1.2262,0,328,328,54,1,,,6314c1e76c3f71e2127f1976,6437730663a65dcf51a417db,04-12-2023_20h14.35.583,PRaM,2021.2.3,Linux x86_64,60.0276127,61b8f3437b89212fae0dfade
8,8.3961,space,6.7472,0,329,329,186,1,,,6314c1e76c3f71e2127f1976,6437730663a65dcf51a417db,04-12-2023_20h14.35.583,PRaM,2021.2.3,Linux x86_64,60.0276127,61b8f3437b89212fae0dfade
8,2.3899,space,0.7927,0,330,330,226,1,,,6314c1e76c3f71e2127f1976,6437730663a65dcf51a417db,04-12-2023_20h14.35.583,PRaM,2021.2.3,Linux x86_64,60.0276127,61b8f3437b89212fae0dfade
9,4.2907,space,2.7134,0,331,331,264,1,,,6314c1e76c3f71e2127f1976,6437730663a65dcf51a417db,04-12-2023_20h14.35.583,PRaM,2021.2.3,Linux x86_64,60.0276127,61b8f3437b89212fae0dfade
9,4.0162,space,2.4018,0,332,332,364,1,,,6314c1e76c3f71e2127f1976,6437730663a65dcf51a417db,04-12-2023_20h14.35.583,PRaM,2021.2.3,Linux x86_64,60.0276127,61b8f3437b89212fae0dfade
5,4.2774,space,2.5685,0,333,333,209,1,,,6314c1e76c3f71e2127f1976,6437730663a65dcf51a417db,04-12-2023_20h14.35.583,PRaM,2021.2.3,Linux x86_64,60.0276127,61b8f3437b89212fae0dfade
5,3.3476,space,2.1546,0,334,334,183,1,,,6314c1e76c3f71e2127f1976,6437730663a65dcf51a417db,04-12-2023_20h14.35.583,PRaM,2021.2.3,Linux x86_64,60.0276127,61b8f3437b89212fae0dfade
1,3.238,space,1.7009,0,335,335,245,1,,,6314c1e76c3f71e2127f1976,6437730663a65dcf51a417db,04-12-2023_20h14.35.583,PRaM,2021.2.3,Linux x86_64,60.0276127,61b8f3437b89212fae0dfade
5,2.2394,space,0.3906,0,336,336,101,1,,,6314c1e76c3f71e2127f1976,6437730663a65dcf51a417db,04-12-2023_20h14.35.583,PRaM,2021.2.3,Linux x86_64,60.0276127,61b8f3437b89212fae0dfade
5,2.9073,space,2.953,0,337,337,160,1,,,6314c1e76c3f71e2127f1976,6437730663a65dcf51a417db,04-12-2023_20h14.35.583,PRaM,2021.2.3,Linux x86_64,60.0276127,61b8f3437b89212fae0dfade
5,4.4707,space,2.8034,0,338,338,339,1,,,6314c1e76c3f71e2127f1976,6437730663a65dcf51a417db,04-12-2023_20h14.35.583,PRaM,2021.2.3,Linux x86_64,60.0276127,61b8f3437b89212fae0dfade
6,10.636,space,8.8827,0,339,339,348,1,,,6314c1e76c3f71e2127f1976,6437730663a65dcf51a417db,04-12-2023_20h14.35.583,PRaM,2021.2.3,Linux x86_64,60.0276127,61b8f3437b89212fae0dfade
1,5.7574,space,3.8879,0,340,340,227,1,,,6314c1e76c3f71e2127f1976,6437730663a65dcf51a417db,04-12-2023_20h14.35.583,PRaM,2021.2.3,Linux x86_64,60.0276127,61b8f3437b89212fae0dfade
9,4.407,space,2.7832,0,341,341,219,1,,,6314c1e76c3f71e2127f1976,6437730663a65dcf51a417db,04-12-2023_20h14.35.583,PRaM,2021.2.3,Linux x86_64,60.0276127,61b8f3437b89212fae0dfade
5,4.9098,space,3.4863,0,342,342,19,1,,,6314c1e76c3f71e2127f1976,6437730663a65dcf51a417db,04-12-2023_20h14.35.583,PRaM,2021.2.3,Linux x86_64,60.0276127,61b8f3437b89212fae0dfade
5,3.8911,space,2.1515,0,343,343,177,1,,,6314c1e76c3f71e2127f1976,6437730663a65dcf51a417db,04-12-2023_20h14.35.583,PRaM,2021.2.3,Linux x86_64,60.0276127,61b8f3437b89212fae0dfade
9,3.6151,space,2.1189,0,344,344,252,1,,,6314c1e76c3f71e2127f1976,6437730663a65dcf51a417db,04-12-2023_20h14.35.583,PRaM,2021.2.3,Linux x86_64,60.0276127,61b8f3437b89212fae0dfade
9,1.2304,space,1.2517,0,345,345,96,1,,,6314c1e76c3f71e2127f1976,6437730663a65dcf51a417db,04-12-2023_20h14.35.583,PRaM,2021.2.3,Linux x86_64,60.0276127,61b8f3437b89212fae0dfade
2,9.7503,space,8.4001,0,346,346,185,1,,,6314c1e76c3f71e2127f1976,6437730663a65dcf51a417db,04-12-2023_20h14.35.583,PRaM,2021.2.3,Linux x86_64,60.0276127,61b8f3437b89212fae0dfade
2,6.0062,space,4.4195,0,347,347,44,1,,,6314c1e76c3f71e2127f1976,6437730663a65dcf51a417db,04-12-2023_20h14.35.583,PRaM,2021.2.3,Linux x86_64,60.0276127,61b8f3437b89212fae0dfade
4,3.1037,space,2.1693,0,348,348,69,1,,,6314c1e76c3f71e2127f1976,6437730663a65dcf51a417db,04-12-2023_20h14.35.583,PRaM,2021.2.3,Linux x86_64,60.0276127,61b8f3437b89212fae0dfade
6,5.3133,space,3.6193,0,349,349,166,1,,,6314c1e76c3f71e2127f1976,6437730663a65dcf51a417db,04-12-2023_20h14.35.583,PRaM,2021.2.3,Linux x86_64,60.0276127,61b8f3437b89212fae0dfade
2,4.0696,space,2.3162,0,350,350,316,1,,,6314c1e76c3f71e2127f1976,6437730663a65dcf51a417db,04-12-2023_20h14.35.583,PRaM,2021.2.3,Linux x86_64,60.0276127,61b8f3437b89212fae0dfade
5,5.4933,space,3.8021,0,351,351,240,1,,,6314c1e76c3f71e2127f1976,6437730663a65dcf51a417db,04-12-2023_20h14.35.583,PRaM,2021.2.3,Linux x86_64,60.0276127,61b8f3437b89212fae0dfade
2,3.516,space,1.7853,0,352,352,49,1,,,6314c1e76c3f71e2127f1976,6437730663a65dcf51a417db,04-12-2023_20h14.35.583,PRaM,2021.2.3,Linux x86_64,60.0276127,61b8f3437b89212fae0dfade
2,6.0358,space,4.5324,0,353,353,70,1,,,6314c1e76c3f71e2127f1976,6437730663a65dcf51a417db,04-12-2023_20h14.35.583,PRaM,2021.2.3,Linux x86_64,60.0276127,61b8f3437b89212fae0dfade
8,2.6469,space,0.7991,0,354,354,42,1,,,6314c1e76c3f71e2127f1976,6437730663a65dcf51a417db,04-12-2023_20h14.35.583,PRaM,2021.2.3,Linux x86_64,60.0276127,61b8f3437b89212fae0dfade
5,3.3058,space,1.6812,0,355,355,251,1,,,6314c1e76c3f71e2127f1976,6437730663a65dcf51a417db,04-12-2023_20h14.35.583,PRaM,2021.2.3,Linux x86_64,60.0276127,61b8f3437b89212fae0dfade
2,3.9001,space,2.2668,0,356,356,6,1,,,6314c1e76c3f71e2127f1976,6437730663a65dcf51a417db,04-12-2023_20h14.35.583,PRaM,2021.2.3,Linux x86_64,60.0276127,61b8f3437b89212fae0dfade
6,4.8691,space,3.301,0,357,357,310,1,,,6314c1e76c3f71e2127f1976,6437730663a65dcf51a417db,04-12-2023_20h14.35.583,PRaM,2021.2.3,Linux x86_64,60.0276127,61b8f3437b89212fae0dfade
8,3.6139,space,1.8528,0,358,358,238,1,,,6314c1e76c3f71e2127f1976,6437730663a65dcf51a417db,04-12-2023_20h14.35.583,PRaM,2021.2.3,Linux x86_64,60.0276127,61b8f3437b89212fae0dfade
5,3.1602,space,1.6033,0,359,359,77,1,,,6314c1e76c3f71e2127f1976,6437730663a65dcf51a417db,04-12-2023_20h14.35.583,PRaM,2021.2.3,Linux x86_64,60.0276127,61b8f3437b89212fae0dfade
9,7.0759,space,6.0035,0,360,360,102,1,,,6314c1e76c3f71e2127f1976,6437730663a65dcf51a417db,04-12-2023_20h14.35.583,PRaM,2021.2.3,Linux x86_64,60.0276127,61b8f3437b89212fae0dfade
8,10.4474,space,9.8635,0,361,361,33,1,,,6314c1e76c3f71e2127f1976,6437730663a65dcf51a417db,04-12-2023_20h14.35.583,PRaM,2021.2.3,Linux x86_64,60.0276127,61b8f3437b89212fae0dfade
5,3.0078,space,1.6354,0,362,362,235,1,,,6314c1e76c3f71e2127f1976,6437730663a65dcf51a417db,04-12-2023_20h14.35.583,PRaM,2021.2.3,Linux x86_64,60.0276127,61b8f3437b89212fae0dfade
5,2.5582,space,0.7672,0,363,363,367,1,,,6314c1e76c3f71e2127f1976,6437730663a65dcf51a417db,04-12-2023_20h14.35.583,PRaM,2021.2.3,Linux x86_64,60.0276127,61b8f3437b89212fae0dfade
5,2.9288,space,1.6361,0,364,364,118,1,,,6314c1e76c3f71e2127f1976,6437730663a65dcf51a417db,04-12-2023_20h14.35.583,PRaM,2021.2.3,Linux x86_64,60.0276127,61b8f3437b89212fae0dfade
1,4.9875,space,3.3362,0,365,365,9,1,,,6314c1e76c3f71e2127f1976,6437730663a65dcf51a417db,04-12-2023_20h14.35.583,PRaM,2021.2.3,Linux x86_64,60.0276127,61b8f3437b89212fae0dfade
5,4.6726,space,2.9658,0,366,366,256,1,,,6314c1e76c3f71e2127f1976,6437730663a65dcf51a417db,04-12-2023_20h14.35.583,PRaM,2021.2.3,Linux x86_64,60.0276127,61b8f3437b89212fae0dfade
1,4.6306,space,2.9676,0,367,367,2,1,,,6314c1e76c3f71e2127f1976,6437730663a65dcf51a417db,04-12-2023_20h14.35.583,PRaM,2021.2.3,Linux x86_64,60.0276127,61b8f3437b89212fae0dfade
1,2.2418,space,0.5886,0,368,368,27,1,,,6314c1e76c3f71e2127f1976,6437730663a65dcf51a417db,04-12-2023_20h14.35.583,PRaM,2021.2.3,Linux x86_64,60.0276127,61b8f3437b89212fae0dfade
1,1.8948,space,0.1961,0,369,369,195,1,,,6314c1e76c3f71e2127f1976,6437730663a65dcf51a417db,04-12-2023_20h14.35.583,PRaM,2021.2.3,Linux x86_64,60.0276127,61b8f3437b89212fae0dfade
5,3.0004,space,1.2686,0,370,370,377,1,,,6314c1e76c3f71e2127f1976,6437730663a65dcf51a417db,04-12-2023_20h14.35.583,PRaM,2021.2.3,Linux x86_64,60.0276127,61b8f3437b89212fae0dfade
3,5.7131,space,4.8822,0,371,371,158,1,,,6314c1e76c3f71e2127f1976,6437730663a65dcf51a417db,04-12-2023_20h14.35.583,PRaM,2021.2.3,Linux x86_64,60.0276127,61b8f3437b89212fae0dfade
9,7.7893,space,6.5789,0,372,372,319,1,,,6314c1e76c3f71e2127f1976,6437730663a65dcf51a417db,04-12-2023_20h14.35.583,PRaM,2021.2.3,Linux x86_64,60.0276127,61b8f3437b89212fae0dfade
5,3.9493,space,2.2363,0,373,373,242,1,,,6314c1e76c3f71e2127f1976,6437730663a65dcf51a417db,04-12-2023_20h14.35.583,PRaM,2021.2.3,Linux x86_64,60.0276127,61b8f3437b89212fae0dfade
7,2.6596,space,1.417,0,374,374,53,1,,,6314c1e76c3f71e2127f1976,6437730663a65dcf51a417db,04-12-2023_20h14.35.583,PRaM,2021.2.3,Linux x86_64,60.0276127,61b8f3437b89212fae0dfade
7,6.5166,space,5.2511,0,375,375,150,1,,,6314c1e76c3f71e2127f1976,6437730663a65dcf51a417db,04-12-2023_20h14.35.583,PRaM,2021.2.3,Linux x86_64,60.0276127,61b8f3437b89212fae0dfade
1,3.251,space,1.518,0,376,376,295,1,,,6314c1e76c3f71e2127f1976,6437730663a65dcf51a417db,04-12-2023_20h14.35.583,PRaM,2021.2.3,Linux x86_64,60.0276127,61b8f3437b89212fae0dfade
2,3.3006,space,2.1017,0,377,377,92,1,,,6314c1e76c3f71e2127f1976,6437730663a65dcf51a417db,04-12-2023_20h14.35.583,PRaM,2021.2.3,Linux x86_64,60.0276127,61b8f3437b89212fae0dfade
