Rating.response,Rating.rt,EndTrial.keys,EndTrial.rt,trials.thisRepN,trials.thisTrialN,trials.thisN,trials.thisIndex,trials.ran,Pos1,Pos2,participant,session,date,expName,psychopyVersion,OS,frameRate,study_id
2,4.1468,space,4.7517,0,0,0,217,1,,,6332274d72eff2df47171a78,6437736300d735c94b9cf4f2,2023-04-12_23h14.17.024,PRaM,2021.2.3,Win32,60.10699044,61b8f3437b89212fae0dfade
4,6.676,space,5.2896,0,1,1,267,1,,,6332274d72eff2df47171a78,6437736300d735c94b9cf4f2,2023-04-12_23h14.17.024,PRaM,2021.2.3,Win32,60.10699044,61b8f3437b89212fae0dfade
3,3.5609,space,2.119,0,2,2,21,1,,,6332274d72eff2df47171a78,6437736300d735c94b9cf4f2,2023-04-12_23h14.17.024,PRaM,2021.2.3,Win32,60.10699044,61b8f3437b89212fae0dfade
3,4.479,space,3.12,0,3,3,311,1,,,6332274d72eff2df47171a78,6437736300d735c94b9cf4f2,2023-04-12_23h14.17.024,PRaM,2021.2.3,Win32,60.10699044,61b8f3437b89212fae0dfade
4,5.0931,space,4.0282,0,4,4,146,1,,,6332274d72eff2df47171a78,6437736300d735c94b9cf4f2,2023-04-12_23h14.17.024,PRaM,2021.2.3,Win32,60.10699044,61b8f3437b89212fae0dfade
3,2.4166,space,1.917,0,5,5,11,1,,,6332274d72eff2df47171a78,6437736300d735c94b9cf4f2,2023-04-12_23h14.17.024,PRaM,2021.2.3,Win32,60.10699044,61b8f3437b89212fae0dfade
5,3.4163,space,1.9418,0,6,6,93,1,,,6332274d72eff2df47171a78,6437736300d735c94b9cf4f2,2023-04-12_23h14.17.024,PRaM,2021.2.3,Win32,60.10699044,61b8f3437b89212fae0dfade
1,4.9151,space,3.1724,0,7,7,157,1,,,6332274d72eff2df47171a78,6437736300d735c94b9cf4f2,2023-04-12_23h14.17.024,PRaM,2021.2.3,Win32,60.10699044,61b8f3437b89212fae0dfade
1,2.9704,space,1.5847,0,8,8,338,1,,,6332274d72eff2df47171a78,6437736300d735c94b9cf4f2,2023-04-12_23h14.17.024,PRaM,2021.2.3,Win32,60.10699044,61b8f3437b89212fae0dfade
3,9.6178,space,8.1173,0,9,9,111,1,,,6332274d72eff2df47171a78,6437736300d735c94b9cf4f2,2023-04-12_23h14.17.024,PRaM,2021.2.3,Win32,60.10699044,61b8f3437b89212fae0dfade
1,2.582,space,1.0734,0,10,10,295,1,,,6332274d72eff2df47171a78,6437736300d735c94b9cf4f2,2023-04-12_23h14.17.024,PRaM,2021.2.3,Win32,60.10699044,61b8f3437b89212fae0dfade
2,6.2351,space,4.7724,0,11,11,184,1,,,6332274d72eff2df47171a78,6437736300d735c94b9cf4f2,2023-04-12_23h14.17.024,PRaM,2021.2.3,Win32,60.10699044,61b8f3437b89212fae0dfade
3,4.4045,space,3.366,0,12,12,55,1,,,6332274d72eff2df47171a78,6437736300d735c94b9cf4f2,2023-04-12_23h14.17.024,PRaM,2021.2.3,Win32,60.10699044,61b8f3437b89212fae0dfade
3,3.1104,space,1.5537,0,13,13,371,1,,,6332274d72eff2df47171a78,6437736300d735c94b9cf4f2,2023-04-12_23h14.17.024,PRaM,2021.2.3,Win32,60.10699044,61b8f3437b89212fae0dfade
4,3.832,space,2.3074,0,14,14,7,1,,,6332274d72eff2df47171a78,6437736300d735c94b9cf4f2,2023-04-12_23h14.17.024,PRaM,2021.2.3,Win32,60.10699044,61b8f3437b89212fae0dfade
1,2.6003,space,1.4886,0,15,15,354,1,,,6332274d72eff2df47171a78,6437736300d735c94b9cf4f2,2023-04-12_23h14.17.024,PRaM,2021.2.3,Win32,60.10699044,61b8f3437b89212fae0dfade
4,7.1375,space,11.6206,0,16,16,246,1,,,6332274d72eff2df47171a78,6437736300d735c94b9cf4f2,2023-04-12_23h14.17.024,PRaM,2021.2.3,Win32,60.10699044,61b8f3437b89212fae0dfade
8,3.5802,space,2.0949,0,17,17,118,1,,,6332274d72eff2df47171a78,6437736300d735c94b9cf4f2,2023-04-12_23h14.17.024,PRaM,2021.2.3,Win32,60.10699044,61b8f3437b89212fae0dfade
6,3.0644,space,1.3295,0,18,18,279,1,,,6332274d72eff2df47171a78,6437736300d735c94b9cf4f2,2023-04-12_23h14.17.024,PRaM,2021.2.3,Win32,60.10699044,61b8f3437b89212fae0dfade
3,3.1802,space,1.6635,0,19,19,250,1,,,6332274d72eff2df47171a78,6437736300d735c94b9cf4f2,2023-04-12_23h14.17.024,PRaM,2021.2.3,Win32,60.10699044,61b8f3437b89212fae0dfade
2,2.4168,space,1.0605,0,20,20,263,1,,,6332274d72eff2df47171a78,6437736300d735c94b9cf4f2,2023-04-12_23h14.17.024,PRaM,2021.2.3,Win32,60.10699044,61b8f3437b89212fae0dfade
3,2.2094,space,0.7547,0,21,21,314,1,,,6332274d72eff2df47171a78,6437736300d735c94b9cf4f2,2023-04-12_23h14.17.024,PRaM,2021.2.3,Win32,60.10699044,61b8f3437b89212fae0dfade
2,2.6629,space,1.0742,0,22,22,367,1,,,6332274d72eff2df47171a78,6437736300d735c94b9cf4f2,2023-04-12_23h14.17.024,PRaM,2021.2.3,Win32,60.10699044,61b8f3437b89212fae0dfade
5,5.0684,space,3.4389,0,23,23,280,1,,,6332274d72eff2df47171a78,6437736300d735c94b9cf4f2,2023-04-12_23h14.17.024,PRaM,2021.2.3,Win32,60.10699044,61b8f3437b89212fae0dfade
4,5.8344,space,3.9847,0,24,24,81,1,,,6332274d72eff2df47171a78,6437736300d735c94b9cf4f2,2023-04-12_23h14.17.024,PRaM,2021.2.3,Win32,60.10699044,61b8f3437b89212fae0dfade
4,3.2802,space,1.7547,0,25,25,51,1,,,6332274d72eff2df47171a78,6437736300d735c94b9cf4f2,2023-04-12_23h14.17.024,PRaM,2021.2.3,Win32,60.10699044,61b8f3437b89212fae0dfade
4,8.0497,space,6.332,0,26,26,219,1,,,6332274d72eff2df47171a78,6437736300d735c94b9cf4f2,2023-04-12_23h14.17.024,PRaM,2021.2.3,Win32,60.10699044,61b8f3437b89212fae0dfade
3,2.7912,space,1.244,0,27,27,19,1,,,6332274d72eff2df47171a78,6437736300d735c94b9cf4f2,2023-04-12_23h14.17.024,PRaM,2021.2.3,Win32,60.10699044,61b8f3437b89212fae0dfade
1,2.3781,space,0.8593,0,28,28,2,1,,,6332274d72eff2df47171a78,6437736300d735c94b9cf4f2,2023-04-12_23h14.17.024,PRaM,2021.2.3,Win32,60.10699044,61b8f3437b89212fae0dfade
1,4.0842,space,2.5927,0,29,29,50,1,,,6332274d72eff2df47171a78,6437736300d735c94b9cf4f2,2023-04-12_23h14.17.024,PRaM,2021.2.3,Win32,60.10699044,61b8f3437b89212fae0dfade
5,5.3345,space,3.885,0,30,30,226,1,,,6332274d72eff2df47171a78,6437736300d735c94b9cf4f2,2023-04-12_23h14.17.024,PRaM,2021.2.3,Win32,60.10699044,61b8f3437b89212fae0dfade
3,2.6301,space,1.0263,0,31,31,181,1,,,6332274d72eff2df47171a78,6437736300d735c94b9cf4f2,2023-04-12_23h14.17.024,PRaM,2021.2.3,Win32,60.10699044,61b8f3437b89212fae0dfade
3,6.9191,space,5.2843,0,32,32,96,1,,,6332274d72eff2df47171a78,6437736300d735c94b9cf4f2,2023-04-12_23h14.17.024,PRaM,2021.2.3,Win32,60.10699044,61b8f3437b89212fae0dfade
2,4.4307,space,2.762,0,33,33,375,1,,,6332274d72eff2df47171a78,6437736300d735c94b9cf4f2,2023-04-12_23h14.17.024,PRaM,2021.2.3,Win32,60.10699044,61b8f3437b89212fae0dfade
1,1.948,space,0.4146,0,34,34,23,1,,,6332274d72eff2df47171a78,6437736300d735c94b9cf4f2,2023-04-12_23h14.17.024,PRaM,2021.2.3,Win32,60.10699044,61b8f3437b89212fae0dfade
1,2.1059,space,0.5704,0,35,35,203,1,,,6332274d72eff2df47171a78,6437736300d735c94b9cf4f2,2023-04-12_23h14.17.024,PRaM,2021.2.3,Win32,60.10699044,61b8f3437b89212fae0dfade
2,3.5137,space,2.053,0,36,36,155,1,,,6332274d72eff2df47171a78,6437736300d735c94b9cf4f2,2023-04-12_23h14.17.024,PRaM,2021.2.3,Win32,60.10699044,61b8f3437b89212fae0dfade
5,6.5037,space,7.2287,0,37,37,37,1,,,6332274d72eff2df47171a78,6437736300d735c94b9cf4f2,2023-04-12_23h14.17.024,PRaM,2021.2.3,Win32,60.10699044,61b8f3437b89212fae0dfade
8,4.0009,space,2.7203,0,38,38,320,1,,,6332274d72eff2df47171a78,6437736300d735c94b9cf4f2,2023-04-12_23h14.17.024,PRaM,2021.2.3,Win32,60.10699044,61b8f3437b89212fae0dfade
4,2.8475,space,1.34,0,39,39,128,1,,,6332274d72eff2df47171a78,6437736300d735c94b9cf4f2,2023-04-12_23h14.17.024,PRaM,2021.2.3,Win32,60.10699044,61b8f3437b89212fae0dfade
1,2.5087,space,0.9799,0,40,40,247,1,,,6332274d72eff2df47171a78,6437736300d735c94b9cf4f2,2023-04-12_23h14.17.024,PRaM,2021.2.3,Win32,60.10699044,61b8f3437b89212fae0dfade
3,6.2305,space,4.8234,0,41,41,164,1,,,6332274d72eff2df47171a78,6437736300d735c94b9cf4f2,2023-04-12_23h14.17.024,PRaM,2021.2.3,Win32,60.10699044,61b8f3437b89212fae0dfade
,,space,0.4784,0,42,42,195,1,,,6332274d72eff2df47171a78,6437736300d735c94b9cf4f2,2023-04-12_23h14.17.024,PRaM,2021.2.3,Win32,60.10699044,61b8f3437b89212fae0dfade
4,12.2011,space,10.9173,0,43,43,80,1,,,6332274d72eff2df47171a78,6437736300d735c94b9cf4f2,2023-04-12_23h14.17.024,PRaM,2021.2.3,Win32,60.10699044,61b8f3437b89212fae0dfade
2,3.2655,space,1.765,0,44,44,163,1,,,6332274d72eff2df47171a78,6437736300d735c94b9cf4f2,2023-04-12_23h14.17.024,PRaM,2021.2.3,Win32,60.10699044,61b8f3437b89212fae0dfade
6,6.6962,space,5.2165,0,45,45,296,1,,,6332274d72eff2df47171a78,6437736300d735c94b9cf4f2,2023-04-12_23h14.17.024,PRaM,2021.2.3,Win32,60.10699044,61b8f3437b89212fae0dfade
1,2.4608,space,0.9069,0,46,46,95,1,,,6332274d72eff2df47171a78,6437736300d735c94b9cf4f2,2023-04-12_23h14.17.024,PRaM,2021.2.3,Win32,60.10699044,61b8f3437b89212fae0dfade
1,2.1652,space,0.7772,0,47,47,318,1,,,6332274d72eff2df47171a78,6437736300d735c94b9cf4f2,2023-04-12_23h14.17.024,PRaM,2021.2.3,Win32,60.10699044,61b8f3437b89212fae0dfade
6,3.3381,space,1.8664,0,48,48,75,1,,,6332274d72eff2df47171a78,6437736300d735c94b9cf4f2,2023-04-12_23h14.17.024,PRaM,2021.2.3,Win32,60.10699044,61b8f3437b89212fae0dfade
2,2.4304,space,0.9315,0,49,49,343,1,,,6332274d72eff2df47171a78,6437736300d735c94b9cf4f2,2023-04-12_23h14.17.024,PRaM,2021.2.3,Win32,60.10699044,61b8f3437b89212fae0dfade
4,4.5963,space,3.1147,0,50,50,260,1,,,6332274d72eff2df47171a78,6437736300d735c94b9cf4f2,2023-04-12_23h14.17.024,PRaM,2021.2.3,Win32,60.10699044,61b8f3437b89212fae0dfade
1,3.1755,space,1.6901,0,51,51,121,1,,,6332274d72eff2df47171a78,6437736300d735c94b9cf4f2,2023-04-12_23h14.17.024,PRaM,2021.2.3,Win32,60.10699044,61b8f3437b89212fae0dfade
1,1.8672,space,0.5899,0,52,52,71,1,,,6332274d72eff2df47171a78,6437736300d735c94b9cf4f2,2023-04-12_23h14.17.024,PRaM,2021.2.3,Win32,60.10699044,61b8f3437b89212fae0dfade
2,2.7183,space,1.1252,0,53,53,90,1,,,6332274d72eff2df47171a78,6437736300d735c94b9cf4f2,2023-04-12_23h14.17.024,PRaM,2021.2.3,Win32,60.10699044,61b8f3437b89212fae0dfade
1,3.1315,space,2.0095,0,54,54,77,1,,,6332274d72eff2df47171a78,6437736300d735c94b9cf4f2,2023-04-12_23h14.17.024,PRaM,2021.2.3,Win32,60.10699044,61b8f3437b89212fae0dfade
1,2.823,space,1.1818,0,55,55,161,1,,,6332274d72eff2df47171a78,6437736300d735c94b9cf4f2,2023-04-12_23h14.17.024,PRaM,2021.2.3,Win32,60.10699044,61b8f3437b89212fae0dfade
3,4.4105,space,2.7937,0,56,56,89,1,,,6332274d72eff2df47171a78,6437736300d735c94b9cf4f2,2023-04-12_23h14.17.024,PRaM,2021.2.3,Win32,60.10699044,61b8f3437b89212fae0dfade
3,5.901,space,4.328,0,57,57,232,1,,,6332274d72eff2df47171a78,6437736300d735c94b9cf4f2,2023-04-12_23h14.17.024,PRaM,2021.2.3,Win32,60.10699044,61b8f3437b89212fae0dfade
3,3.236,space,1.6797,0,58,58,45,1,,,6332274d72eff2df47171a78,6437736300d735c94b9cf4f2,2023-04-12_23h14.17.024,PRaM,2021.2.3,Win32,60.10699044,61b8f3437b89212fae0dfade
2,3.6168,space,2.0664,0,59,59,47,1,,,6332274d72eff2df47171a78,6437736300d735c94b9cf4f2,2023-04-12_23h14.17.024,PRaM,2021.2.3,Win32,60.10699044,61b8f3437b89212fae0dfade
1,2.2155,space,0.5971,0,60,60,248,1,,,6332274d72eff2df47171a78,6437736300d735c94b9cf4f2,2023-04-12_23h14.17.024,PRaM,2021.2.3,Win32,60.10699044,61b8f3437b89212fae0dfade
1,1.7396,space,0.1422,0,61,61,160,1,,,6332274d72eff2df47171a78,6437736300d735c94b9cf4f2,2023-04-12_23h14.17.024,PRaM,2021.2.3,Win32,60.10699044,61b8f3437b89212fae0dfade
1,1.9139,space,0.1497,0,62,62,317,1,,,6332274d72eff2df47171a78,6437736300d735c94b9cf4f2,2023-04-12_23h14.17.024,PRaM,2021.2.3,Win32,60.10699044,61b8f3437b89212fae0dfade
1,1.6257,space,0.009,0,63,63,130,1,,,6332274d72eff2df47171a78,6437736300d735c94b9cf4f2,2023-04-12_23h14.17.024,PRaM,2021.2.3,Win32,60.10699044,61b8f3437b89212fae0dfade
2,2.9508,space,1.4773,0,64,64,35,1,,,6332274d72eff2df47171a78,6437736300d735c94b9cf4f2,2023-04-12_23h14.17.024,PRaM,2021.2.3,Win32,60.10699044,61b8f3437b89212fae0dfade
7,4.5034,space,2.965,0,65,65,85,1,,,6332274d72eff2df47171a78,6437736300d735c94b9cf4f2,2023-04-12_23h14.17.024,PRaM,2021.2.3,Win32,60.10699044,61b8f3437b89212fae0dfade
4,2.8387,space,1.2705,0,66,66,38,1,,,6332274d72eff2df47171a78,6437736300d735c94b9cf4f2,2023-04-12_23h14.17.024,PRaM,2021.2.3,Win32,60.10699044,61b8f3437b89212fae0dfade
3,2.1755,space,0.6216,0,67,67,28,1,,,6332274d72eff2df47171a78,6437736300d735c94b9cf4f2,2023-04-12_23h14.17.024,PRaM,2021.2.3,Win32,60.10699044,61b8f3437b89212fae0dfade
5,2.6555,space,1.0712,0,68,68,152,1,,,6332274d72eff2df47171a78,6437736300d735c94b9cf4f2,2023-04-12_23h14.17.024,PRaM,2021.2.3,Win32,60.10699044,61b8f3437b89212fae0dfade
1,4.5668,space,3.0019,0,69,69,332,1,,,6332274d72eff2df47171a78,6437736300d735c94b9cf4f2,2023-04-12_23h14.17.024,PRaM,2021.2.3,Win32,60.10699044,61b8f3437b89212fae0dfade
2,3.5092,space,1.9492,0,70,70,91,1,,,6332274d72eff2df47171a78,6437736300d735c94b9cf4f2,2023-04-12_23h14.17.024,PRaM,2021.2.3,Win32,60.10699044,61b8f3437b89212fae0dfade
3,4.2134,space,2.6372,0,71,71,145,1,,,6332274d72eff2df47171a78,6437736300d735c94b9cf4f2,2023-04-12_23h14.17.024,PRaM,2021.2.3,Win32,60.10699044,61b8f3437b89212fae0dfade
1,2.821,space,1.2551,0,72,72,292,1,,,6332274d72eff2df47171a78,6437736300d735c94b9cf4f2,2023-04-12_23h14.17.024,PRaM,2021.2.3,Win32,60.10699044,61b8f3437b89212fae0dfade
1,1.753,space,0.2376,0,73,73,27,1,,,6332274d72eff2df47171a78,6437736300d735c94b9cf4f2,2023-04-12_23h14.17.024,PRaM,2021.2.3,Win32,60.10699044,61b8f3437b89212fae0dfade
4,3.1121,space,1.5894,0,74,74,69,1,,,6332274d72eff2df47171a78,6437736300d735c94b9cf4f2,2023-04-12_23h14.17.024,PRaM,2021.2.3,Win32,60.10699044,61b8f3437b89212fae0dfade
2,4.3938,space,2.7808,0,75,75,341,1,,,6332274d72eff2df47171a78,6437736300d735c94b9cf4f2,2023-04-12_23h14.17.024,PRaM,2021.2.3,Win32,60.10699044,61b8f3437b89212fae0dfade
2,1.854,space,0.2326,0,76,76,340,1,,,6332274d72eff2df47171a78,6437736300d735c94b9cf4f2,2023-04-12_23h14.17.024,PRaM,2021.2.3,Win32,60.10699044,61b8f3437b89212fae0dfade
1,2.5184,space,1.061,0,77,77,70,1,,,6332274d72eff2df47171a78,6437736300d735c94b9cf4f2,2023-04-12_23h14.17.024,PRaM,2021.2.3,Win32,60.10699044,61b8f3437b89212fae0dfade
5,6.2726,space,5.6365,0,78,78,193,1,,,6332274d72eff2df47171a78,6437736300d735c94b9cf4f2,2023-04-12_23h14.17.024,PRaM,2021.2.3,Win32,60.10699044,61b8f3437b89212fae0dfade
1,3.4215,space,2.3472,0,79,79,67,1,,,6332274d72eff2df47171a78,6437736300d735c94b9cf4f2,2023-04-12_23h14.17.024,PRaM,2021.2.3,Win32,60.10699044,61b8f3437b89212fae0dfade
6,5.0589,space,3.7599,0,80,80,99,1,,,6332274d72eff2df47171a78,6437736300d735c94b9cf4f2,2023-04-12_23h14.17.024,PRaM,2021.2.3,Win32,60.10699044,61b8f3437b89212fae0dfade
1,4.7337,space,3.0794,0,81,81,162,1,,,6332274d72eff2df47171a78,6437736300d735c94b9cf4f2,2023-04-12_23h14.17.024,PRaM,2021.2.3,Win32,60.10699044,61b8f3437b89212fae0dfade
6,6.1607,space,4.6403,0,82,82,87,1,,,6332274d72eff2df47171a78,6437736300d735c94b9cf4f2,2023-04-12_23h14.17.024,PRaM,2021.2.3,Win32,60.10699044,61b8f3437b89212fae0dfade
7,4.2632,space,2.7431,0,83,83,225,1,,,6332274d72eff2df47171a78,6437736300d735c94b9cf4f2,2023-04-12_23h14.17.024,PRaM,2021.2.3,Win32,60.10699044,61b8f3437b89212fae0dfade
2,2.8983,space,1.3715,0,84,84,252,1,,,6332274d72eff2df47171a78,6437736300d735c94b9cf4f2,2023-04-12_23h14.17.024,PRaM,2021.2.3,Win32,60.10699044,61b8f3437b89212fae0dfade
6,4.0397,space,2.4135,0,85,85,83,1,,,6332274d72eff2df47171a78,6437736300d735c94b9cf4f2,2023-04-12_23h14.17.024,PRaM,2021.2.3,Win32,60.10699044,61b8f3437b89212fae0dfade
3,4.2436,space,2.6576,0,86,86,72,1,,,6332274d72eff2df47171a78,6437736300d735c94b9cf4f2,2023-04-12_23h14.17.024,PRaM,2021.2.3,Win32,60.10699044,61b8f3437b89212fae0dfade
5,5.5859,space,3.9715,0,87,87,204,1,,,6332274d72eff2df47171a78,6437736300d735c94b9cf4f2,2023-04-12_23h14.17.024,PRaM,2021.2.3,Win32,60.10699044,61b8f3437b89212fae0dfade
4,4.8694,space,3.2346,0,88,88,12,1,,,6332274d72eff2df47171a78,6437736300d735c94b9cf4f2,2023-04-12_23h14.17.024,PRaM,2021.2.3,Win32,60.10699044,61b8f3437b89212fae0dfade
1,2.2353,space,0.6567,0,89,89,253,1,,,6332274d72eff2df47171a78,6437736300d735c94b9cf4f2,2023-04-12_23h14.17.024,PRaM,2021.2.3,Win32,60.10699044,61b8f3437b89212fae0dfade
5,4.5341,space,2.9598,0,90,90,211,1,,,6332274d72eff2df47171a78,6437736300d735c94b9cf4f2,2023-04-12_23h14.17.024,PRaM,2021.2.3,Win32,60.10699044,61b8f3437b89212fae0dfade
6,3.727,space,2.3828,0,91,91,100,1,,,6332274d72eff2df47171a78,6437736300d735c94b9cf4f2,2023-04-12_23h14.17.024,PRaM,2021.2.3,Win32,60.10699044,61b8f3437b89212fae0dfade
1,2.2181,space,0.6568,0,92,92,330,1,,,6332274d72eff2df47171a78,6437736300d735c94b9cf4f2,2023-04-12_23h14.17.024,PRaM,2021.2.3,Win32,60.10699044,61b8f3437b89212fae0dfade
5,4.0101,space,2.5841,0,93,93,127,1,,,6332274d72eff2df47171a78,6437736300d735c94b9cf4f2,2023-04-12_23h14.17.024,PRaM,2021.2.3,Win32,60.10699044,61b8f3437b89212fae0dfade
2,2.5249,space,1.0183,0,94,94,190,1,,,6332274d72eff2df47171a78,6437736300d735c94b9cf4f2,2023-04-12_23h14.17.024,PRaM,2021.2.3,Win32,60.10699044,61b8f3437b89212fae0dfade
4,7.674,space,6.1106,0,95,95,200,1,,,6332274d72eff2df47171a78,6437736300d735c94b9cf4f2,2023-04-12_23h14.17.024,PRaM,2021.2.3,Win32,60.10699044,61b8f3437b89212fae0dfade
7,3.4687,space,1.9405,0,96,96,60,1,,,6332274d72eff2df47171a78,6437736300d735c94b9cf4f2,2023-04-12_23h14.17.024,PRaM,2021.2.3,Win32,60.10699044,61b8f3437b89212fae0dfade
8,3.1707,space,1.673,0,97,97,222,1,,,6332274d72eff2df47171a78,6437736300d735c94b9cf4f2,2023-04-12_23h14.17.024,PRaM,2021.2.3,Win32,60.10699044,61b8f3437b89212fae0dfade
4,2.8188,space,1.2618,0,98,98,142,1,,,6332274d72eff2df47171a78,6437736300d735c94b9cf4f2,2023-04-12_23h14.17.024,PRaM,2021.2.3,Win32,60.10699044,61b8f3437b89212fae0dfade
6,3.9932,space,2.475,0,99,99,346,1,,,6332274d72eff2df47171a78,6437736300d735c94b9cf4f2,2023-04-12_23h14.17.024,PRaM,2021.2.3,Win32,60.10699044,61b8f3437b89212fae0dfade
5,4.2748,space,2.6295,0,100,100,76,1,,,6332274d72eff2df47171a78,6437736300d735c94b9cf4f2,2023-04-12_23h14.17.024,PRaM,2021.2.3,Win32,60.10699044,61b8f3437b89212fae0dfade
4,2.2997,space,0.595,0,101,101,186,1,,,6332274d72eff2df47171a78,6437736300d735c94b9cf4f2,2023-04-12_23h14.17.024,PRaM,2021.2.3,Win32,60.10699044,61b8f3437b89212fae0dfade
1,2.3903,space,0.9177,0,102,102,224,1,,,6332274d72eff2df47171a78,6437736300d735c94b9cf4f2,2023-04-12_23h14.17.024,PRaM,2021.2.3,Win32,60.10699044,61b8f3437b89212fae0dfade
6,2.5486,space,2.8149,0,103,103,288,1,,,6332274d72eff2df47171a78,6437736300d735c94b9cf4f2,2023-04-12_23h14.17.024,PRaM,2021.2.3,Win32,60.10699044,61b8f3437b89212fae0dfade
3,2.5808,space,1.2011,0,104,104,205,1,,,6332274d72eff2df47171a78,6437736300d735c94b9cf4f2,2023-04-12_23h14.17.024,PRaM,2021.2.3,Win32,60.10699044,61b8f3437b89212fae0dfade
2,3.3516,space,1.8375,0,105,105,141,1,,,6332274d72eff2df47171a78,6437736300d735c94b9cf4f2,2023-04-12_23h14.17.024,PRaM,2021.2.3,Win32,60.10699044,61b8f3437b89212fae0dfade
1,2.8931,space,2.5356,0,106,106,368,1,,,6332274d72eff2df47171a78,6437736300d735c94b9cf4f2,2023-04-12_23h14.17.024,PRaM,2021.2.3,Win32,60.10699044,61b8f3437b89212fae0dfade
2,3.384,space,1.8014,0,107,107,26,1,,,6332274d72eff2df47171a78,6437736300d735c94b9cf4f2,2023-04-12_23h14.17.024,PRaM,2021.2.3,Win32,60.10699044,61b8f3437b89212fae0dfade
8,3.7441,space,2.4649,0,108,108,302,1,,,6332274d72eff2df47171a78,6437736300d735c94b9cf4f2,2023-04-12_23h14.17.024,PRaM,2021.2.3,Win32,60.10699044,61b8f3437b89212fae0dfade
7,2.2896,space,0.8343,0,109,109,14,1,,,6332274d72eff2df47171a78,6437736300d735c94b9cf4f2,2023-04-12_23h14.17.024,PRaM,2021.2.3,Win32,60.10699044,61b8f3437b89212fae0dfade
6,3.8138,space,2.2814,0,110,110,255,1,,,6332274d72eff2df47171a78,6437736300d735c94b9cf4f2,2023-04-12_23h14.17.024,PRaM,2021.2.3,Win32,60.10699044,61b8f3437b89212fae0dfade
2,4.441,space,4.1934,0,111,111,329,1,,,6332274d72eff2df47171a78,6437736300d735c94b9cf4f2,2023-04-12_23h14.17.024,PRaM,2021.2.3,Win32,60.10699044,61b8f3437b89212fae0dfade
2,2.3867,space,1.1524,0,112,112,138,1,,,6332274d72eff2df47171a78,6437736300d735c94b9cf4f2,2023-04-12_23h14.17.024,PRaM,2021.2.3,Win32,60.10699044,61b8f3437b89212fae0dfade
1,5.3926,space,3.8535,0,113,113,9,1,,,6332274d72eff2df47171a78,6437736300d735c94b9cf4f2,2023-04-12_23h14.17.024,PRaM,2021.2.3,Win32,60.10699044,61b8f3437b89212fae0dfade
3,4.1505,space,2.6432,0,114,114,34,1,,,6332274d72eff2df47171a78,6437736300d735c94b9cf4f2,2023-04-12_23h14.17.024,PRaM,2021.2.3,Win32,60.10699044,61b8f3437b89212fae0dfade
7,2.9327,space,1.3841,0,115,115,331,1,,,6332274d72eff2df47171a78,6437736300d735c94b9cf4f2,2023-04-12_23h14.17.024,PRaM,2021.2.3,Win32,60.10699044,61b8f3437b89212fae0dfade
5,3.265,space,1.746,0,116,116,334,1,,,6332274d72eff2df47171a78,6437736300d735c94b9cf4f2,2023-04-12_23h14.17.024,PRaM,2021.2.3,Win32,60.10699044,61b8f3437b89212fae0dfade
3,5.3275,space,3.6994,0,117,117,39,1,,,6332274d72eff2df47171a78,6437736300d735c94b9cf4f2,2023-04-12_23h14.17.024,PRaM,2021.2.3,Win32,60.10699044,61b8f3437b89212fae0dfade
6,2.6515,space,1.731,0,118,118,32,1,,,6332274d72eff2df47171a78,6437736300d735c94b9cf4f2,2023-04-12_23h14.17.024,PRaM,2021.2.3,Win32,60.10699044,61b8f3437b89212fae0dfade
6,3.085,space,1.514,0,119,119,258,1,,,6332274d72eff2df47171a78,6437736300d735c94b9cf4f2,2023-04-12_23h14.17.024,PRaM,2021.2.3,Win32,60.10699044,61b8f3437b89212fae0dfade
1,2.3966,space,0.8351,0,120,120,245,1,,,6332274d72eff2df47171a78,6437736300d735c94b9cf4f2,2023-04-12_23h14.17.024,PRaM,2021.2.3,Win32,60.10699044,61b8f3437b89212fae0dfade
5,2.7658,space,1.1437,0,121,121,180,1,,,6332274d72eff2df47171a78,6437736300d735c94b9cf4f2,2023-04-12_23h14.17.024,PRaM,2021.2.3,Win32,60.10699044,61b8f3437b89212fae0dfade
7,3.6765,space,2.0505,0,122,122,363,1,,,6332274d72eff2df47171a78,6437736300d735c94b9cf4f2,2023-04-12_23h14.17.024,PRaM,2021.2.3,Win32,60.10699044,61b8f3437b89212fae0dfade
2,2.8834,space,1.3353,0,123,123,8,1,,,6332274d72eff2df47171a78,6437736300d735c94b9cf4f2,2023-04-12_23h14.17.024,PRaM,2021.2.3,Win32,60.10699044,61b8f3437b89212fae0dfade
9,4.0031,space,2.5678,0,124,124,207,1,,,6332274d72eff2df47171a78,6437736300d735c94b9cf4f2,2023-04-12_23h14.17.024,PRaM,2021.2.3,Win32,60.10699044,61b8f3437b89212fae0dfade
2,3.0888,space,1.4499,0,125,125,176,1,,,6332274d72eff2df47171a78,6437736300d735c94b9cf4f2,2023-04-12_23h14.17.024,PRaM,2021.2.3,Win32,60.10699044,61b8f3437b89212fae0dfade
4,4.1201,space,2.4926,0,126,126,243,1,,,6332274d72eff2df47171a78,6437736300d735c94b9cf4f2,2023-04-12_23h14.17.024,PRaM,2021.2.3,Win32,60.10699044,61b8f3437b89212fae0dfade
5,2.2947,space,0.7683,0,127,127,136,1,,,6332274d72eff2df47171a78,6437736300d735c94b9cf4f2,2023-04-12_23h14.17.024,PRaM,2021.2.3,Win32,60.10699044,61b8f3437b89212fae0dfade
3,3.2954,space,1.6369,0,128,128,307,1,,,6332274d72eff2df47171a78,6437736300d735c94b9cf4f2,2023-04-12_23h14.17.024,PRaM,2021.2.3,Win32,60.10699044,61b8f3437b89212fae0dfade
2,2.8305,space,1.2161,0,129,129,49,1,,,6332274d72eff2df47171a78,6437736300d735c94b9cf4f2,2023-04-12_23h14.17.024,PRaM,2021.2.3,Win32,60.10699044,61b8f3437b89212fae0dfade
1,1.9341,space,0.5009,0,130,130,289,1,,,6332274d72eff2df47171a78,6437736300d735c94b9cf4f2,2023-04-12_23h14.17.024,PRaM,2021.2.3,Win32,60.10699044,61b8f3437b89212fae0dfade
7,3.3657,space,1.7542,0,131,131,61,1,,,6332274d72eff2df47171a78,6437736300d735c94b9cf4f2,2023-04-12_23h14.17.024,PRaM,2021.2.3,Win32,60.10699044,61b8f3437b89212fae0dfade
8,5.4862,space,4.1813,0,132,132,105,1,,,6332274d72eff2df47171a78,6437736300d735c94b9cf4f2,2023-04-12_23h14.17.024,PRaM,2021.2.3,Win32,60.10699044,61b8f3437b89212fae0dfade
3,3.7071,space,2.2203,0,133,133,221,1,,,6332274d72eff2df47171a78,6437736300d735c94b9cf4f2,2023-04-12_23h14.17.024,PRaM,2021.2.3,Win32,60.10699044,61b8f3437b89212fae0dfade
2,3.586,space,2.1136,0,134,134,265,1,,,6332274d72eff2df47171a78,6437736300d735c94b9cf4f2,2023-04-12_23h14.17.024,PRaM,2021.2.3,Win32,60.10699044,61b8f3437b89212fae0dfade
4,2.9814,space,1.4795,0,135,135,218,1,,,6332274d72eff2df47171a78,6437736300d735c94b9cf4f2,2023-04-12_23h14.17.024,PRaM,2021.2.3,Win32,60.10699044,61b8f3437b89212fae0dfade
3,2.2617,space,0.6592,0,136,136,336,1,,,6332274d72eff2df47171a78,6437736300d735c94b9cf4f2,2023-04-12_23h14.17.024,PRaM,2021.2.3,Win32,60.10699044,61b8f3437b89212fae0dfade
4,2.6714,space,1.0941,0,137,137,352,1,,,6332274d72eff2df47171a78,6437736300d735c94b9cf4f2,2023-04-12_23h14.17.024,PRaM,2021.2.3,Win32,60.10699044,61b8f3437b89212fae0dfade
1,3.7789,space,2.3546,0,138,138,235,1,,,6332274d72eff2df47171a78,6437736300d735c94b9cf4f2,2023-04-12_23h14.17.024,PRaM,2021.2.3,Win32,60.10699044,61b8f3437b89212fae0dfade
6,3.5166,space,1.9976,0,139,139,86,1,,,6332274d72eff2df47171a78,6437736300d735c94b9cf4f2,2023-04-12_23h14.17.024,PRaM,2021.2.3,Win32,60.10699044,61b8f3437b89212fae0dfade
2,7.2037,space,5.6704,0,140,140,284,1,,,6332274d72eff2df47171a78,6437736300d735c94b9cf4f2,2023-04-12_23h14.17.024,PRaM,2021.2.3,Win32,60.10699044,61b8f3437b89212fae0dfade
3,4.1704,space,2.69,0,141,141,104,1,,,6332274d72eff2df47171a78,6437736300d735c94b9cf4f2,2023-04-12_23h14.17.024,PRaM,2021.2.3,Win32,60.10699044,61b8f3437b89212fae0dfade
9,4.6831,space,2.9767,0,142,142,20,1,,,6332274d72eff2df47171a78,6437736300d735c94b9cf4f2,2023-04-12_23h14.17.024,PRaM,2021.2.3,Win32,60.10699044,61b8f3437b89212fae0dfade
3,2.2158,space,0.5873,0,143,143,355,1,,,6332274d72eff2df47171a78,6437736300d735c94b9cf4f2,2023-04-12_23h14.17.024,PRaM,2021.2.3,Win32,60.10699044,61b8f3437b89212fae0dfade
6,3.8979,space,2.3363,0,144,144,168,1,,,6332274d72eff2df47171a78,6437736300d735c94b9cf4f2,2023-04-12_23h14.17.024,PRaM,2021.2.3,Win32,60.10699044,61b8f3437b89212fae0dfade
7,2.6475,space,0.8901,0,145,145,114,1,,,6332274d72eff2df47171a78,6437736300d735c94b9cf4f2,2023-04-12_23h14.17.024,PRaM,2021.2.3,Win32,60.10699044,61b8f3437b89212fae0dfade
2,3.009,space,1.4775,0,146,146,349,1,,,6332274d72eff2df47171a78,6437736300d735c94b9cf4f2,2023-04-12_23h14.17.024,PRaM,2021.2.3,Win32,60.10699044,61b8f3437b89212fae0dfade
3,4.3351,space,2.7669,0,147,147,254,1,,,6332274d72eff2df47171a78,6437736300d735c94b9cf4f2,2023-04-12_23h14.17.024,PRaM,2021.2.3,Win32,60.10699044,61b8f3437b89212fae0dfade
1,2.2261,space,0.8603,0,148,148,315,1,,,6332274d72eff2df47171a78,6437736300d735c94b9cf4f2,2023-04-12_23h14.17.024,PRaM,2021.2.3,Win32,60.10699044,61b8f3437b89212fae0dfade
6,3.8559,space,2.3847,0,149,149,366,1,,,6332274d72eff2df47171a78,6437736300d735c94b9cf4f2,2023-04-12_23h14.17.024,PRaM,2021.2.3,Win32,60.10699044,61b8f3437b89212fae0dfade
8,2.3722,space,0.9366,0,150,150,244,1,,,6332274d72eff2df47171a78,6437736300d735c94b9cf4f2,2023-04-12_23h14.17.024,PRaM,2021.2.3,Win32,60.10699044,61b8f3437b89212fae0dfade
6,4.0328,space,2.3907,0,151,151,120,1,,,6332274d72eff2df47171a78,6437736300d735c94b9cf4f2,2023-04-12_23h14.17.024,PRaM,2021.2.3,Win32,60.10699044,61b8f3437b89212fae0dfade
1,2.3897,space,0.8479,0,152,152,345,1,,,6332274d72eff2df47171a78,6437736300d735c94b9cf4f2,2023-04-12_23h14.17.024,PRaM,2021.2.3,Win32,60.10699044,61b8f3437b89212fae0dfade
5,2.8043,space,1.2526,0,153,153,119,1,,,6332274d72eff2df47171a78,6437736300d735c94b9cf4f2,2023-04-12_23h14.17.024,PRaM,2021.2.3,Win32,60.10699044,61b8f3437b89212fae0dfade
3,2.6547,space,1.0839,0,154,154,58,1,,,6332274d72eff2df47171a78,6437736300d735c94b9cf4f2,2023-04-12_23h14.17.024,PRaM,2021.2.3,Win32,60.10699044,61b8f3437b89212fae0dfade
2,2.2788,space,0.7895,0,155,155,109,1,,,6332274d72eff2df47171a78,6437736300d735c94b9cf4f2,2023-04-12_23h14.17.024,PRaM,2021.2.3,Win32,60.10699044,61b8f3437b89212fae0dfade
7,3.9405,space,2.4401,0,156,156,372,1,,,6332274d72eff2df47171a78,6437736300d735c94b9cf4f2,2023-04-12_23h14.17.024,PRaM,2021.2.3,Win32,60.10699044,61b8f3437b89212fae0dfade
3,2.59,space,0.9986,0,157,157,123,1,,,6332274d72eff2df47171a78,6437736300d735c94b9cf4f2,2023-04-12_23h14.17.024,PRaM,2021.2.3,Win32,60.10699044,61b8f3437b89212fae0dfade
4,2.8133,space,1.2748,0,158,158,187,1,,,6332274d72eff2df47171a78,6437736300d735c94b9cf4f2,2023-04-12_23h14.17.024,PRaM,2021.2.3,Win32,60.10699044,61b8f3437b89212fae0dfade
8,3.6315,space,2.1421,0,159,159,319,1,,,6332274d72eff2df47171a78,6437736300d735c94b9cf4f2,2023-04-12_23h14.17.024,PRaM,2021.2.3,Win32,60.10699044,61b8f3437b89212fae0dfade
4,2.8221,space,1.4669,0,160,160,271,1,,,6332274d72eff2df47171a78,6437736300d735c94b9cf4f2,2023-04-12_23h14.17.024,PRaM,2021.2.3,Win32,60.10699044,61b8f3437b89212fae0dfade
1,4.6639,space,3.2323,0,161,161,231,1,,,6332274d72eff2df47171a78,6437736300d735c94b9cf4f2,2023-04-12_23h14.17.024,PRaM,2021.2.3,Win32,60.10699044,61b8f3437b89212fae0dfade
3,5.3623,space,3.821,0,162,162,173,1,,,6332274d72eff2df47171a78,6437736300d735c94b9cf4f2,2023-04-12_23h14.17.024,PRaM,2021.2.3,Win32,60.10699044,61b8f3437b89212fae0dfade
2,1.9089,space,0.2913,0,163,163,189,1,,,6332274d72eff2df47171a78,6437736300d735c94b9cf4f2,2023-04-12_23h14.17.024,PRaM,2021.2.3,Win32,60.10699044,61b8f3437b89212fae0dfade
5,5.5532,space,4.1099,0,164,164,68,1,,,6332274d72eff2df47171a78,6437736300d735c94b9cf4f2,2023-04-12_23h14.17.024,PRaM,2021.2.3,Win32,60.10699044,61b8f3437b89212fae0dfade
8,3.8034,space,2.3113,0,165,165,276,1,,,6332274d72eff2df47171a78,6437736300d735c94b9cf4f2,2023-04-12_23h14.17.024,PRaM,2021.2.3,Win32,60.10699044,61b8f3437b89212fae0dfade
3,2.3333,space,0.7059,0,166,166,270,1,,,6332274d72eff2df47171a78,6437736300d735c94b9cf4f2,2023-04-12_23h14.17.024,PRaM,2021.2.3,Win32,60.10699044,61b8f3437b89212fae0dfade
2,2.6016,space,1.0465,0,167,167,377,1,,,6332274d72eff2df47171a78,6437736300d735c94b9cf4f2,2023-04-12_23h14.17.024,PRaM,2021.2.3,Win32,60.10699044,61b8f3437b89212fae0dfade
2,1.9974,space,0.4298,0,168,168,177,1,,,6332274d72eff2df47171a78,6437736300d735c94b9cf4f2,2023-04-12_23h14.17.024,PRaM,2021.2.3,Win32,60.10699044,61b8f3437b89212fae0dfade
1,2.17,space,0.6397,0,169,169,309,1,,,6332274d72eff2df47171a78,6437736300d735c94b9cf4f2,2023-04-12_23h14.17.024,PRaM,2021.2.3,Win32,60.10699044,61b8f3437b89212fae0dfade
2,3.1847,space,2.0178,0,170,170,220,1,,,6332274d72eff2df47171a78,6437736300d735c94b9cf4f2,2023-04-12_23h14.17.024,PRaM,2021.2.3,Win32,60.10699044,61b8f3437b89212fae0dfade
4,4.4162,space,2.7013,0,171,171,191,1,,,6332274d72eff2df47171a78,6437736300d735c94b9cf4f2,2023-04-12_23h14.17.024,PRaM,2021.2.3,Win32,60.10699044,61b8f3437b89212fae0dfade
1,2.083,space,0.6499,0,172,172,5,1,,,6332274d72eff2df47171a78,6437736300d735c94b9cf4f2,2023-04-12_23h14.17.024,PRaM,2021.2.3,Win32,60.10699044,61b8f3437b89212fae0dfade
6,3.4992,space,2.0829,0,173,173,66,1,,,6332274d72eff2df47171a78,6437736300d735c94b9cf4f2,2023-04-12_23h14.17.024,PRaM,2021.2.3,Win32,60.10699044,61b8f3437b89212fae0dfade
6,2.2069,space,0.7247,0,174,174,261,1,,,6332274d72eff2df47171a78,6437736300d735c94b9cf4f2,2023-04-12_23h14.17.024,PRaM,2021.2.3,Win32,60.10699044,61b8f3437b89212fae0dfade
1,5.1726,space,3.7393,0,175,175,312,1,,,6332274d72eff2df47171a78,6437736300d735c94b9cf4f2,2023-04-12_23h14.17.024,PRaM,2021.2.3,Win32,60.10699044,61b8f3437b89212fae0dfade
2,2.9047,space,1.4715,0,176,176,15,1,,,6332274d72eff2df47171a78,6437736300d735c94b9cf4f2,2023-04-12_23h14.17.024,PRaM,2021.2.3,Win32,60.10699044,61b8f3437b89212fae0dfade
7,2.4003,space,0.7826,0,177,177,297,1,,,6332274d72eff2df47171a78,6437736300d735c94b9cf4f2,2023-04-12_23h14.17.024,PRaM,2021.2.3,Win32,60.10699044,61b8f3437b89212fae0dfade
2,2.0554,space,0.5031,0,178,178,125,1,,,6332274d72eff2df47171a78,6437736300d735c94b9cf4f2,2023-04-12_23h14.17.024,PRaM,2021.2.3,Win32,60.10699044,61b8f3437b89212fae0dfade
2,3.804,space,2.2516,0,179,179,290,1,,,6332274d72eff2df47171a78,6437736300d735c94b9cf4f2,2023-04-12_23h14.17.024,PRaM,2021.2.3,Win32,60.10699044,61b8f3437b89212fae0dfade
7,2.3659,space,0.9842,0,180,180,228,1,,,6332274d72eff2df47171a78,6437736300d735c94b9cf4f2,2023-04-12_23h14.17.024,PRaM,2021.2.3,Win32,60.10699044,61b8f3437b89212fae0dfade
3,2.689,space,1.0489,0,181,181,359,1,,,6332274d72eff2df47171a78,6437736300d735c94b9cf4f2,2023-04-12_23h14.17.024,PRaM,2021.2.3,Win32,60.10699044,61b8f3437b89212fae0dfade
1,2.4603,space,0.9407,0,182,182,10,1,,,6332274d72eff2df47171a78,6437736300d735c94b9cf4f2,2023-04-12_23h14.17.024,PRaM,2021.2.3,Win32,60.10699044,61b8f3437b89212fae0dfade
8,3.9257,space,2.5953,0,183,183,273,1,,,6332274d72eff2df47171a78,6437736300d735c94b9cf4f2,2023-04-12_23h14.17.024,PRaM,2021.2.3,Win32,60.10699044,61b8f3437b89212fae0dfade
2,2.3615,space,0.8426,0,184,184,212,1,,,6332274d72eff2df47171a78,6437736300d735c94b9cf4f2,2023-04-12_23h14.17.024,PRaM,2021.2.3,Win32,60.10699044,61b8f3437b89212fae0dfade
2,2.2086,space,0.652,0,185,185,94,1,,,6332274d72eff2df47171a78,6437736300d735c94b9cf4f2,2023-04-12_23h14.17.024,PRaM,2021.2.3,Win32,60.10699044,61b8f3437b89212fae0dfade
2,1.7298,space,0.1565,0,186,186,18,1,,,6332274d72eff2df47171a78,6437736300d735c94b9cf4f2,2023-04-12_23h14.17.024,PRaM,2021.2.3,Win32,60.10699044,61b8f3437b89212fae0dfade
4,3.6776,space,2.0197,0,187,187,150,1,,,6332274d72eff2df47171a78,6437736300d735c94b9cf4f2,2023-04-12_23h14.17.024,PRaM,2021.2.3,Win32,60.10699044,61b8f3437b89212fae0dfade
6,2.8139,space,1.2629,0,188,188,277,1,,,6332274d72eff2df47171a78,6437736300d735c94b9cf4f2,2023-04-12_23h14.17.024,PRaM,2021.2.3,Win32,60.10699044,61b8f3437b89212fae0dfade
6,2.0762,space,0.437,0,189,189,110,1,,,6332274d72eff2df47171a78,6437736300d735c94b9cf4f2,2023-04-12_23h14.17.024,PRaM,2021.2.3,Win32,60.10699044,61b8f3437b89212fae0dfade
7,3.111,space,1.6011,0,190,190,17,1,,,6332274d72eff2df47171a78,6437736300d735c94b9cf4f2,2023-04-12_23h14.17.024,PRaM,2021.2.3,Win32,60.10699044,61b8f3437b89212fae0dfade
2,2.4505,space,0.9788,0,191,191,237,1,,,6332274d72eff2df47171a78,6437736300d735c94b9cf4f2,2023-04-12_23h14.17.024,PRaM,2021.2.3,Win32,60.10699044,61b8f3437b89212fae0dfade
5,4.6175,space,2.924,0,192,192,201,1,,,6332274d72eff2df47171a78,6437736300d735c94b9cf4f2,2023-04-12_23h14.17.024,PRaM,2021.2.3,Win32,60.10699044,61b8f3437b89212fae0dfade
2,2.0406,space,0.3578,0,193,193,30,1,,,6332274d72eff2df47171a78,6437736300d735c94b9cf4f2,2023-04-12_23h14.17.024,PRaM,2021.2.3,Win32,60.10699044,61b8f3437b89212fae0dfade
3,2.1755,space,0.633,0,194,194,149,1,,,6332274d72eff2df47171a78,6437736300d735c94b9cf4f2,2023-04-12_23h14.17.024,PRaM,2021.2.3,Win32,60.10699044,61b8f3437b89212fae0dfade
2,1.7848,space,0.0795,0,195,195,283,1,,,6332274d72eff2df47171a78,6437736300d735c94b9cf4f2,2023-04-12_23h14.17.024,PRaM,2021.2.3,Win32,60.10699044,61b8f3437b89212fae0dfade
2,2.789,space,0.9935,0,196,196,240,1,,,6332274d72eff2df47171a78,6437736300d735c94b9cf4f2,2023-04-12_23h14.17.024,PRaM,2021.2.3,Win32,60.10699044,61b8f3437b89212fae0dfade
7,5.1021,space,3.5905,0,197,197,264,1,,,6332274d72eff2df47171a78,6437736300d735c94b9cf4f2,2023-04-12_23h14.17.024,PRaM,2021.2.3,Win32,60.10699044,61b8f3437b89212fae0dfade
2,2.3858,space,0.7707,0,198,198,13,1,,,6332274d72eff2df47171a78,6437736300d735c94b9cf4f2,2023-04-12_23h14.17.024,PRaM,2021.2.3,Win32,60.10699044,61b8f3437b89212fae0dfade
3,1.9984,space,0.4206,0,199,199,183,1,,,6332274d72eff2df47171a78,6437736300d735c94b9cf4f2,2023-04-12_23h14.17.024,PRaM,2021.2.3,Win32,60.10699044,61b8f3437b89212fae0dfade
2,2.2528,space,0.6799,0,200,200,272,1,,,6332274d72eff2df47171a78,6437736300d735c94b9cf4f2,2023-04-12_23h14.17.024,PRaM,2021.2.3,Win32,60.10699044,61b8f3437b89212fae0dfade
7,2.8927,space,1.2815,0,201,201,208,1,,,6332274d72eff2df47171a78,6437736300d735c94b9cf4f2,2023-04-12_23h14.17.024,PRaM,2021.2.3,Win32,60.10699044,61b8f3437b89212fae0dfade
2,2.5573,space,1.183,0,202,202,300,1,,,6332274d72eff2df47171a78,6437736300d735c94b9cf4f2,2023-04-12_23h14.17.024,PRaM,2021.2.3,Win32,60.10699044,61b8f3437b89212fae0dfade
2,3.5593,space,2.0449,0,203,203,281,1,,,6332274d72eff2df47171a78,6437736300d735c94b9cf4f2,2023-04-12_23h14.17.024,PRaM,2021.2.3,Win32,60.10699044,61b8f3437b89212fae0dfade
2,1.9332,space,0.5019,0,204,204,275,1,,,6332274d72eff2df47171a78,6437736300d735c94b9cf4f2,2023-04-12_23h14.17.024,PRaM,2021.2.3,Win32,60.10699044,61b8f3437b89212fae0dfade
2,2.1929,space,0.5893,0,205,205,376,1,,,6332274d72eff2df47171a78,6437736300d735c94b9cf4f2,2023-04-12_23h14.17.024,PRaM,2021.2.3,Win32,60.10699044,61b8f3437b89212fae0dfade
7,3.3691,space,1.7647,0,206,206,209,1,,,6332274d72eff2df47171a78,6437736300d735c94b9cf4f2,2023-04-12_23h14.17.024,PRaM,2021.2.3,Win32,60.10699044,61b8f3437b89212fae0dfade
4,5.2749,space,3.7878,0,207,207,306,1,,,6332274d72eff2df47171a78,6437736300d735c94b9cf4f2,2023-04-12_23h14.17.024,PRaM,2021.2.3,Win32,60.10699044,61b8f3437b89212fae0dfade
8,2.1641,space,0.5608,0,208,208,323,1,,,6332274d72eff2df47171a78,6437736300d735c94b9cf4f2,2023-04-12_23h14.17.024,PRaM,2021.2.3,Win32,60.10699044,61b8f3437b89212fae0dfade
4,4.5639,space,3.0271,0,209,209,179,1,,,6332274d72eff2df47171a78,6437736300d735c94b9cf4f2,2023-04-12_23h14.17.024,PRaM,2021.2.3,Win32,60.10699044,61b8f3437b89212fae0dfade
2,2.9314,space,1.1527,0,210,210,29,1,,,6332274d72eff2df47171a78,6437736300d735c94b9cf4f2,2023-04-12_23h14.17.024,PRaM,2021.2.3,Win32,60.10699044,61b8f3437b89212fae0dfade
2,2.1229,space,0.5079,0,211,211,6,1,,,6332274d72eff2df47171a78,6437736300d735c94b9cf4f2,2023-04-12_23h14.17.024,PRaM,2021.2.3,Win32,60.10699044,61b8f3437b89212fae0dfade
2,2.3027,space,1.1758,0,212,212,147,1,,,6332274d72eff2df47171a78,6437736300d735c94b9cf4f2,2023-04-12_23h14.17.024,PRaM,2021.2.3,Win32,60.10699044,61b8f3437b89212fae0dfade
2,2.1278,space,0.3507,0,213,213,241,1,,,6332274d72eff2df47171a78,6437736300d735c94b9cf4f2,2023-04-12_23h14.17.024,PRaM,2021.2.3,Win32,60.10699044,61b8f3437b89212fae0dfade
6,3.4894,space,1.9303,0,214,214,348,1,,,6332274d72eff2df47171a78,6437736300d735c94b9cf4f2,2023-04-12_23h14.17.024,PRaM,2021.2.3,Win32,60.10699044,61b8f3437b89212fae0dfade
2,2.2757,space,0.6774,0,215,215,238,1,,,6332274d72eff2df47171a78,6437736300d735c94b9cf4f2,2023-04-12_23h14.17.024,PRaM,2021.2.3,Win32,60.10699044,61b8f3437b89212fae0dfade
7,3.5563,space,2.0224,0,216,216,239,1,,,6332274d72eff2df47171a78,6437736300d735c94b9cf4f2,2023-04-12_23h14.17.024,PRaM,2021.2.3,Win32,60.10699044,61b8f3437b89212fae0dfade
1,1.8864,space,0.3659,0,217,217,108,1,,,6332274d72eff2df47171a78,6437736300d735c94b9cf4f2,2023-04-12_23h14.17.024,PRaM,2021.2.3,Win32,60.10699044,61b8f3437b89212fae0dfade
5,2.7502,space,1.2097,0,218,218,192,1,,,6332274d72eff2df47171a78,6437736300d735c94b9cf4f2,2023-04-12_23h14.17.024,PRaM,2021.2.3,Win32,60.10699044,61b8f3437b89212fae0dfade
9,3.001,space,1.5595,0,219,219,137,1,,,6332274d72eff2df47171a78,6437736300d735c94b9cf4f2,2023-04-12_23h14.17.024,PRaM,2021.2.3,Win32,60.10699044,61b8f3437b89212fae0dfade
1,2.023,space,0.454,0,220,220,65,1,,,6332274d72eff2df47171a78,6437736300d735c94b9cf4f2,2023-04-12_23h14.17.024,PRaM,2021.2.3,Win32,60.10699044,61b8f3437b89212fae0dfade
2,2.1083,space,0.5097,0,221,221,57,1,,,6332274d72eff2df47171a78,6437736300d735c94b9cf4f2,2023-04-12_23h14.17.024,PRaM,2021.2.3,Win32,60.10699044,61b8f3437b89212fae0dfade
6,2.7419,space,1.3845,0,222,222,74,1,,,6332274d72eff2df47171a78,6437736300d735c94b9cf4f2,2023-04-12_23h14.17.024,PRaM,2021.2.3,Win32,60.10699044,61b8f3437b89212fae0dfade
1,1.9082,space,0.3009,0,223,223,214,1,,,6332274d72eff2df47171a78,6437736300d735c94b9cf4f2,2023-04-12_23h14.17.024,PRaM,2021.2.3,Win32,60.10699044,61b8f3437b89212fae0dfade
8,2.5021,space,1.014,0,224,224,285,1,,,6332274d72eff2df47171a78,6437736300d735c94b9cf4f2,2023-04-12_23h14.17.024,PRaM,2021.2.3,Win32,60.10699044,61b8f3437b89212fae0dfade
4,4.2299,space,2.6231,0,225,225,25,1,,,6332274d72eff2df47171a78,6437736300d735c94b9cf4f2,2023-04-12_23h14.17.024,PRaM,2021.2.3,Win32,60.10699044,61b8f3437b89212fae0dfade
2,2.0972,space,0.4937,0,226,226,313,1,,,6332274d72eff2df47171a78,6437736300d735c94b9cf4f2,2023-04-12_23h14.17.024,PRaM,2021.2.3,Win32,60.10699044,61b8f3437b89212fae0dfade
7,2.533,space,1.0349,0,227,227,259,1,,,6332274d72eff2df47171a78,6437736300d735c94b9cf4f2,2023-04-12_23h14.17.024,PRaM,2021.2.3,Win32,60.10699044,61b8f3437b89212fae0dfade
2,3.4192,space,1.8952,0,228,228,46,1,,,6332274d72eff2df47171a78,6437736300d735c94b9cf4f2,2023-04-12_23h14.17.024,PRaM,2021.2.3,Win32,60.10699044,61b8f3437b89212fae0dfade
3,5.7037,space,4.1958,0,229,229,347,1,,,6332274d72eff2df47171a78,6437736300d735c94b9cf4f2,2023-04-12_23h14.17.024,PRaM,2021.2.3,Win32,60.10699044,61b8f3437b89212fae0dfade
1,3.3145,space,1.7674,0,230,230,188,1,,,6332274d72eff2df47171a78,6437736300d735c94b9cf4f2,2023-04-12_23h14.17.024,PRaM,2021.2.3,Win32,60.10699044,61b8f3437b89212fae0dfade
1,2.1465,space,0.778,0,231,231,78,1,,,6332274d72eff2df47171a78,6437736300d735c94b9cf4f2,2023-04-12_23h14.17.024,PRaM,2021.2.3,Win32,60.10699044,61b8f3437b89212fae0dfade
2,1.7998,space,0.2184,0,232,232,353,1,,,6332274d72eff2df47171a78,6437736300d735c94b9cf4f2,2023-04-12_23h14.17.024,PRaM,2021.2.3,Win32,60.10699044,61b8f3437b89212fae0dfade
6,2.8716,space,1.4484,0,233,233,117,1,,,6332274d72eff2df47171a78,6437736300d735c94b9cf4f2,2023-04-12_23h14.17.024,PRaM,2021.2.3,Win32,60.10699044,61b8f3437b89212fae0dfade
2,1.9176,space,0.1498,0,234,234,103,1,,,6332274d72eff2df47171a78,6437736300d735c94b9cf4f2,2023-04-12_23h14.17.024,PRaM,2021.2.3,Win32,60.10699044,61b8f3437b89212fae0dfade
2,2.2607,space,0.5009,0,235,235,175,1,,,6332274d72eff2df47171a78,6437736300d735c94b9cf4f2,2023-04-12_23h14.17.024,PRaM,2021.2.3,Win32,60.10699044,61b8f3437b89212fae0dfade
2,2.2983,space,0.767,0,236,236,44,1,,,6332274d72eff2df47171a78,6437736300d735c94b9cf4f2,2023-04-12_23h14.17.024,PRaM,2021.2.3,Win32,60.10699044,61b8f3437b89212fae0dfade
6,2.7772,space,1.2183,0,237,237,197,1,,,6332274d72eff2df47171a78,6437736300d735c94b9cf4f2,2023-04-12_23h14.17.024,PRaM,2021.2.3,Win32,60.10699044,61b8f3437b89212fae0dfade
6,4.0166,space,2.5047,0,238,238,88,1,,,6332274d72eff2df47171a78,6437736300d735c94b9cf4f2,2023-04-12_23h14.17.024,PRaM,2021.2.3,Win32,60.10699044,61b8f3437b89212fae0dfade
2,3.2028,space,1.6668,0,239,239,92,1,,,6332274d72eff2df47171a78,6437736300d735c94b9cf4f2,2023-04-12_23h14.17.024,PRaM,2021.2.3,Win32,60.10699044,61b8f3437b89212fae0dfade
2,2.1017,space,0.4264,0,240,240,344,1,,,6332274d72eff2df47171a78,6437736300d735c94b9cf4f2,2023-04-12_23h14.17.024,PRaM,2021.2.3,Win32,60.10699044,61b8f3437b89212fae0dfade
2,2.4449,space,0.8362,0,241,241,365,1,,,6332274d72eff2df47171a78,6437736300d735c94b9cf4f2,2023-04-12_23h14.17.024,PRaM,2021.2.3,Win32,60.10699044,61b8f3437b89212fae0dfade
2,1.7442,space,0.1611,0,242,242,236,1,,,6332274d72eff2df47171a78,6437736300d735c94b9cf4f2,2023-04-12_23h14.17.024,PRaM,2021.2.3,Win32,60.10699044,61b8f3437b89212fae0dfade
8,2.9267,space,1.4671,0,243,243,278,1,,,6332274d72eff2df47171a78,6437736300d735c94b9cf4f2,2023-04-12_23h14.17.024,PRaM,2021.2.3,Win32,60.10699044,61b8f3437b89212fae0dfade
2,2.122,space,0.4907,0,244,244,79,1,,,6332274d72eff2df47171a78,6437736300d735c94b9cf4f2,2023-04-12_23h14.17.024,PRaM,2021.2.3,Win32,60.10699044,61b8f3437b89212fae0dfade
2,1.6812,space,0.0091,0,245,245,0,1,,,6332274d72eff2df47171a78,6437736300d735c94b9cf4f2,2023-04-12_23h14.17.024,PRaM,2021.2.3,Win32,60.10699044,61b8f3437b89212fae0dfade
2,2.6049,space,0.903,0,246,246,98,1,,,6332274d72eff2df47171a78,6437736300d735c94b9cf4f2,2023-04-12_23h14.17.024,PRaM,2021.2.3,Win32,60.10699044,61b8f3437b89212fae0dfade
4,3.1321,space,1.5316,0,247,247,196,1,,,6332274d72eff2df47171a78,6437736300d735c94b9cf4f2,2023-04-12_23h14.17.024,PRaM,2021.2.3,Win32,60.10699044,61b8f3437b89212fae0dfade
3,3.189,space,1.611,0,248,248,151,1,,,6332274d72eff2df47171a78,6437736300d735c94b9cf4f2,2023-04-12_23h14.17.024,PRaM,2021.2.3,Win32,60.10699044,61b8f3437b89212fae0dfade
1,2.002,space,0.4288,0,249,249,41,1,,,6332274d72eff2df47171a78,6437736300d735c94b9cf4f2,2023-04-12_23h14.17.024,PRaM,2021.2.3,Win32,60.10699044,61b8f3437b89212fae0dfade
6,2.3326,space,0.7643,0,250,250,325,1,,,6332274d72eff2df47171a78,6437736300d735c94b9cf4f2,2023-04-12_23h14.17.024,PRaM,2021.2.3,Win32,60.10699044,61b8f3437b89212fae0dfade
3,3.1271,space,1.5585,0,251,251,339,1,,,6332274d72eff2df47171a78,6437736300d735c94b9cf4f2,2023-04-12_23h14.17.024,PRaM,2021.2.3,Win32,60.10699044,61b8f3437b89212fae0dfade
1,2.1771,space,3.0067,0,252,252,373,1,,,6332274d72eff2df47171a78,6437736300d735c94b9cf4f2,2023-04-12_23h14.17.024,PRaM,2021.2.3,Win32,60.10699044,61b8f3437b89212fae0dfade
1,2.3505,space,0.8678,0,253,253,364,1,,,6332274d72eff2df47171a78,6437736300d735c94b9cf4f2,2023-04-12_23h14.17.024,PRaM,2021.2.3,Win32,60.10699044,61b8f3437b89212fae0dfade
4,3.4379,space,1.8258,0,254,254,131,1,,,6332274d72eff2df47171a78,6437736300d735c94b9cf4f2,2023-04-12_23h14.17.024,PRaM,2021.2.3,Win32,60.10699044,61b8f3437b89212fae0dfade
5,4.5884,space,3.0659,0,255,255,56,1,,,6332274d72eff2df47171a78,6437736300d735c94b9cf4f2,2023-04-12_23h14.17.024,PRaM,2021.2.3,Win32,60.10699044,61b8f3437b89212fae0dfade
1,2.4051,space,0.7524,0,256,256,113,1,,,6332274d72eff2df47171a78,6437736300d735c94b9cf4f2,2023-04-12_23h14.17.024,PRaM,2021.2.3,Win32,60.10699044,61b8f3437b89212fae0dfade
3,2.6716,space,1.0537,0,257,257,198,1,,,6332274d72eff2df47171a78,6437736300d735c94b9cf4f2,2023-04-12_23h14.17.024,PRaM,2021.2.3,Win32,60.10699044,61b8f3437b89212fae0dfade
2,2.4597,space,0.7662,0,258,258,167,1,,,6332274d72eff2df47171a78,6437736300d735c94b9cf4f2,2023-04-12_23h14.17.024,PRaM,2021.2.3,Win32,60.10699044,61b8f3437b89212fae0dfade
5,3.1843,space,1.6732,0,259,259,194,1,,,6332274d72eff2df47171a78,6437736300d735c94b9cf4f2,2023-04-12_23h14.17.024,PRaM,2021.2.3,Win32,60.10699044,61b8f3437b89212fae0dfade
2,2.3845,space,0.7458,0,260,260,356,1,,,6332274d72eff2df47171a78,6437736300d735c94b9cf4f2,2023-04-12_23h14.17.024,PRaM,2021.2.3,Win32,60.10699044,61b8f3437b89212fae0dfade
2,1.9147,space,0.2997,0,261,261,369,1,,,6332274d72eff2df47171a78,6437736300d735c94b9cf4f2,2023-04-12_23h14.17.024,PRaM,2021.2.3,Win32,60.10699044,61b8f3437b89212fae0dfade
1,3.1812,space,2.3621,0,262,262,129,1,,,6332274d72eff2df47171a78,6437736300d735c94b9cf4f2,2023-04-12_23h14.17.024,PRaM,2021.2.3,Win32,60.10699044,61b8f3437b89212fae0dfade
1,1.7288,space,0.2221,0,263,263,36,1,,,6332274d72eff2df47171a78,6437736300d735c94b9cf4f2,2023-04-12_23h14.17.024,PRaM,2021.2.3,Win32,60.10699044,61b8f3437b89212fae0dfade
1,2.1012,space,0.5214,0,264,264,286,1,,,6332274d72eff2df47171a78,6437736300d735c94b9cf4f2,2023-04-12_23h14.17.024,PRaM,2021.2.3,Win32,60.10699044,61b8f3437b89212fae0dfade
8,4.423,space,2.8449,0,265,265,134,1,,,6332274d72eff2df47171a78,6437736300d735c94b9cf4f2,2023-04-12_23h14.17.024,PRaM,2021.2.3,Win32,60.10699044,61b8f3437b89212fae0dfade
6,2.0976,space,0.3695,0,266,266,4,1,,,6332274d72eff2df47171a78,6437736300d735c94b9cf4f2,2023-04-12_23h14.17.024,PRaM,2021.2.3,Win32,60.10699044,61b8f3437b89212fae0dfade
6,2.2987,space,0.7672,0,267,267,199,1,,,6332274d72eff2df47171a78,6437736300d735c94b9cf4f2,2023-04-12_23h14.17.024,PRaM,2021.2.3,Win32,60.10699044,61b8f3437b89212fae0dfade
2,4.3336,space,2.9503,0,268,268,370,1,,,6332274d72eff2df47171a78,6437736300d735c94b9cf4f2,2023-04-12_23h14.17.024,PRaM,2021.2.3,Win32,60.10699044,61b8f3437b89212fae0dfade
2,6.0927,space,4.6346,0,269,269,172,1,,,6332274d72eff2df47171a78,6437736300d735c94b9cf4f2,2023-04-12_23h14.17.024,PRaM,2021.2.3,Win32,60.10699044,61b8f3437b89212fae0dfade
1,3.6376,space,2.0057,0,270,270,282,1,,,6332274d72eff2df47171a78,6437736300d735c94b9cf4f2,2023-04-12_23h14.17.024,PRaM,2021.2.3,Win32,60.10699044,61b8f3437b89212fae0dfade
6,2.1041,space,0.4875,0,271,271,298,1,,,6332274d72eff2df47171a78,6437736300d735c94b9cf4f2,2023-04-12_23h14.17.024,PRaM,2021.2.3,Win32,60.10699044,61b8f3437b89212fae0dfade
6,2.4853,space,0.847,0,272,272,16,1,,,6332274d72eff2df47171a78,6437736300d735c94b9cf4f2,2023-04-12_23h14.17.024,PRaM,2021.2.3,Win32,60.10699044,61b8f3437b89212fae0dfade
2,2.2966,space,0.7694,0,273,273,48,1,,,6332274d72eff2df47171a78,6437736300d735c94b9cf4f2,2023-04-12_23h14.17.024,PRaM,2021.2.3,Win32,60.10699044,61b8f3437b89212fae0dfade
1,1.81,space,0.1477,0,274,274,257,1,,,6332274d72eff2df47171a78,6437736300d735c94b9cf4f2,2023-04-12_23h14.17.024,PRaM,2021.2.3,Win32,60.10699044,61b8f3437b89212fae0dfade
2,2.2097,space,0.6556,0,275,275,126,1,,,6332274d72eff2df47171a78,6437736300d735c94b9cf4f2,2023-04-12_23h14.17.024,PRaM,2021.2.3,Win32,60.10699044,61b8f3437b89212fae0dfade
4,3.5386,space,1.943,0,276,276,144,1,,,6332274d72eff2df47171a78,6437736300d735c94b9cf4f2,2023-04-12_23h14.17.024,PRaM,2021.2.3,Win32,60.10699044,61b8f3437b89212fae0dfade
6,2.3173,space,0.7588,0,277,277,53,1,,,6332274d72eff2df47171a78,6437736300d735c94b9cf4f2,2023-04-12_23h14.17.024,PRaM,2021.2.3,Win32,60.10699044,61b8f3437b89212fae0dfade
6,2.199,space,0.9808,0,278,278,84,1,,,6332274d72eff2df47171a78,6437736300d735c94b9cf4f2,2023-04-12_23h14.17.024,PRaM,2021.2.3,Win32,60.10699044,61b8f3437b89212fae0dfade
1,2.549,space,1.0156,0,279,279,287,1,,,6332274d72eff2df47171a78,6437736300d735c94b9cf4f2,2023-04-12_23h14.17.024,PRaM,2021.2.3,Win32,60.10699044,61b8f3437b89212fae0dfade
2,1.9224,space,0.2153,0,280,280,40,1,,,6332274d72eff2df47171a78,6437736300d735c94b9cf4f2,2023-04-12_23h14.17.024,PRaM,2021.2.3,Win32,60.10699044,61b8f3437b89212fae0dfade
8,2.7297,space,1.2489,0,281,281,166,1,,,6332274d72eff2df47171a78,6437736300d735c94b9cf4f2,2023-04-12_23h14.17.024,PRaM,2021.2.3,Win32,60.10699044,61b8f3437b89212fae0dfade
,,space,1.9011,0,282,282,251,1,,,6332274d72eff2df47171a78,6437736300d735c94b9cf4f2,2023-04-12_23h14.17.024,PRaM,2021.2.3,Win32,60.10699044,61b8f3437b89212fae0dfade
1,0.9726,space,5.1262,0,283,283,185,1,,,6332274d72eff2df47171a78,6437736300d735c94b9cf4f2,2023-04-12_23h14.17.024,PRaM,2021.2.3,Win32,60.10699044,61b8f3437b89212fae0dfade
2,2.8114,space,1.2932,0,284,284,262,1,,,6332274d72eff2df47171a78,6437736300d735c94b9cf4f2,2023-04-12_23h14.17.024,PRaM,2021.2.3,Win32,60.10699044,61b8f3437b89212fae0dfade
4,2.125,space,0.4632,0,285,285,337,1,,,6332274d72eff2df47171a78,6437736300d735c94b9cf4f2,2023-04-12_23h14.17.024,PRaM,2021.2.3,Win32,60.10699044,61b8f3437b89212fae0dfade
3,2.0786,space,0.5484,0,286,286,178,1,,,6332274d72eff2df47171a78,6437736300d735c94b9cf4f2,2023-04-12_23h14.17.024,PRaM,2021.2.3,Win32,60.10699044,61b8f3437b89212fae0dfade
5,3.3701,space,2.3588,0,287,287,63,1,,,6332274d72eff2df47171a78,6437736300d735c94b9cf4f2,2023-04-12_23h14.17.024,PRaM,2021.2.3,Win32,60.10699044,61b8f3437b89212fae0dfade
5,7.6103,space,5.9907,0,288,288,158,1,,,6332274d72eff2df47171a78,6437736300d735c94b9cf4f2,2023-04-12_23h14.17.024,PRaM,2021.2.3,Win32,60.10699044,61b8f3437b89212fae0dfade
2,2.4304,space,0.8348,0,289,289,321,1,,,6332274d72eff2df47171a78,6437736300d735c94b9cf4f2,2023-04-12_23h14.17.024,PRaM,2021.2.3,Win32,60.10699044,61b8f3437b89212fae0dfade
9,5.0264,space,3.5643,0,290,290,3,1,,,6332274d72eff2df47171a78,6437736300d735c94b9cf4f2,2023-04-12_23h14.17.024,PRaM,2021.2.3,Win32,60.10699044,61b8f3437b89212fae0dfade
7,2.3151,space,0.777,0,291,291,112,1,,,6332274d72eff2df47171a78,6437736300d735c94b9cf4f2,2023-04-12_23h14.17.024,PRaM,2021.2.3,Win32,60.10699044,61b8f3437b89212fae0dfade
1,1.9901,space,0.4324,0,292,292,308,1,,,6332274d72eff2df47171a78,6437736300d735c94b9cf4f2,2023-04-12_23h14.17.024,PRaM,2021.2.3,Win32,60.10699044,61b8f3437b89212fae0dfade
2,2.1444,space,0.6683,0,293,293,143,1,,,6332274d72eff2df47171a78,6437736300d735c94b9cf4f2,2023-04-12_23h14.17.024,PRaM,2021.2.3,Win32,60.10699044,61b8f3437b89212fae0dfade
3,2.8726,space,1.2374,0,294,294,310,1,,,6332274d72eff2df47171a78,6437736300d735c94b9cf4f2,2023-04-12_23h14.17.024,PRaM,2021.2.3,Win32,60.10699044,61b8f3437b89212fae0dfade
5,2.4743,space,1.1264,0,295,295,304,1,,,6332274d72eff2df47171a78,6437736300d735c94b9cf4f2,2023-04-12_23h14.17.024,PRaM,2021.2.3,Win32,60.10699044,61b8f3437b89212fae0dfade
3,2.7034,space,1.1255,0,296,296,42,1,,,6332274d72eff2df47171a78,6437736300d735c94b9cf4f2,2023-04-12_23h14.17.024,PRaM,2021.2.3,Win32,60.10699044,61b8f3437b89212fae0dfade
2,2.0193,space,0.3745,0,297,297,169,1,,,6332274d72eff2df47171a78,6437736300d735c94b9cf4f2,2023-04-12_23h14.17.024,PRaM,2021.2.3,Win32,60.10699044,61b8f3437b89212fae0dfade
1,3.1064,space,2.3511,0,298,298,182,1,,,6332274d72eff2df47171a78,6437736300d735c94b9cf4f2,2023-04-12_23h14.17.024,PRaM,2021.2.3,Win32,60.10699044,61b8f3437b89212fae0dfade
1,1.9887,space,0.3558,0,299,299,299,1,,,6332274d72eff2df47171a78,6437736300d735c94b9cf4f2,2023-04-12_23h14.17.024,PRaM,2021.2.3,Win32,60.10699044,61b8f3437b89212fae0dfade
3,4.4458,space,2.8802,0,300,300,216,1,,,6332274d72eff2df47171a78,6437736300d735c94b9cf4f2,2023-04-12_23h14.17.024,PRaM,2021.2.3,Win32,60.10699044,61b8f3437b89212fae0dfade
2,2.1036,space,0.554,0,301,301,206,1,,,6332274d72eff2df47171a78,6437736300d735c94b9cf4f2,2023-04-12_23h14.17.024,PRaM,2021.2.3,Win32,60.10699044,61b8f3437b89212fae0dfade
1,2.0589,space,0.4906,0,302,302,229,1,,,6332274d72eff2df47171a78,6437736300d735c94b9cf4f2,2023-04-12_23h14.17.024,PRaM,2021.2.3,Win32,60.10699044,61b8f3437b89212fae0dfade
4,4.7575,space,3.1578,0,303,303,1,1,,,6332274d72eff2df47171a78,6437736300d735c94b9cf4f2,2023-04-12_23h14.17.024,PRaM,2021.2.3,Win32,60.10699044,61b8f3437b89212fae0dfade
3,2.7825,space,1.2472,0,304,304,357,1,,,6332274d72eff2df47171a78,6437736300d735c94b9cf4f2,2023-04-12_23h14.17.024,PRaM,2021.2.3,Win32,60.10699044,61b8f3437b89212fae0dfade
3,2.3007,space,0.7089,0,305,305,135,1,,,6332274d72eff2df47171a78,6437736300d735c94b9cf4f2,2023-04-12_23h14.17.024,PRaM,2021.2.3,Win32,60.10699044,61b8f3437b89212fae0dfade
4,2.9849,space,1.2645,0,306,306,33,1,,,6332274d72eff2df47171a78,6437736300d735c94b9cf4f2,2023-04-12_23h14.17.024,PRaM,2021.2.3,Win32,60.10699044,61b8f3437b89212fae0dfade
3,2.4062,space,0.6805,0,307,307,165,1,,,6332274d72eff2df47171a78,6437736300d735c94b9cf4f2,2023-04-12_23h14.17.024,PRaM,2021.2.3,Win32,60.10699044,61b8f3437b89212fae0dfade
6,2.5641,space,1.0278,0,308,308,64,1,,,6332274d72eff2df47171a78,6437736300d735c94b9cf4f2,2023-04-12_23h14.17.024,PRaM,2021.2.3,Win32,60.10699044,61b8f3437b89212fae0dfade
2,2.2277,space,0.4903,0,309,309,360,1,,,6332274d72eff2df47171a78,6437736300d735c94b9cf4f2,2023-04-12_23h14.17.024,PRaM,2021.2.3,Win32,60.10699044,61b8f3437b89212fae0dfade
8,2.4412,space,0.9597,0,310,310,301,1,,,6332274d72eff2df47171a78,6437736300d735c94b9cf4f2,2023-04-12_23h14.17.024,PRaM,2021.2.3,Win32,60.10699044,61b8f3437b89212fae0dfade
2,2.1721,space,0.5662,0,311,311,268,1,,,6332274d72eff2df47171a78,6437736300d735c94b9cf4f2,2023-04-12_23h14.17.024,PRaM,2021.2.3,Win32,60.10699044,61b8f3437b89212fae0dfade
3,2.0906,space,0.5103,0,312,312,156,1,,,6332274d72eff2df47171a78,6437736300d735c94b9cf4f2,2023-04-12_23h14.17.024,PRaM,2021.2.3,Win32,60.10699044,61b8f3437b89212fae0dfade
3,1.8459,space,0.2843,0,313,313,328,1,,,6332274d72eff2df47171a78,6437736300d735c94b9cf4f2,2023-04-12_23h14.17.024,PRaM,2021.2.3,Win32,60.10699044,61b8f3437b89212fae0dfade
1,2.3382,space,0.7749,0,314,314,148,1,,,6332274d72eff2df47171a78,6437736300d735c94b9cf4f2,2023-04-12_23h14.17.024,PRaM,2021.2.3,Win32,60.10699044,61b8f3437b89212fae0dfade
1,1.8234,space,0.229,0,315,315,124,1,,,6332274d72eff2df47171a78,6437736300d735c94b9cf4f2,2023-04-12_23h14.17.024,PRaM,2021.2.3,Win32,60.10699044,61b8f3437b89212fae0dfade
2,3.3702,space,1.7153,0,316,316,170,1,,,6332274d72eff2df47171a78,6437736300d735c94b9cf4f2,2023-04-12_23h14.17.024,PRaM,2021.2.3,Win32,60.10699044,61b8f3437b89212fae0dfade
1,1.8952,space,1.9351,0,317,317,266,1,,,6332274d72eff2df47171a78,6437736300d735c94b9cf4f2,2023-04-12_23h14.17.024,PRaM,2021.2.3,Win32,60.10699044,61b8f3437b89212fae0dfade
7,2.2047,space,0.4983,0,318,318,102,1,,,6332274d72eff2df47171a78,6437736300d735c94b9cf4f2,2023-04-12_23h14.17.024,PRaM,2021.2.3,Win32,60.10699044,61b8f3437b89212fae0dfade
4,2.435,space,0.7722,0,319,319,350,1,,,6332274d72eff2df47171a78,6437736300d735c94b9cf4f2,2023-04-12_23h14.17.024,PRaM,2021.2.3,Win32,60.10699044,61b8f3437b89212fae0dfade
6,2.5128,space,1.0907,0,320,320,62,1,,,6332274d72eff2df47171a78,6437736300d735c94b9cf4f2,2023-04-12_23h14.17.024,PRaM,2021.2.3,Win32,60.10699044,61b8f3437b89212fae0dfade
3,4.0485,space,2.4127,0,321,321,361,1,,,6332274d72eff2df47171a78,6437736300d735c94b9cf4f2,2023-04-12_23h14.17.024,PRaM,2021.2.3,Win32,60.10699044,61b8f3437b89212fae0dfade
3,2.3111,space,0.745,0,322,322,274,1,,,6332274d72eff2df47171a78,6437736300d735c94b9cf4f2,2023-04-12_23h14.17.024,PRaM,2021.2.3,Win32,60.10699044,61b8f3437b89212fae0dfade
1,5.9682,space,4.4519,0,323,323,43,1,,,6332274d72eff2df47171a78,6437736300d735c94b9cf4f2,2023-04-12_23h14.17.024,PRaM,2021.2.3,Win32,60.10699044,61b8f3437b89212fae0dfade
2,2.2509,space,0.7027,0,324,324,293,1,,,6332274d72eff2df47171a78,6437736300d735c94b9cf4f2,2023-04-12_23h14.17.024,PRaM,2021.2.3,Win32,60.10699044,61b8f3437b89212fae0dfade
2,1.6571,space,0.0089,0,325,325,234,1,,,6332274d72eff2df47171a78,6437736300d735c94b9cf4f2,2023-04-12_23h14.17.024,PRaM,2021.2.3,Win32,60.10699044,61b8f3437b89212fae0dfade
3,4.7189,space,3.0354,0,326,326,223,1,,,6332274d72eff2df47171a78,6437736300d735c94b9cf4f2,2023-04-12_23h14.17.024,PRaM,2021.2.3,Win32,60.10699044,61b8f3437b89212fae0dfade
2,3.6934,space,3.3068,0,327,327,132,1,,,6332274d72eff2df47171a78,6437736300d735c94b9cf4f2,2023-04-12_23h14.17.024,PRaM,2021.2.3,Win32,60.10699044,61b8f3437b89212fae0dfade
1,2.2149,space,0.7114,0,328,328,54,1,,,6332274d72eff2df47171a78,6437736300d735c94b9cf4f2,2023-04-12_23h14.17.024,PRaM,2021.2.3,Win32,60.10699044,61b8f3437b89212fae0dfade
2,2.885,space,1.2777,0,329,329,215,1,,,6332274d72eff2df47171a78,6437736300d735c94b9cf4f2,2023-04-12_23h14.17.024,PRaM,2021.2.3,Win32,60.10699044,61b8f3437b89212fae0dfade
2,1.7462,space,0.0762,0,330,330,294,1,,,6332274d72eff2df47171a78,6437736300d735c94b9cf4f2,2023-04-12_23h14.17.024,PRaM,2021.2.3,Win32,60.10699044,61b8f3437b89212fae0dfade
1,3.0013,space,1.298,0,331,331,342,1,,,6332274d72eff2df47171a78,6437736300d735c94b9cf4f2,2023-04-12_23h14.17.024,PRaM,2021.2.3,Win32,60.10699044,61b8f3437b89212fae0dfade
1,2.2206,space,0.9396,0,332,332,351,1,,,6332274d72eff2df47171a78,6437736300d735c94b9cf4f2,2023-04-12_23h14.17.024,PRaM,2021.2.3,Win32,60.10699044,61b8f3437b89212fae0dfade
1,1.5005,space,3.04,0,333,333,82,1,,,6332274d72eff2df47171a78,6437736300d735c94b9cf4f2,2023-04-12_23h14.17.024,PRaM,2021.2.3,Win32,60.10699044,61b8f3437b89212fae0dfade
2,4.7478,space,3.2727,0,334,334,327,1,,,6332274d72eff2df47171a78,6437736300d735c94b9cf4f2,2023-04-12_23h14.17.024,PRaM,2021.2.3,Win32,60.10699044,61b8f3437b89212fae0dfade
2,1.3622,space,2.0239,0,335,335,210,1,,,6332274d72eff2df47171a78,6437736300d735c94b9cf4f2,2023-04-12_23h14.17.024,PRaM,2021.2.3,Win32,60.10699044,61b8f3437b89212fae0dfade
6,2.6469,space,1.4553,0,336,336,154,1,,,6332274d72eff2df47171a78,6437736300d735c94b9cf4f2,2023-04-12_23h14.17.024,PRaM,2021.2.3,Win32,60.10699044,61b8f3437b89212fae0dfade
2,2.7422,space,1.1059,0,337,337,316,1,,,6332274d72eff2df47171a78,6437736300d735c94b9cf4f2,2023-04-12_23h14.17.024,PRaM,2021.2.3,Win32,60.10699044,61b8f3437b89212fae0dfade
2,2.5369,space,1.3389,0,338,338,22,1,,,6332274d72eff2df47171a78,6437736300d735c94b9cf4f2,2023-04-12_23h14.17.024,PRaM,2021.2.3,Win32,60.10699044,61b8f3437b89212fae0dfade
1,2.031,space,0.4542,0,339,339,73,1,,,6332274d72eff2df47171a78,6437736300d735c94b9cf4f2,2023-04-12_23h14.17.024,PRaM,2021.2.3,Win32,60.10699044,61b8f3437b89212fae0dfade
1,1.8868,space,0.356,0,340,340,133,1,,,6332274d72eff2df47171a78,6437736300d735c94b9cf4f2,2023-04-12_23h14.17.024,PRaM,2021.2.3,Win32,60.10699044,61b8f3437b89212fae0dfade
6,2.5822,space,1.0441,0,341,341,333,1,,,6332274d72eff2df47171a78,6437736300d735c94b9cf4f2,2023-04-12_23h14.17.024,PRaM,2021.2.3,Win32,60.10699044,61b8f3437b89212fae0dfade
3,3.9056,space,2.3137,0,342,342,171,1,,,6332274d72eff2df47171a78,6437736300d735c94b9cf4f2,2023-04-12_23h14.17.024,PRaM,2021.2.3,Win32,60.10699044,61b8f3437b89212fae0dfade
1,3.163,space,1.5384,0,343,343,116,1,,,6332274d72eff2df47171a78,6437736300d735c94b9cf4f2,2023-04-12_23h14.17.024,PRaM,2021.2.3,Win32,60.10699044,61b8f3437b89212fae0dfade
1,1.829,space,0.2984,0,344,344,202,1,,,6332274d72eff2df47171a78,6437736300d735c94b9cf4f2,2023-04-12_23h14.17.024,PRaM,2021.2.3,Win32,60.10699044,61b8f3437b89212fae0dfade
1,1.8201,space,0.7325,0,345,345,52,1,,,6332274d72eff2df47171a78,6437736300d735c94b9cf4f2,2023-04-12_23h14.17.024,PRaM,2021.2.3,Win32,60.10699044,61b8f3437b89212fae0dfade
5,2.5171,space,0.8438,0,346,346,140,1,,,6332274d72eff2df47171a78,6437736300d735c94b9cf4f2,2023-04-12_23h14.17.024,PRaM,2021.2.3,Win32,60.10699044,61b8f3437b89212fae0dfade
2,2.3442,space,0.7062,0,347,347,322,1,,,6332274d72eff2df47171a78,6437736300d735c94b9cf4f2,2023-04-12_23h14.17.024,PRaM,2021.2.3,Win32,60.10699044,61b8f3437b89212fae0dfade
1,2.0684,space,3.1758,0,348,348,233,1,,,6332274d72eff2df47171a78,6437736300d735c94b9cf4f2,2023-04-12_23h14.17.024,PRaM,2021.2.3,Win32,60.10699044,61b8f3437b89212fae0dfade
2,2.3896,space,0.6963,0,349,349,362,1,,,6332274d72eff2df47171a78,6437736300d735c94b9cf4f2,2023-04-12_23h14.17.024,PRaM,2021.2.3,Win32,60.10699044,61b8f3437b89212fae0dfade
7,6.3182,space,4.8166,0,350,350,242,1,,,6332274d72eff2df47171a78,6437736300d735c94b9cf4f2,2023-04-12_23h14.17.024,PRaM,2021.2.3,Win32,60.10699044,61b8f3437b89212fae0dfade
2,2.2685,space,0.5677,0,351,351,31,1,,,6332274d72eff2df47171a78,6437736300d735c94b9cf4f2,2023-04-12_23h14.17.024,PRaM,2021.2.3,Win32,60.10699044,61b8f3437b89212fae0dfade
3,2.1447,space,0.4856,0,352,352,256,1,,,6332274d72eff2df47171a78,6437736300d735c94b9cf4f2,2023-04-12_23h14.17.024,PRaM,2021.2.3,Win32,60.10699044,61b8f3437b89212fae0dfade
1,2.2269,space,0.7463,0,353,353,106,1,,,6332274d72eff2df47171a78,6437736300d735c94b9cf4f2,2023-04-12_23h14.17.024,PRaM,2021.2.3,Win32,60.10699044,61b8f3437b89212fae0dfade
7,2.4598,space,0.8812,0,354,354,159,1,,,6332274d72eff2df47171a78,6437736300d735c94b9cf4f2,2023-04-12_23h14.17.024,PRaM,2021.2.3,Win32,60.10699044,61b8f3437b89212fae0dfade
4,2.3673,space,0.9344,0,355,355,174,1,,,6332274d72eff2df47171a78,6437736300d735c94b9cf4f2,2023-04-12_23h14.17.024,PRaM,2021.2.3,Win32,60.10699044,61b8f3437b89212fae0dfade
2,2.2348,space,0.4972,0,356,356,374,1,,,6332274d72eff2df47171a78,6437736300d735c94b9cf4f2,2023-04-12_23h14.17.024,PRaM,2021.2.3,Win32,60.10699044,61b8f3437b89212fae0dfade
3,3.6966,space,2.2012,0,357,357,153,1,,,6332274d72eff2df47171a78,6437736300d735c94b9cf4f2,2023-04-12_23h14.17.024,PRaM,2021.2.3,Win32,60.10699044,61b8f3437b89212fae0dfade
2,2.2627,space,0.6477,0,358,358,358,1,,,6332274d72eff2df47171a78,6437736300d735c94b9cf4f2,2023-04-12_23h14.17.024,PRaM,2021.2.3,Win32,60.10699044,61b8f3437b89212fae0dfade
1,1.7765,space,0.0745,0,359,359,324,1,,,6332274d72eff2df47171a78,6437736300d735c94b9cf4f2,2023-04-12_23h14.17.024,PRaM,2021.2.3,Win32,60.10699044,61b8f3437b89212fae0dfade
1,1.5114,space,1.9888,0,360,360,122,1,,,6332274d72eff2df47171a78,6437736300d735c94b9cf4f2,2023-04-12_23h14.17.024,PRaM,2021.2.3,Win32,60.10699044,61b8f3437b89212fae0dfade
2,2.3267,space,0.4953,0,361,361,101,1,,,6332274d72eff2df47171a78,6437736300d735c94b9cf4f2,2023-04-12_23h14.17.024,PRaM,2021.2.3,Win32,60.10699044,61b8f3437b89212fae0dfade
1,2.287,space,0.721,0,362,362,24,1,,,6332274d72eff2df47171a78,6437736300d735c94b9cf4f2,2023-04-12_23h14.17.024,PRaM,2021.2.3,Win32,60.10699044,61b8f3437b89212fae0dfade
6,2.9865,space,1.4101,0,363,363,269,1,,,6332274d72eff2df47171a78,6437736300d735c94b9cf4f2,2023-04-12_23h14.17.024,PRaM,2021.2.3,Win32,60.10699044,61b8f3437b89212fae0dfade
8,2.0641,space,0.4228,0,364,364,326,1,,,6332274d72eff2df47171a78,6437736300d735c94b9cf4f2,2023-04-12_23h14.17.024,PRaM,2021.2.3,Win32,60.10699044,61b8f3437b89212fae0dfade
1,4.3637,space,2.9238,0,365,365,107,1,,,6332274d72eff2df47171a78,6437736300d735c94b9cf4f2,2023-04-12_23h14.17.024,PRaM,2021.2.3,Win32,60.10699044,61b8f3437b89212fae0dfade
7,2.6178,space,1.1918,0,366,366,213,1,,,6332274d72eff2df47171a78,6437736300d735c94b9cf4f2,2023-04-12_23h14.17.024,PRaM,2021.2.3,Win32,60.10699044,61b8f3437b89212fae0dfade
2,2.1744,space,0.5998,0,367,367,227,1,,,6332274d72eff2df47171a78,6437736300d735c94b9cf4f2,2023-04-12_23h14.17.024,PRaM,2021.2.3,Win32,60.10699044,61b8f3437b89212fae0dfade
6,2.4231,space,0.7714,0,368,368,335,1,,,6332274d72eff2df47171a78,6437736300d735c94b9cf4f2,2023-04-12_23h14.17.024,PRaM,2021.2.3,Win32,60.10699044,61b8f3437b89212fae0dfade
3,4.0561,space,2.5578,0,369,369,230,1,,,6332274d72eff2df47171a78,6437736300d735c94b9cf4f2,2023-04-12_23h14.17.024,PRaM,2021.2.3,Win32,60.10699044,61b8f3437b89212fae0dfade
5,2.2966,space,0.6392,0,370,370,139,1,,,6332274d72eff2df47171a78,6437736300d735c94b9cf4f2,2023-04-12_23h14.17.024,PRaM,2021.2.3,Win32,60.10699044,61b8f3437b89212fae0dfade
4,2.2069,space,0.4334,0,371,371,249,1,,,6332274d72eff2df47171a78,6437736300d735c94b9cf4f2,2023-04-12_23h14.17.024,PRaM,2021.2.3,Win32,60.10699044,61b8f3437b89212fae0dfade
1,2.351,space,0.7192,0,372,372,97,1,,,6332274d72eff2df47171a78,6437736300d735c94b9cf4f2,2023-04-12_23h14.17.024,PRaM,2021.2.3,Win32,60.10699044,61b8f3437b89212fae0dfade
5,2.1605,space,0.642,0,373,373,305,1,,,6332274d72eff2df47171a78,6437736300d735c94b9cf4f2,2023-04-12_23h14.17.024,PRaM,2021.2.3,Win32,60.10699044,61b8f3437b89212fae0dfade
7,1.9511,space,0.3541,0,374,374,115,1,,,6332274d72eff2df47171a78,6437736300d735c94b9cf4f2,2023-04-12_23h14.17.024,PRaM,2021.2.3,Win32,60.10699044,61b8f3437b89212fae0dfade
2,2.1928,space,0.568,0,375,375,303,1,,,6332274d72eff2df47171a78,6437736300d735c94b9cf4f2,2023-04-12_23h14.17.024,PRaM,2021.2.3,Win32,60.10699044,61b8f3437b89212fae0dfade
8,2.7055,space,1.2255,0,376,376,59,1,,,6332274d72eff2df47171a78,6437736300d735c94b9cf4f2,2023-04-12_23h14.17.024,PRaM,2021.2.3,Win32,60.10699044,61b8f3437b89212fae0dfade
9,5.0085,space,3.4598,0,377,377,291,1,,,6332274d72eff2df47171a78,6437736300d735c94b9cf4f2,2023-04-12_23h14.17.024,PRaM,2021.2.3,Win32,60.10699044,61b8f3437b89212fae0dfade
