Rating.response,Rating.rt,EndTrial.keys,EndTrial.rt,trials.thisRepN,trials.thisTrialN,trials.thisN,trials.thisIndex,trials.ran,Pos1,Pos2,participant,session,date,expName,psychopyVersion,OS,frameRate,study_id
7,5.9259,space,5.0351,0,0,0,51,1,,,63474e67a5fd298c6103c409,643772d7c8805de25329625b,2023-04-12_22h39.50.422,PRaM,2021.2.3,Win32,60.13952369,61b8f3437b89212fae0dfade
6,5.5205,space,3.8873,0,1,1,168,1,,,63474e67a5fd298c6103c409,643772d7c8805de25329625b,2023-04-12_22h39.50.422,PRaM,2021.2.3,Win32,60.13952369,61b8f3437b89212fae0dfade
8,3.564,space,2.6322,0,2,2,3,1,,,63474e67a5fd298c6103c409,643772d7c8805de25329625b,2023-04-12_22h39.50.422,PRaM,2021.2.3,Win32,60.13952369,61b8f3437b89212fae0dfade
7,4.2425,space,2.534,0,3,3,152,1,,,63474e67a5fd298c6103c409,643772d7c8805de25329625b,2023-04-12_22h39.50.422,PRaM,2021.2.3,Win32,60.13952369,61b8f3437b89212fae0dfade
5,2.3227,space,0.5844,0,4,4,22,1,,,63474e67a5fd298c6103c409,643772d7c8805de25329625b,2023-04-12_22h39.50.422,PRaM,2021.2.3,Win32,60.13952369,61b8f3437b89212fae0dfade
5,5.6405,space,3.8844,0,5,5,61,1,,,63474e67a5fd298c6103c409,643772d7c8805de25329625b,2023-04-12_22h39.50.422,PRaM,2021.2.3,Win32,60.13952369,61b8f3437b89212fae0dfade
4,2.1663,space,0.451,0,6,6,219,1,,,63474e67a5fd298c6103c409,643772d7c8805de25329625b,2023-04-12_22h39.50.422,PRaM,2021.2.3,Win32,60.13952369,61b8f3437b89212fae0dfade
6,2.4824,space,2.6843,0,7,7,264,1,,,63474e67a5fd298c6103c409,643772d7c8805de25329625b,2023-04-12_22h39.50.422,PRaM,2021.2.3,Win32,60.13952369,61b8f3437b89212fae0dfade
3,2.2658,space,0.4836,0,8,8,98,1,,,63474e67a5fd298c6103c409,643772d7c8805de25329625b,2023-04-12_22h39.50.422,PRaM,2021.2.3,Win32,60.13952369,61b8f3437b89212fae0dfade
2,5.5412,space,4.007,0,9,9,200,1,,,63474e67a5fd298c6103c409,643772d7c8805de25329625b,2023-04-12_22h39.50.422,PRaM,2021.2.3,Win32,60.13952369,61b8f3437b89212fae0dfade
3,44.2504,space,42.4271,0,10,10,272,1,,,63474e67a5fd298c6103c409,643772d7c8805de25329625b,2023-04-12_22h39.50.422,PRaM,2021.2.3,Win32,60.13952369,61b8f3437b89212fae0dfade
2,2.9981,space,2.0191,0,11,11,106,1,,,63474e67a5fd298c6103c409,643772d7c8805de25329625b,2023-04-12_22h39.50.422,PRaM,2021.2.3,Win32,60.13952369,61b8f3437b89212fae0dfade
2,3.5619,space,1.8226,0,12,12,54,1,,,63474e67a5fd298c6103c409,643772d7c8805de25329625b,2023-04-12_22h39.50.422,PRaM,2021.2.3,Win32,60.13952369,61b8f3437b89212fae0dfade
3,2.3396,space,0.5299,0,13,13,375,1,,,63474e67a5fd298c6103c409,643772d7c8805de25329625b,2023-04-12_22h39.50.422,PRaM,2021.2.3,Win32,60.13952369,61b8f3437b89212fae0dfade
5,2.5209,space,1.065,0,14,14,242,1,,,63474e67a5fd298c6103c409,643772d7c8805de25329625b,2023-04-12_22h39.50.422,PRaM,2021.2.3,Win32,60.13952369,61b8f3437b89212fae0dfade
4,2.059,space,0.4677,0,15,15,160,1,,,63474e67a5fd298c6103c409,643772d7c8805de25329625b,2023-04-12_22h39.50.422,PRaM,2021.2.3,Win32,60.13952369,61b8f3437b89212fae0dfade
2,2.1071,space,0.3097,0,16,16,50,1,,,63474e67a5fd298c6103c409,643772d7c8805de25329625b,2023-04-12_22h39.50.422,PRaM,2021.2.3,Win32,60.13952369,61b8f3437b89212fae0dfade
3,1.95,space,0.1633,0,17,17,5,1,,,63474e67a5fd298c6103c409,643772d7c8805de25329625b,2023-04-12_22h39.50.422,PRaM,2021.2.3,Win32,60.13952369,61b8f3437b89212fae0dfade
7,1.9732,space,0.2172,0,18,18,277,1,,,63474e67a5fd298c6103c409,643772d7c8805de25329625b,2023-04-12_22h39.50.422,PRaM,2021.2.3,Win32,60.13952369,61b8f3437b89212fae0dfade
7,2.3493,space,1.4305,0,19,19,16,1,,,63474e67a5fd298c6103c409,643772d7c8805de25329625b,2023-04-12_22h39.50.422,PRaM,2021.2.3,Win32,60.13952369,61b8f3437b89212fae0dfade
8,4.0563,space,2.4345,0,20,20,335,1,,,63474e67a5fd298c6103c409,643772d7c8805de25329625b,2023-04-12_22h39.50.422,PRaM,2021.2.3,Win32,60.13952369,61b8f3437b89212fae0dfade
3,4.5561,space,2.7651,0,21,21,81,1,,,63474e67a5fd298c6103c409,643772d7c8805de25329625b,2023-04-12_22h39.50.422,PRaM,2021.2.3,Win32,60.13952369,61b8f3437b89212fae0dfade
4,1.8271,space,0.0689,0,22,22,186,1,,,63474e67a5fd298c6103c409,643772d7c8805de25329625b,2023-04-12_22h39.50.422,PRaM,2021.2.3,Win32,60.13952369,61b8f3437b89212fae0dfade
3,4.851,space,3.1675,0,23,23,172,1,,,63474e67a5fd298c6103c409,643772d7c8805de25329625b,2023-04-12_22h39.50.422,PRaM,2021.2.3,Win32,60.13952369,61b8f3437b89212fae0dfade
3,12.7708,space,11.7679,0,24,24,179,1,,,63474e67a5fd298c6103c409,643772d7c8805de25329625b,2023-04-12_22h39.50.422,PRaM,2021.2.3,Win32,60.13952369,61b8f3437b89212fae0dfade
4,1.5059,space,1.1055,0,25,25,40,1,,,63474e67a5fd298c6103c409,643772d7c8805de25329625b,2023-04-12_22h39.50.422,PRaM,2021.2.3,Win32,60.13952369,61b8f3437b89212fae0dfade
5,1.8895,space,0.1434,0,26,26,371,1,,,63474e67a5fd298c6103c409,643772d7c8805de25329625b,2023-04-12_22h39.50.422,PRaM,2021.2.3,Win32,60.13952369,61b8f3437b89212fae0dfade
6,3.3895,space,1.5348,0,27,27,90,1,,,63474e67a5fd298c6103c409,643772d7c8805de25329625b,2023-04-12_22h39.50.422,PRaM,2021.2.3,Win32,60.13952369,61b8f3437b89212fae0dfade
5,2.291,space,0.5342,0,28,28,363,1,,,63474e67a5fd298c6103c409,643772d7c8805de25329625b,2023-04-12_22h39.50.422,PRaM,2021.2.3,Win32,60.13952369,61b8f3437b89212fae0dfade
6,2.3061,space,0.7009,0,29,29,21,1,,,63474e67a5fd298c6103c409,643772d7c8805de25329625b,2023-04-12_22h39.50.422,PRaM,2021.2.3,Win32,60.13952369,61b8f3437b89212fae0dfade
7,2.0731,space,0.3177,0,30,30,280,1,,,63474e67a5fd298c6103c409,643772d7c8805de25329625b,2023-04-12_22h39.50.422,PRaM,2021.2.3,Win32,60.13952369,61b8f3437b89212fae0dfade
3,2.4274,space,0.7558,0,31,31,308,1,,,63474e67a5fd298c6103c409,643772d7c8805de25329625b,2023-04-12_22h39.50.422,PRaM,2021.2.3,Win32,60.13952369,61b8f3437b89212fae0dfade
4,1.9149,space,0.1099,0,32,32,244,1,,,63474e67a5fd298c6103c409,643772d7c8805de25329625b,2023-04-12_22h39.50.422,PRaM,2021.2.3,Win32,60.13952369,61b8f3437b89212fae0dfade
2,2.4151,space,0.8007,0,33,33,92,1,,,63474e67a5fd298c6103c409,643772d7c8805de25329625b,2023-04-12_22h39.50.422,PRaM,2021.2.3,Win32,60.13952369,61b8f3437b89212fae0dfade
2,1.89,space,0.0544,0,34,34,198,1,,,63474e67a5fd298c6103c409,643772d7c8805de25329625b,2023-04-12_22h39.50.422,PRaM,2021.2.3,Win32,60.13952369,61b8f3437b89212fae0dfade
3,1.6219,space,0.0846,0,35,35,29,1,,,63474e67a5fd298c6103c409,643772d7c8805de25329625b,2023-04-12_22h39.50.422,PRaM,2021.2.3,Win32,60.13952369,61b8f3437b89212fae0dfade
3,1.3473,space,0.8167,0,36,36,13,1,,,63474e67a5fd298c6103c409,643772d7c8805de25329625b,2023-04-12_22h39.50.422,PRaM,2021.2.3,Win32,60.13952369,61b8f3437b89212fae0dfade
4,1.797,space,0.6852,0,37,37,327,1,,,63474e67a5fd298c6103c409,643772d7c8805de25329625b,2023-04-12_22h39.50.422,PRaM,2021.2.3,Win32,60.13952369,61b8f3437b89212fae0dfade
6,4.7522,space,2.8858,0,38,38,141,1,,,63474e67a5fd298c6103c409,643772d7c8805de25329625b,2023-04-12_22h39.50.422,PRaM,2021.2.3,Win32,60.13952369,61b8f3437b89212fae0dfade
7,2.6227,space,0.7506,0,39,39,183,1,,,63474e67a5fd298c6103c409,643772d7c8805de25329625b,2023-04-12_22h39.50.422,PRaM,2021.2.3,Win32,60.13952369,61b8f3437b89212fae0dfade
3,2.5564,space,0.843,0,40,40,286,1,,,63474e67a5fd298c6103c409,643772d7c8805de25329625b,2023-04-12_22h39.50.422,PRaM,2021.2.3,Win32,60.13952369,61b8f3437b89212fae0dfade
4,4.3394,space,2.6759,0,41,41,241,1,,,63474e67a5fd298c6103c409,643772d7c8805de25329625b,2023-04-12_22h39.50.422,PRaM,2021.2.3,Win32,60.13952369,61b8f3437b89212fae0dfade
7,5.5976,space,3.9424,0,42,42,372,1,,,63474e67a5fd298c6103c409,643772d7c8805de25329625b,2023-04-12_22h39.50.422,PRaM,2021.2.3,Win32,60.13952369,61b8f3437b89212fae0dfade
6,2.596,space,0.7733,0,43,43,331,1,,,63474e67a5fd298c6103c409,643772d7c8805de25329625b,2023-04-12_22h39.50.422,PRaM,2021.2.3,Win32,60.13952369,61b8f3437b89212fae0dfade
3,2.1394,space,0.3679,0,44,44,213,1,,,63474e67a5fd298c6103c409,643772d7c8805de25329625b,2023-04-12_22h39.50.422,PRaM,2021.2.3,Win32,60.13952369,61b8f3437b89212fae0dfade
2,8.2377,space,6.468,0,45,45,333,1,,,63474e67a5fd298c6103c409,643772d7c8805de25329625b,2023-04-12_22h39.50.422,PRaM,2021.2.3,Win32,60.13952369,61b8f3437b89212fae0dfade
3,2.4732,space,0.7397,0,46,46,93,1,,,63474e67a5fd298c6103c409,643772d7c8805de25329625b,2023-04-12_22h39.50.422,PRaM,2021.2.3,Win32,60.13952369,61b8f3437b89212fae0dfade
2,5.3983,space,3.6739,0,47,47,238,1,,,63474e67a5fd298c6103c409,643772d7c8805de25329625b,2023-04-12_22h39.50.422,PRaM,2021.2.3,Win32,60.13952369,61b8f3437b89212fae0dfade
2,5.6982,space,4.1653,0,48,48,298,1,,,63474e67a5fd298c6103c409,643772d7c8805de25329625b,2023-04-12_22h39.50.422,PRaM,2021.2.3,Win32,60.13952369,61b8f3437b89212fae0dfade
4,1.7775,space,3.039,0,49,49,316,1,,,63474e67a5fd298c6103c409,643772d7c8805de25329625b,2023-04-12_22h39.50.422,PRaM,2021.2.3,Win32,60.13952369,61b8f3437b89212fae0dfade
6,1.9719,space,0.205,0,50,50,328,1,,,63474e67a5fd298c6103c409,643772d7c8805de25329625b,2023-04-12_22h39.50.422,PRaM,2021.2.3,Win32,60.13952369,61b8f3437b89212fae0dfade
4,2.9343,space,1.2066,0,51,51,287,1,,,63474e67a5fd298c6103c409,643772d7c8805de25329625b,2023-04-12_22h39.50.422,PRaM,2021.2.3,Win32,60.13952369,61b8f3437b89212fae0dfade
3,1.8402,space,0.1467,0,52,52,212,1,,,63474e67a5fd298c6103c409,643772d7c8805de25329625b,2023-04-12_22h39.50.422,PRaM,2021.2.3,Win32,60.13952369,61b8f3437b89212fae0dfade
2,2.0994,space,0.3713,0,53,53,24,1,,,63474e67a5fd298c6103c409,643772d7c8805de25329625b,2023-04-12_22h39.50.422,PRaM,2021.2.3,Win32,60.13952369,61b8f3437b89212fae0dfade
2,1.7134,space,0.0672,0,54,54,75,1,,,63474e67a5fd298c6103c409,643772d7c8805de25329625b,2023-04-12_22h39.50.422,PRaM,2021.2.3,Win32,60.13952369,61b8f3437b89212fae0dfade
3,5.1028,space,3.5674,0,55,55,193,1,,,63474e67a5fd298c6103c409,643772d7c8805de25329625b,2023-04-12_22h39.50.422,PRaM,2021.2.3,Win32,60.13952369,61b8f3437b89212fae0dfade
4,3.1305,space,1.3061,0,56,56,235,1,,,63474e67a5fd298c6103c409,643772d7c8805de25329625b,2023-04-12_22h39.50.422,PRaM,2021.2.3,Win32,60.13952369,61b8f3437b89212fae0dfade
4,2.0399,space,1.4935,0,57,57,206,1,,,63474e67a5fd298c6103c409,643772d7c8805de25329625b,2023-04-12_22h39.50.422,PRaM,2021.2.3,Win32,60.13952369,61b8f3437b89212fae0dfade
6,4.5812,space,2.8845,0,58,58,132,1,,,63474e67a5fd298c6103c409,643772d7c8805de25329625b,2023-04-12_22h39.50.422,PRaM,2021.2.3,Win32,60.13952369,61b8f3437b89212fae0dfade
7,1.9235,space,0.1241,0,59,59,110,1,,,63474e67a5fd298c6103c409,643772d7c8805de25329625b,2023-04-12_22h39.50.422,PRaM,2021.2.3,Win32,60.13952369,61b8f3437b89212fae0dfade
4,6.8571,space,5.0945,0,60,60,23,1,,,63474e67a5fd298c6103c409,643772d7c8805de25329625b,2023-04-12_22h39.50.422,PRaM,2021.2.3,Win32,60.13952369,61b8f3437b89212fae0dfade
6,2.1751,space,0.3368,0,61,61,282,1,,,63474e67a5fd298c6103c409,643772d7c8805de25329625b,2023-04-12_22h39.50.422,PRaM,2021.2.3,Win32,60.13952369,61b8f3437b89212fae0dfade
2,3.3401,space,1.6174,0,62,62,187,1,,,63474e67a5fd298c6103c409,643772d7c8805de25329625b,2023-04-12_22h39.50.422,PRaM,2021.2.3,Win32,60.13952369,61b8f3437b89212fae0dfade
3,4.8747,space,3.1599,0,63,63,80,1,,,63474e67a5fd298c6103c409,643772d7c8805de25329625b,2023-04-12_22h39.50.422,PRaM,2021.2.3,Win32,60.13952369,61b8f3437b89212fae0dfade
4,1.4575,space,1.386,0,64,64,164,1,,,63474e67a5fd298c6103c409,643772d7c8805de25329625b,2023-04-12_22h39.50.422,PRaM,2021.2.3,Win32,60.13952369,61b8f3437b89212fae0dfade
2,2.3566,space,0.7331,0,65,65,65,1,,,63474e67a5fd298c6103c409,643772d7c8805de25329625b,2023-04-12_22h39.50.422,PRaM,2021.2.3,Win32,60.13952369,61b8f3437b89212fae0dfade
2,6.6878,space,4.9705,0,66,66,236,1,,,63474e67a5fd298c6103c409,643772d7c8805de25329625b,2023-04-12_22h39.50.422,PRaM,2021.2.3,Win32,60.13952369,61b8f3437b89212fae0dfade
2,4.6641,space,3.9673,0,67,67,253,1,,,63474e67a5fd298c6103c409,643772d7c8805de25329625b,2023-04-12_22h39.50.422,PRaM,2021.2.3,Win32,60.13952369,61b8f3437b89212fae0dfade
3,2.099,space,0.3007,0,68,68,109,1,,,63474e67a5fd298c6103c409,643772d7c8805de25329625b,2023-04-12_22h39.50.422,PRaM,2021.2.3,Win32,60.13952369,61b8f3437b89212fae0dfade
4,1.6306,space,0.5342,0,69,69,72,1,,,63474e67a5fd298c6103c409,643772d7c8805de25329625b,2023-04-12_22h39.50.422,PRaM,2021.2.3,Win32,60.13952369,61b8f3437b89212fae0dfade
5,1.4885,space,1.4838,0,70,70,319,1,,,63474e67a5fd298c6103c409,643772d7c8805de25329625b,2023-04-12_22h39.50.422,PRaM,2021.2.3,Win32,60.13952369,61b8f3437b89212fae0dfade
3,1.9327,space,1.6468,0,71,71,15,1,,,63474e67a5fd298c6103c409,643772d7c8805de25329625b,2023-04-12_22h39.50.422,PRaM,2021.2.3,Win32,60.13952369,61b8f3437b89212fae0dfade
5,14.4812,space,12.7232,0,72,72,163,1,,,63474e67a5fd298c6103c409,643772d7c8805de25329625b,2023-04-12_22h39.50.422,PRaM,2021.2.3,Win32,60.13952369,61b8f3437b89212fae0dfade
3,4.9732,space,3.1735,0,73,73,192,1,,,63474e67a5fd298c6103c409,643772d7c8805de25329625b,2023-04-12_22h39.50.422,PRaM,2021.2.3,Win32,60.13952369,61b8f3437b89212fae0dfade
2,3.6645,space,2.1005,0,74,74,178,1,,,63474e67a5fd298c6103c409,643772d7c8805de25329625b,2023-04-12_22h39.50.422,PRaM,2021.2.3,Win32,60.13952369,61b8f3437b89212fae0dfade
3,3.8534,space,2.1106,0,75,75,139,1,,,63474e67a5fd298c6103c409,643772d7c8805de25329625b,2023-04-12_22h39.50.422,PRaM,2021.2.3,Win32,60.13952369,61b8f3437b89212fae0dfade
4,1.7942,space,0.0678,0,76,76,44,1,,,63474e67a5fd298c6103c409,643772d7c8805de25329625b,2023-04-12_22h39.50.422,PRaM,2021.2.3,Win32,60.13952369,61b8f3437b89212fae0dfade
3,1.877,space,0.0749,0,77,77,223,1,,,63474e67a5fd298c6103c409,643772d7c8805de25329625b,2023-04-12_22h39.50.422,PRaM,2021.2.3,Win32,60.13952369,61b8f3437b89212fae0dfade
4,21.224,space,19.385,0,78,78,329,1,,,63474e67a5fd298c6103c409,643772d7c8805de25329625b,2023-04-12_22h39.50.422,PRaM,2021.2.3,Win32,60.13952369,61b8f3437b89212fae0dfade
6,2.6308,space,0.9883,0,79,79,84,1,,,63474e67a5fd298c6103c409,643772d7c8805de25329625b,2023-04-12_22h39.50.422,PRaM,2021.2.3,Win32,60.13952369,61b8f3437b89212fae0dfade
7,3.3641,space,1.3779,0,80,80,38,1,,,63474e67a5fd298c6103c409,643772d7c8805de25329625b,2023-04-12_22h39.50.422,PRaM,2021.2.3,Win32,60.13952369,61b8f3437b89212fae0dfade
6,2.1278,space,0.3084,0,81,81,358,1,,,63474e67a5fd298c6103c409,643772d7c8805de25329625b,2023-04-12_22h39.50.422,PRaM,2021.2.3,Win32,60.13952369,61b8f3437b89212fae0dfade
4,2.4729,space,0.6193,0,82,82,306,1,,,63474e67a5fd298c6103c409,643772d7c8805de25329625b,2023-04-12_22h39.50.422,PRaM,2021.2.3,Win32,60.13952369,61b8f3437b89212fae0dfade
5,3.8134,space,2.3546,0,83,83,267,1,,,63474e67a5fd298c6103c409,643772d7c8805de25329625b,2023-04-12_22h39.50.422,PRaM,2021.2.3,Win32,60.13952369,61b8f3437b89212fae0dfade
2,2.3791,space,0.8916,0,84,84,295,1,,,63474e67a5fd298c6103c409,643772d7c8805de25329625b,2023-04-12_22h39.50.422,PRaM,2021.2.3,Win32,60.13952369,61b8f3437b89212fae0dfade
4,3.0294,space,1.1689,0,85,85,86,1,,,63474e67a5fd298c6103c409,643772d7c8805de25329625b,2023-04-12_22h39.50.422,PRaM,2021.2.3,Win32,60.13952369,61b8f3437b89212fae0dfade
2,4.2073,space,2.3941,0,86,86,94,1,,,63474e67a5fd298c6103c409,643772d7c8805de25329625b,2023-04-12_22h39.50.422,PRaM,2021.2.3,Win32,60.13952369,61b8f3437b89212fae0dfade
6,2.0885,space,0.3004,0,87,87,127,1,,,63474e67a5fd298c6103c409,643772d7c8805de25329625b,2023-04-12_22h39.50.422,PRaM,2021.2.3,Win32,60.13952369,61b8f3437b89212fae0dfade
6,2.5994,space,0.8676,0,88,88,117,1,,,63474e67a5fd298c6103c409,643772d7c8805de25329625b,2023-04-12_22h39.50.422,PRaM,2021.2.3,Win32,60.13952369,61b8f3437b89212fae0dfade
4,1.8061,space,0.7794,0,89,89,124,1,,,63474e67a5fd298c6103c409,643772d7c8805de25329625b,2023-04-12_22h39.50.422,PRaM,2021.2.3,Win32,60.13952369,61b8f3437b89212fae0dfade
3,1.809,space,0.1024,0,90,90,374,1,,,63474e67a5fd298c6103c409,643772d7c8805de25329625b,2023-04-12_22h39.50.422,PRaM,2021.2.3,Win32,60.13952369,61b8f3437b89212fae0dfade
2,1.8754,space,0.2763,0,91,91,232,1,,,63474e67a5fd298c6103c409,643772d7c8805de25329625b,2023-04-12_22h39.50.422,PRaM,2021.2.3,Win32,60.13952369,61b8f3437b89212fae0dfade
3,1.9216,space,0.2925,0,92,92,344,1,,,63474e67a5fd298c6103c409,643772d7c8805de25329625b,2023-04-12_22h39.50.422,PRaM,2021.2.3,Win32,60.13952369,61b8f3437b89212fae0dfade
4,2.0073,space,0.1672,0,93,93,362,1,,,63474e67a5fd298c6103c409,643772d7c8805de25329625b,2023-04-12_22h39.50.422,PRaM,2021.2.3,Win32,60.13952369,61b8f3437b89212fae0dfade
3,2.4975,space,0.7678,0,94,94,184,1,,,63474e67a5fd298c6103c409,643772d7c8805de25329625b,2023-04-12_22h39.50.422,PRaM,2021.2.3,Win32,60.13952369,61b8f3437b89212fae0dfade
4,3.3279,space,1.4917,0,95,95,97,1,,,63474e67a5fd298c6103c409,643772d7c8805de25329625b,2023-04-12_22h39.50.422,PRaM,2021.2.3,Win32,60.13952369,61b8f3437b89212fae0dfade
6,1.8627,space,0.0677,0,96,96,326,1,,,63474e67a5fd298c6103c409,643772d7c8805de25329625b,2023-04-12_22h39.50.422,PRaM,2021.2.3,Win32,60.13952369,61b8f3437b89212fae0dfade
7,1.7776,space,0.1176,0,97,97,45,1,,,63474e67a5fd298c6103c409,643772d7c8805de25329625b,2023-04-12_22h39.50.422,PRaM,2021.2.3,Win32,60.13952369,61b8f3437b89212fae0dfade
3,1.8725,space,0.1761,0,98,98,243,1,,,63474e67a5fd298c6103c409,643772d7c8805de25329625b,2023-04-12_22h39.50.422,PRaM,2021.2.3,Win32,60.13952369,61b8f3437b89212fae0dfade
2,2.2733,space,0.4217,0,99,99,188,1,,,63474e67a5fd298c6103c409,643772d7c8805de25329625b,2023-04-12_22h39.50.422,PRaM,2021.2.3,Win32,60.13952369,61b8f3437b89212fae0dfade
3,1.5137,space,0.3535,0,100,100,82,1,,,63474e67a5fd298c6103c409,643772d7c8805de25329625b,2023-04-12_22h39.50.422,PRaM,2021.2.3,Win32,60.13952369,61b8f3437b89212fae0dfade
7,3.2826,space,1.4757,0,101,101,207,1,,,63474e67a5fd298c6103c409,643772d7c8805de25329625b,2023-04-12_22h39.50.422,PRaM,2021.2.3,Win32,60.13952369,61b8f3437b89212fae0dfade
3,1.9728,space,0.1313,0,102,102,27,1,,,63474e67a5fd298c6103c409,643772d7c8805de25329625b,2023-04-12_22h39.50.422,PRaM,2021.2.3,Win32,60.13952369,61b8f3437b89212fae0dfade
2,1.5902,space,0.0371,0,103,103,99,1,,,63474e67a5fd298c6103c409,643772d7c8805de25329625b,2023-04-12_22h39.50.422,PRaM,2021.2.3,Win32,60.13952369,61b8f3437b89212fae0dfade
3,1.9765,space,0.3023,0,104,104,216,1,,,63474e67a5fd298c6103c409,643772d7c8805de25329625b,2023-04-12_22h39.50.422,PRaM,2021.2.3,Win32,60.13952369,61b8f3437b89212fae0dfade
4,3.1574,space,1.4342,0,105,105,364,1,,,63474e67a5fd298c6103c409,643772d7c8805de25329625b,2023-04-12_22h39.50.422,PRaM,2021.2.3,Win32,60.13952369,61b8f3437b89212fae0dfade
3,4.8477,space,3.2508,0,106,106,279,1,,,63474e67a5fd298c6103c409,643772d7c8805de25329625b,2023-04-12_22h39.50.422,PRaM,2021.2.3,Win32,60.13952369,61b8f3437b89212fae0dfade
4,10.0458,space,8.9865,0,107,107,291,1,,,63474e67a5fd298c6103c409,643772d7c8805de25329625b,2023-04-12_22h39.50.422,PRaM,2021.2.3,Win32,60.13952369,61b8f3437b89212fae0dfade
5,2.0724,space,0.2897,0,108,108,123,1,,,63474e67a5fd298c6103c409,643772d7c8805de25329625b,2023-04-12_22h39.50.422,PRaM,2021.2.3,Win32,60.13952369,61b8f3437b89212fae0dfade
2,3.2533,space,1.5026,0,109,109,273,1,,,63474e67a5fd298c6103c409,643772d7c8805de25329625b,2023-04-12_22h39.50.422,PRaM,2021.2.3,Win32,60.13952369,61b8f3437b89212fae0dfade
4,17.882,space,16.0234,0,110,110,130,1,,,63474e67a5fd298c6103c409,643772d7c8805de25329625b,2023-04-12_22h39.50.422,PRaM,2021.2.3,Win32,60.13952369,61b8f3437b89212fae0dfade
5,2.1056,space,1.5874,0,111,111,365,1,,,63474e67a5fd298c6103c409,643772d7c8805de25329625b,2023-04-12_22h39.50.422,PRaM,2021.2.3,Win32,60.13952369,61b8f3437b89212fae0dfade
3,3.6723,space,1.9318,0,112,112,234,1,,,63474e67a5fd298c6103c409,643772d7c8805de25329625b,2023-04-12_22h39.50.422,PRaM,2021.2.3,Win32,60.13952369,61b8f3437b89212fae0dfade
2,1.9448,space,0.1483,0,113,113,359,1,,,63474e67a5fd298c6103c409,643772d7c8805de25329625b,2023-04-12_22h39.50.422,PRaM,2021.2.3,Win32,60.13952369,61b8f3437b89212fae0dfade
3,5.2791,space,3.4511,0,114,114,87,1,,,63474e67a5fd298c6103c409,643772d7c8805de25329625b,2023-04-12_22h39.50.422,PRaM,2021.2.3,Win32,60.13952369,61b8f3437b89212fae0dfade
6,2.4218,space,0.6674,0,115,115,53,1,,,63474e67a5fd298c6103c409,643772d7c8805de25329625b,2023-04-12_22h39.50.422,PRaM,2021.2.3,Win32,60.13952369,61b8f3437b89212fae0dfade
4,3.2271,space,1.9559,0,116,116,176,1,,,63474e67a5fd298c6103c409,643772d7c8805de25329625b,2023-04-12_22h39.50.422,PRaM,2021.2.3,Win32,60.13952369,61b8f3437b89212fae0dfade
3,4.7141,space,2.8511,0,117,117,37,1,,,63474e67a5fd298c6103c409,643772d7c8805de25329625b,2023-04-12_22h39.50.422,PRaM,2021.2.3,Win32,60.13952369,61b8f3437b89212fae0dfade
7,2.2917,space,0.5672,0,118,118,137,1,,,63474e67a5fd298c6103c409,643772d7c8805de25329625b,2023-04-12_22h39.50.422,PRaM,2021.2.3,Win32,60.13952369,61b8f3437b89212fae0dfade
6,1.7561,space,0.2387,0,119,119,88,1,,,63474e67a5fd298c6103c409,643772d7c8805de25329625b,2023-04-12_22h39.50.422,PRaM,2021.2.3,Win32,60.13952369,61b8f3437b89212fae0dfade
3,1.8044,space,0.7005,0,120,120,63,1,,,63474e67a5fd298c6103c409,643772d7c8805de25329625b,2023-04-12_22h39.50.422,PRaM,2021.2.3,Win32,60.13952369,61b8f3437b89212fae0dfade
2,2.4062,space,1.2092,0,121,121,360,1,,,63474e67a5fd298c6103c409,643772d7c8805de25329625b,2023-04-12_22h39.50.422,PRaM,2021.2.3,Win32,60.13952369,61b8f3437b89212fae0dfade
6,2.0231,space,0.1983,0,122,122,310,1,,,63474e67a5fd298c6103c409,643772d7c8805de25329625b,2023-04-12_22h39.50.422,PRaM,2021.2.3,Win32,60.13952369,61b8f3437b89212fae0dfade
7,2.6754,space,0.838,0,123,123,49,1,,,63474e67a5fd298c6103c409,643772d7c8805de25329625b,2023-04-12_22h39.50.422,PRaM,2021.2.3,Win32,60.13952369,61b8f3437b89212fae0dfade
3,2.9528,space,1.1069,0,124,124,77,1,,,63474e67a5fd298c6103c409,643772d7c8805de25329625b,2023-04-12_22h39.50.422,PRaM,2021.2.3,Win32,60.13952369,61b8f3437b89212fae0dfade
2,5.649,space,3.8178,0,125,125,79,1,,,63474e67a5fd298c6103c409,643772d7c8805de25329625b,2023-04-12_22h39.50.422,PRaM,2021.2.3,Win32,60.13952369,61b8f3437b89212fae0dfade
2,1.897,space,0.0545,0,126,126,218,1,,,63474e67a5fd298c6103c409,643772d7c8805de25329625b,2023-04-12_22h39.50.422,PRaM,2021.2.3,Win32,60.13952369,61b8f3437b89212fae0dfade
3,1.795,space,0.0482,0,127,127,9,1,,,63474e67a5fd298c6103c409,643772d7c8805de25329625b,2023-04-12_22h39.50.422,PRaM,2021.2.3,Win32,60.13952369,61b8f3437b89212fae0dfade
2,1.5523,space,0.3675,0,128,128,214,1,,,63474e67a5fd298c6103c409,643772d7c8805de25329625b,2023-04-12_22h39.50.422,PRaM,2021.2.3,Win32,60.13952369,61b8f3437b89212fae0dfade
2,2.3907,space,0.7238,0,129,129,133,1,,,63474e67a5fd298c6103c409,643772d7c8805de25329625b,2023-04-12_22h39.50.422,PRaM,2021.2.3,Win32,60.13952369,61b8f3437b89212fae0dfade
3,2.1125,space,0.2408,0,130,130,258,1,,,63474e67a5fd298c6103c409,643772d7c8805de25329625b,2023-04-12_22h39.50.422,PRaM,2021.2.3,Win32,60.13952369,61b8f3437b89212fae0dfade
6,2.423,space,0.6469,0,131,131,350,1,,,63474e67a5fd298c6103c409,643772d7c8805de25329625b,2023-04-12_22h39.50.422,PRaM,2021.2.3,Win32,60.13952369,61b8f3437b89212fae0dfade
5,1.4953,space,0.2849,0,132,132,346,1,,,63474e67a5fd298c6103c409,643772d7c8805de25329625b,2023-04-12_22h39.50.422,PRaM,2021.2.3,Win32,60.13952369,61b8f3437b89212fae0dfade
6,2.1729,space,0.4348,0,133,133,368,1,,,63474e67a5fd298c6103c409,643772d7c8805de25329625b,2023-04-12_22h39.50.422,PRaM,2021.2.3,Win32,60.13952369,61b8f3437b89212fae0dfade
3,1.8635,space,0.0668,0,134,134,352,1,,,63474e67a5fd298c6103c409,643772d7c8805de25329625b,2023-04-12_22h39.50.422,PRaM,2021.2.3,Win32,60.13952369,61b8f3437b89212fae0dfade
2,2.3331,space,0.7173,0,135,135,76,1,,,63474e67a5fd298c6103c409,643772d7c8805de25329625b,2023-04-12_22h39.50.422,PRaM,2021.2.3,Win32,60.13952369,61b8f3437b89212fae0dfade
2,4.3651,space,2.6331,0,136,136,294,1,,,63474e67a5fd298c6103c409,643772d7c8805de25329625b,2023-04-12_22h39.50.422,PRaM,2021.2.3,Win32,60.13952369,61b8f3437b89212fae0dfade
3,1.256,space,0.3035,0,137,137,290,1,,,63474e67a5fd298c6103c409,643772d7c8805de25329625b,2023-04-12_22h39.50.422,PRaM,2021.2.3,Win32,60.13952369,61b8f3437b89212fae0dfade
2,4.1476,space,2.4727,0,138,138,338,1,,,63474e67a5fd298c6103c409,643772d7c8805de25329625b,2023-04-12_22h39.50.422,PRaM,2021.2.3,Win32,60.13952369,61b8f3437b89212fae0dfade
2,1.9735,space,0.1786,0,139,139,43,1,,,63474e67a5fd298c6103c409,643772d7c8805de25329625b,2023-04-12_22h39.50.422,PRaM,2021.2.3,Win32,60.13952369,61b8f3437b89212fae0dfade
6,1.9397,space,0.1988,0,140,140,377,1,,,63474e67a5fd298c6103c409,643772d7c8805de25329625b,2023-04-12_22h39.50.422,PRaM,2021.2.3,Win32,60.13952369,61b8f3437b89212fae0dfade
3,2.2646,space,0.439,0,141,141,190,1,,,63474e67a5fd298c6103c409,643772d7c8805de25329625b,2023-04-12_22h39.50.422,PRaM,2021.2.3,Win32,60.13952369,61b8f3437b89212fae0dfade
3,24.5898,space,23.372,0,142,142,58,1,,,63474e67a5fd298c6103c409,643772d7c8805de25329625b,2023-04-12_22h39.50.422,PRaM,2021.2.3,Win32,60.13952369,61b8f3437b89212fae0dfade
7,3.2635,space,1.5849,0,143,143,325,1,,,63474e67a5fd298c6103c409,643772d7c8805de25329625b,2023-04-12_22h39.50.422,PRaM,2021.2.3,Win32,60.13952369,61b8f3437b89212fae0dfade
2,5.4105,space,3.7336,0,144,144,231,1,,,63474e67a5fd298c6103c409,643772d7c8805de25329625b,2023-04-12_22h39.50.422,PRaM,2021.2.3,Win32,60.13952369,61b8f3437b89212fae0dfade
5,2.2393,space,0.4747,0,145,145,370,1,,,63474e67a5fd298c6103c409,643772d7c8805de25329625b,2023-04-12_22h39.50.422,PRaM,2021.2.3,Win32,60.13952369,61b8f3437b89212fae0dfade
3,2.0559,space,0.4507,0,146,146,343,1,,,63474e67a5fd298c6103c409,643772d7c8805de25329625b,2023-04-12_22h39.50.422,PRaM,2021.2.3,Win32,60.13952369,61b8f3437b89212fae0dfade
2,2.6498,space,0.8263,0,147,147,315,1,,,63474e67a5fd298c6103c409,643772d7c8805de25329625b,2023-04-12_22h39.50.422,PRaM,2021.2.3,Win32,60.13952369,61b8f3437b89212fae0dfade
6,5.1492,space,3.3364,0,148,148,305,1,,,63474e67a5fd298c6103c409,643772d7c8805de25329625b,2023-04-12_22h39.50.422,PRaM,2021.2.3,Win32,60.13952369,61b8f3437b89212fae0dfade
5,2.2891,space,1.1171,0,149,149,153,1,,,63474e67a5fd298c6103c409,643772d7c8805de25329625b,2023-04-12_22h39.50.422,PRaM,2021.2.3,Win32,60.13952369,61b8f3437b89212fae0dfade
3,3.0829,space,1.8674,0,150,150,349,1,,,63474e67a5fd298c6103c409,643772d7c8805de25329625b,2023-04-12_22h39.50.422,PRaM,2021.2.3,Win32,60.13952369,61b8f3437b89212fae0dfade
2,4.1367,space,2.4464,0,151,151,299,1,,,63474e67a5fd298c6103c409,643772d7c8805de25329625b,2023-04-12_22h39.50.422,PRaM,2021.2.3,Win32,60.13952369,61b8f3437b89212fae0dfade
3,1.8993,space,0.1887,0,152,152,211,1,,,63474e67a5fd298c6103c409,643772d7c8805de25329625b,2023-04-12_22h39.50.422,PRaM,2021.2.3,Win32,60.13952369,61b8f3437b89212fae0dfade
4,2.2748,space,0.4438,0,153,153,71,1,,,63474e67a5fd298c6103c409,643772d7c8805de25329625b,2023-04-12_22h39.50.422,PRaM,2021.2.3,Win32,60.13952369,61b8f3437b89212fae0dfade
7,1.9569,space,0.1468,0,154,154,336,1,,,63474e67a5fd298c6103c409,643772d7c8805de25329625b,2023-04-12_22h39.50.422,PRaM,2021.2.3,Win32,60.13952369,61b8f3437b89212fae0dfade
4,2.2722,space,0.5341,0,155,155,342,1,,,63474e67a5fd298c6103c409,643772d7c8805de25329625b,2023-04-12_22h39.50.422,PRaM,2021.2.3,Win32,60.13952369,61b8f3437b89212fae0dfade
2,3.308,space,1.4918,0,156,156,266,1,,,63474e67a5fd298c6103c409,643772d7c8805de25329625b,2023-04-12_22h39.50.422,PRaM,2021.2.3,Win32,60.13952369,61b8f3437b89212fae0dfade
3,1.9309,space,0.2642,0,157,157,52,1,,,63474e67a5fd298c6103c409,643772d7c8805de25329625b,2023-04-12_22h39.50.422,PRaM,2021.2.3,Win32,60.13952369,61b8f3437b89212fae0dfade
2,5.9647,space,4.1051,0,158,158,70,1,,,63474e67a5fd298c6103c409,643772d7c8805de25329625b,2023-04-12_22h39.50.422,PRaM,2021.2.3,Win32,60.13952369,61b8f3437b89212fae0dfade
4,2.2893,space,0.8226,0,159,159,348,1,,,63474e67a5fd298c6103c409,643772d7c8805de25329625b,2023-04-12_22h39.50.422,PRaM,2021.2.3,Win32,60.13952369,61b8f3437b89212fae0dfade
2,2.9566,space,1.0935,0,160,160,248,1,,,63474e67a5fd298c6103c409,643772d7c8805de25329625b,2023-04-12_22h39.50.422,PRaM,2021.2.3,Win32,60.13952369,61b8f3437b89212fae0dfade
6,2.2116,space,0.4674,0,161,161,225,1,,,63474e67a5fd298c6103c409,643772d7c8805de25329625b,2023-04-12_22h39.50.422,PRaM,2021.2.3,Win32,60.13952369,61b8f3437b89212fae0dfade
3,5.4143,space,3.6401,0,162,162,57,1,,,63474e67a5fd298c6103c409,643772d7c8805de25329625b,2023-04-12_22h39.50.422,PRaM,2021.2.3,Win32,60.13952369,61b8f3437b89212fae0dfade
7,3.3117,space,1.7008,0,163,163,300,1,,,63474e67a5fd298c6103c409,643772d7c8805de25329625b,2023-04-12_22h39.50.422,PRaM,2021.2.3,Win32,60.13952369,61b8f3437b89212fae0dfade
3,3.3744,space,1.5354,0,164,164,95,1,,,63474e67a5fd298c6103c409,643772d7c8805de25329625b,2023-04-12_22h39.50.422,PRaM,2021.2.3,Win32,60.13952369,61b8f3437b89212fae0dfade
2,2.0402,space,0.2326,0,165,165,121,1,,,63474e67a5fd298c6103c409,643772d7c8805de25329625b,2023-04-12_22h39.50.422,PRaM,2021.2.3,Win32,60.13952369,61b8f3437b89212fae0dfade
3,3.7641,space,2.1273,0,166,166,116,1,,,63474e67a5fd298c6103c409,643772d7c8805de25329625b,2023-04-12_22h39.50.422,PRaM,2021.2.3,Win32,60.13952369,61b8f3437b89212fae0dfade
2,2.8878,space,1.2521,0,167,167,135,1,,,63474e67a5fd298c6103c409,643772d7c8805de25329625b,2023-04-12_22h39.50.422,PRaM,2021.2.3,Win32,60.13952369,61b8f3437b89212fae0dfade
7,6.9715,space,5.2802,0,168,168,14,1,,,63474e67a5fd298c6103c409,643772d7c8805de25329625b,2023-04-12_22h39.50.422,PRaM,2021.2.3,Win32,60.13952369,61b8f3437b89212fae0dfade
7,1.7967,space,0.1343,0,169,169,35,1,,,63474e67a5fd298c6103c409,643772d7c8805de25329625b,2023-04-12_22h39.50.422,PRaM,2021.2.3,Win32,60.13952369,61b8f3437b89212fae0dfade
8,3.9159,space,2.069,0,170,170,89,1,,,63474e67a5fd298c6103c409,643772d7c8805de25329625b,2023-04-12_22h39.50.422,PRaM,2021.2.3,Win32,60.13952369,61b8f3437b89212fae0dfade
4,4.1663,space,2.3597,0,171,171,11,1,,,63474e67a5fd298c6103c409,643772d7c8805de25329625b,2023-04-12_22h39.50.422,PRaM,2021.2.3,Win32,60.13952369,61b8f3437b89212fae0dfade
5,1.4373,space,0.6508,0,172,172,356,1,,,63474e67a5fd298c6103c409,643772d7c8805de25329625b,2023-04-12_22h39.50.422,PRaM,2021.2.3,Win32,60.13952369,61b8f3437b89212fae0dfade
3,2.0331,space,0.2224,0,173,173,26,1,,,63474e67a5fd298c6103c409,643772d7c8805de25329625b,2023-04-12_22h39.50.422,PRaM,2021.2.3,Win32,60.13952369,61b8f3437b89212fae0dfade
6,2.9059,space,1.0381,0,174,174,177,1,,,63474e67a5fd298c6103c409,643772d7c8805de25329625b,2023-04-12_22h39.50.422,PRaM,2021.2.3,Win32,60.13952369,61b8f3437b89212fae0dfade
7,1.8062,space,0.0383,0,175,175,180,1,,,63474e67a5fd298c6103c409,643772d7c8805de25329625b,2023-04-12_22h39.50.422,PRaM,2021.2.3,Win32,60.13952369,61b8f3437b89212fae0dfade
7,2.2224,space,0.3682,0,176,176,142,1,,,63474e67a5fd298c6103c409,643772d7c8805de25329625b,2023-04-12_22h39.50.422,PRaM,2021.2.3,Win32,60.13952369,61b8f3437b89212fae0dfade
8,1.5955,space,1.0532,0,177,177,136,1,,,63474e67a5fd298c6103c409,643772d7c8805de25329625b,2023-04-12_22h39.50.422,PRaM,2021.2.3,Win32,60.13952369,61b8f3437b89212fae0dfade
3,1.7643,space,0.0891,0,178,178,125,1,,,63474e67a5fd298c6103c409,643772d7c8805de25329625b,2023-04-12_22h39.50.422,PRaM,2021.2.3,Win32,60.13952369,61b8f3437b89212fae0dfade
3,1.2935,space,0.4985,0,179,179,151,1,,,63474e67a5fd298c6103c409,643772d7c8805de25329625b,2023-04-12_22h39.50.422,PRaM,2021.2.3,Win32,60.13952369,61b8f3437b89212fae0dfade
6,1.7167,space,0.436,0,180,180,30,1,,,63474e67a5fd298c6103c409,643772d7c8805de25329625b,2023-04-12_22h39.50.422,PRaM,2021.2.3,Win32,60.13952369,61b8f3437b89212fae0dfade
4,2.133,space,0.4049,0,181,181,353,1,,,63474e67a5fd298c6103c409,643772d7c8805de25329625b,2023-04-12_22h39.50.422,PRaM,2021.2.3,Win32,60.13952369,61b8f3437b89212fae0dfade
3,1.5727,space,0.3464,0,182,182,48,1,,,63474e67a5fd298c6103c409,643772d7c8805de25329625b,2023-04-12_22h39.50.422,PRaM,2021.2.3,Win32,60.13952369,61b8f3437b89212fae0dfade
4,4.3574,space,2.8504,0,183,183,107,1,,,63474e67a5fd298c6103c409,643772d7c8805de25329625b,2023-04-12_22h39.50.422,PRaM,2021.2.3,Win32,60.13952369,61b8f3437b89212fae0dfade
5,1.8828,space,0.2676,0,184,184,175,1,,,63474e67a5fd298c6103c409,643772d7c8805de25329625b,2023-04-12_22h39.50.422,PRaM,2021.2.3,Win32,60.13952369,61b8f3437b89212fae0dfade
7,4.4789,space,2.6516,0,185,185,120,1,,,63474e67a5fd298c6103c409,643772d7c8805de25329625b,2023-04-12_22h39.50.422,PRaM,2021.2.3,Win32,60.13952369,61b8f3437b89212fae0dfade
3,2.59,space,1.0533,0,186,186,69,1,,,63474e67a5fd298c6103c409,643772d7c8805de25329625b,2023-04-12_22h39.50.422,PRaM,2021.2.3,Win32,60.13952369,61b8f3437b89212fae0dfade
4,6.2446,space,4.4717,0,187,187,182,1,,,63474e67a5fd298c6103c409,643772d7c8805de25329625b,2023-04-12_22h39.50.422,PRaM,2021.2.3,Win32,60.13952369,61b8f3437b89212fae0dfade
3,2.1803,space,0.7962,0,188,188,147,1,,,63474e67a5fd298c6103c409,643772d7c8805de25329625b,2023-04-12_22h39.50.422,PRaM,2021.2.3,Win32,60.13952369,61b8f3437b89212fae0dfade
7,2.0041,space,0.3173,0,189,189,334,1,,,63474e67a5fd298c6103c409,643772d7c8805de25329625b,2023-04-12_22h39.50.422,PRaM,2021.2.3,Win32,60.13952369,61b8f3437b89212fae0dfade
3,2.8893,space,1.0844,0,190,190,345,1,,,63474e67a5fd298c6103c409,643772d7c8805de25329625b,2023-04-12_22h39.50.422,PRaM,2021.2.3,Win32,60.13952369,61b8f3437b89212fae0dfade
2,1.8392,space,0.0843,0,191,191,91,1,,,63474e67a5fd298c6103c409,643772d7c8805de25329625b,2023-04-12_22h39.50.422,PRaM,2021.2.3,Win32,60.13952369,61b8f3437b89212fae0dfade
6,2.332,space,0.5675,0,192,192,19,1,,,63474e67a5fd298c6103c409,643772d7c8805de25329625b,2023-04-12_22h39.50.422,PRaM,2021.2.3,Win32,60.13952369,61b8f3437b89212fae0dfade
5,2.7936,space,0.9676,0,193,193,317,1,,,63474e67a5fd298c6103c409,643772d7c8805de25329625b,2023-04-12_22h39.50.422,PRaM,2021.2.3,Win32,60.13952369,61b8f3437b89212fae0dfade
3,3.2062,space,1.7509,0,194,194,171,1,,,63474e67a5fd298c6103c409,643772d7c8805de25329625b,2023-04-12_22h39.50.422,PRaM,2021.2.3,Win32,60.13952369,61b8f3437b89212fae0dfade
2,1.8289,space,0.5175,0,195,195,263,1,,,63474e67a5fd298c6103c409,643772d7c8805de25329625b,2023-04-12_22h39.50.422,PRaM,2021.2.3,Win32,60.13952369,61b8f3437b89212fae0dfade
8,2.4659,space,0.7675,0,196,196,119,1,,,63474e67a5fd298c6103c409,643772d7c8805de25329625b,2023-04-12_22h39.50.422,PRaM,2021.2.3,Win32,60.13952369,61b8f3437b89212fae0dfade
1,4.1571,space,2.5247,0,197,197,131,1,,,63474e67a5fd298c6103c409,643772d7c8805de25329625b,2023-04-12_22h39.50.422,PRaM,2021.2.3,Win32,60.13952369,61b8f3437b89212fae0dfade
4,5.2675,space,3.6573,0,198,198,339,1,,,63474e67a5fd298c6103c409,643772d7c8805de25329625b,2023-04-12_22h39.50.422,PRaM,2021.2.3,Win32,60.13952369,61b8f3437b89212fae0dfade
3,64.101,space,62.7679,0,199,199,230,1,,,63474e67a5fd298c6103c409,643772d7c8805de25329625b,2023-04-12_22h39.50.422,PRaM,2021.2.3,Win32,60.13952369,61b8f3437b89212fae0dfade
6,2.6522,space,0.82,0,200,200,205,1,,,63474e67a5fd298c6103c409,643772d7c8805de25329625b,2023-04-12_22h39.50.422,PRaM,2021.2.3,Win32,60.13952369,61b8f3437b89212fae0dfade
7,3.2389,space,1.4885,0,201,201,340,1,,,63474e67a5fd298c6103c409,643772d7c8805de25329625b,2023-04-12_22h39.50.422,PRaM,2021.2.3,Win32,60.13952369,61b8f3437b89212fae0dfade
4,1.9413,space,0.1679,0,202,202,226,1,,,63474e67a5fd298c6103c409,643772d7c8805de25329625b,2023-04-12_22h39.50.422,PRaM,2021.2.3,Win32,60.13952369,61b8f3437b89212fae0dfade
2,1.9895,space,0.3017,0,203,203,284,1,,,63474e67a5fd298c6103c409,643772d7c8805de25329625b,2023-04-12_22h39.50.422,PRaM,2021.2.3,Win32,60.13952369,61b8f3437b89212fae0dfade
2,2.1059,space,0.3249,0,204,204,62,1,,,63474e67a5fd298c6103c409,643772d7c8805de25329625b,2023-04-12_22h39.50.422,PRaM,2021.2.3,Win32,60.13952369,61b8f3437b89212fae0dfade
3,2.4545,space,0.7562,0,205,205,165,1,,,63474e67a5fd298c6103c409,643772d7c8805de25329625b,2023-04-12_22h39.50.422,PRaM,2021.2.3,Win32,60.13952369,61b8f3437b89212fae0dfade
4,2.4461,space,0.5841,0,206,206,73,1,,,63474e67a5fd298c6103c409,643772d7c8805de25329625b,2023-04-12_22h39.50.422,PRaM,2021.2.3,Win32,60.13952369,61b8f3437b89212fae0dfade
2,1.7727,space,0.513,0,207,207,240,1,,,63474e67a5fd298c6103c409,643772d7c8805de25329625b,2023-04-12_22h39.50.422,PRaM,2021.2.3,Win32,60.13952369,61b8f3437b89212fae0dfade
6,1.683,space,0.3842,0,208,208,6,1,,,63474e67a5fd298c6103c409,643772d7c8805de25329625b,2023-04-12_22h39.50.422,PRaM,2021.2.3,Win32,60.13952369,61b8f3437b89212fae0dfade
4,3.4404,space,1.6249,0,209,209,259,1,,,63474e67a5fd298c6103c409,643772d7c8805de25329625b,2023-04-12_22h39.50.422,PRaM,2021.2.3,Win32,60.13952369,61b8f3437b89212fae0dfade
7,1.79,space,0.4298,0,210,210,271,1,,,63474e67a5fd298c6103c409,643772d7c8805de25329625b,2023-04-12_22h39.50.422,PRaM,2021.2.3,Win32,60.13952369,61b8f3437b89212fae0dfade
3,2.4708,space,0.6094,0,211,211,157,1,,,63474e67a5fd298c6103c409,643772d7c8805de25329625b,2023-04-12_22h39.50.422,PRaM,2021.2.3,Win32,60.13952369,61b8f3437b89212fae0dfade
2,1.4075,space,0.1234,0,212,212,64,1,,,63474e67a5fd298c6103c409,643772d7c8805de25329625b,2023-04-12_22h39.50.422,PRaM,2021.2.3,Win32,60.13952369,61b8f3437b89212fae0dfade
4,1.4281,space,0.0194,0,213,213,303,1,,,63474e67a5fd298c6103c409,643772d7c8805de25329625b,2023-04-12_22h39.50.422,PRaM,2021.2.3,Win32,60.13952369,61b8f3437b89212fae0dfade
1,1.79,space,0.0507,0,214,214,246,1,,,63474e67a5fd298c6103c409,643772d7c8805de25329625b,2023-04-12_22h39.50.422,PRaM,2021.2.3,Win32,60.13952369,61b8f3437b89212fae0dfade
2,1.3891,space,0.0006,0,215,215,347,1,,,63474e67a5fd298c6103c409,643772d7c8805de25329625b,2023-04-12_22h39.50.422,PRaM,2021.2.3,Win32,60.13952369,61b8f3437b89212fae0dfade
7,1.8403,space,0.1173,0,216,216,196,1,,,63474e67a5fd298c6103c409,643772d7c8805de25329625b,2023-04-12_22h39.50.422,PRaM,2021.2.3,Win32,60.13952369,61b8f3437b89212fae0dfade
3,2.1781,space,0.4359,0,217,217,155,1,,,63474e67a5fd298c6103c409,643772d7c8805de25329625b,2023-04-12_22h39.50.422,PRaM,2021.2.3,Win32,60.13952369,61b8f3437b89212fae0dfade
2,2.0422,space,0.4338,0,218,218,249,1,,,63474e67a5fd298c6103c409,643772d7c8805de25329625b,2023-04-12_22h39.50.422,PRaM,2021.2.3,Win32,60.13952369,61b8f3437b89212fae0dfade
2,1.6232,space,0.3173,0,219,219,324,1,,,63474e67a5fd298c6103c409,643772d7c8805de25329625b,2023-04-12_22h39.50.422,PRaM,2021.2.3,Win32,60.13952369,61b8f3437b89212fae0dfade
4,1.4967,space,0.1442,0,220,220,283,1,,,63474e67a5fd298c6103c409,643772d7c8805de25329625b,2023-04-12_22h39.50.422,PRaM,2021.2.3,Win32,60.13952369,61b8f3437b89212fae0dfade
3,1.7683,space,0.0076,0,221,221,122,1,,,63474e67a5fd298c6103c409,643772d7c8805de25329625b,2023-04-12_22h39.50.422,PRaM,2021.2.3,Win32,60.13952369,61b8f3437b89212fae0dfade
2,1.5563,space,0.3383,0,222,222,245,1,,,63474e67a5fd298c6103c409,643772d7c8805de25329625b,2023-04-12_22h39.50.422,PRaM,2021.2.3,Win32,60.13952369,61b8f3437b89212fae0dfade
2,1.4898,space,0.1256,0,223,223,269,1,,,63474e67a5fd298c6103c409,643772d7c8805de25329625b,2023-04-12_22h39.50.422,PRaM,2021.2.3,Win32,60.13952369,61b8f3437b89212fae0dfade
6,2.223,space,0.4671,0,224,224,181,1,,,63474e67a5fd298c6103c409,643772d7c8805de25329625b,2023-04-12_22h39.50.422,PRaM,2021.2.3,Win32,60.13952369,61b8f3437b89212fae0dfade
8,3.3153,space,1.7176,0,225,225,59,1,,,63474e67a5fd298c6103c409,643772d7c8805de25329625b,2023-04-12_22h39.50.422,PRaM,2021.2.3,Win32,60.13952369,61b8f3437b89212fae0dfade
3,1.7116,space,0.0682,0,226,226,247,1,,,63474e67a5fd298c6103c409,643772d7c8805de25329625b,2023-04-12_22h39.50.422,PRaM,2021.2.3,Win32,60.13952369,61b8f3437b89212fae0dfade
4,2.4967,space,0.7838,0,227,227,268,1,,,63474e67a5fd298c6103c409,643772d7c8805de25329625b,2023-04-12_22h39.50.422,PRaM,2021.2.3,Win32,60.13952369,61b8f3437b89212fae0dfade
9,3.4192,space,1.9424,0,228,228,323,1,,,63474e67a5fd298c6103c409,643772d7c8805de25329625b,2023-04-12_22h39.50.422,PRaM,2021.2.3,Win32,60.13952369,61b8f3437b89212fae0dfade
1,2.1065,space,0.5875,0,229,229,67,1,,,63474e67a5fd298c6103c409,643772d7c8805de25329625b,2023-04-12_22h39.50.422,PRaM,2021.2.3,Win32,60.13952369,61b8f3437b89212fae0dfade
3,1.9739,space,0.142,0,230,230,185,1,,,63474e67a5fd298c6103c409,643772d7c8805de25329625b,2023-04-12_22h39.50.422,PRaM,2021.2.3,Win32,60.13952369,61b8f3437b89212fae0dfade
4,2.5449,space,0.7966,0,231,231,309,1,,,63474e67a5fd298c6103c409,643772d7c8805de25329625b,2023-04-12_22h39.50.422,PRaM,2021.2.3,Win32,60.13952369,61b8f3437b89212fae0dfade
2,1.726,space,0.2506,0,232,232,128,1,,,63474e67a5fd298c6103c409,643772d7c8805de25329625b,2023-04-12_22h39.50.422,PRaM,2021.2.3,Win32,60.13952369,61b8f3437b89212fae0dfade
3,1.6056,space,0.0469,0,233,233,357,1,,,63474e67a5fd298c6103c409,643772d7c8805de25329625b,2023-04-12_22h39.50.422,PRaM,2021.2.3,Win32,60.13952369,61b8f3437b89212fae0dfade
2,1.9067,space,0.9079,0,234,234,39,1,,,63474e67a5fd298c6103c409,643772d7c8805de25329625b,2023-04-12_22h39.50.422,PRaM,2021.2.3,Win32,60.13952369,61b8f3437b89212fae0dfade
2,2.1109,space,0.4267,0,235,235,229,1,,,63474e67a5fd298c6103c409,643772d7c8805de25329625b,2023-04-12_22h39.50.422,PRaM,2021.2.3,Win32,60.13952369,61b8f3437b89212fae0dfade
2,1.6235,space,0.1159,0,236,236,191,1,,,63474e67a5fd298c6103c409,643772d7c8805de25329625b,2023-04-12_22h39.50.422,PRaM,2021.2.3,Win32,60.13952369,61b8f3437b89212fae0dfade
2,1.3597,space,1.3554,0,237,237,237,1,,,63474e67a5fd298c6103c409,643772d7c8805de25329625b,2023-04-12_22h39.50.422,PRaM,2021.2.3,Win32,60.13952369,61b8f3437b89212fae0dfade
2,28.2193,space,26.4016,0,238,238,18,1,,,63474e67a5fd298c6103c409,643772d7c8805de25329625b,2023-04-12_22h39.50.422,PRaM,2021.2.3,Win32,60.13952369,61b8f3437b89212fae0dfade
8,2.6663,space,1.1675,0,239,239,197,1,,,63474e67a5fd298c6103c409,643772d7c8805de25329625b,2023-04-12_22h39.50.422,PRaM,2021.2.3,Win32,60.13952369,61b8f3437b89212fae0dfade
4,1.7222,space,0.3639,0,240,240,113,1,,,63474e67a5fd298c6103c409,643772d7c8805de25329625b,2023-04-12_22h39.50.422,PRaM,2021.2.3,Win32,60.13952369,61b8f3437b89212fae0dfade
3,1.4061,space,0.0703,0,241,241,170,1,,,63474e67a5fd298c6103c409,643772d7c8805de25329625b,2023-04-12_22h39.50.422,PRaM,2021.2.3,Win32,60.13952369,61b8f3437b89212fae0dfade
2,1.4925,space,0.3297,0,242,242,1,1,,,63474e67a5fd298c6103c409,643772d7c8805de25329625b,2023-04-12_22h39.50.422,PRaM,2021.2.3,Win32,60.13952369,61b8f3437b89212fae0dfade
4,1.3326,space,0.3954,0,243,243,143,1,,,63474e67a5fd298c6103c409,643772d7c8805de25329625b,2023-04-12_22h39.50.422,PRaM,2021.2.3,Win32,60.13952369,61b8f3437b89212fae0dfade
3,2.7442,space,0.9348,0,244,244,355,1,,,63474e67a5fd298c6103c409,643772d7c8805de25329625b,2023-04-12_22h39.50.422,PRaM,2021.2.3,Win32,60.13952369,61b8f3437b89212fae0dfade
2,1.7489,space,0.0482,0,245,245,250,1,,,63474e67a5fd298c6103c409,643772d7c8805de25329625b,2023-04-12_22h39.50.422,PRaM,2021.2.3,Win32,60.13952369,61b8f3437b89212fae0dfade
2,2.5012,space,0.8751,0,246,246,330,1,,,63474e67a5fd298c6103c409,643772d7c8805de25329625b,2023-04-12_22h39.50.422,PRaM,2021.2.3,Win32,60.13952369,61b8f3437b89212fae0dfade
3,2.2592,space,0.5339,0,247,247,2,1,,,63474e67a5fd298c6103c409,643772d7c8805de25329625b,2023-04-12_22h39.50.422,PRaM,2021.2.3,Win32,60.13952369,61b8f3437b89212fae0dfade
4,1.773,space,0.0005,0,248,248,257,1,,,63474e67a5fd298c6103c409,643772d7c8805de25329625b,2023-04-12_22h39.50.422,PRaM,2021.2.3,Win32,60.13952369,61b8f3437b89212fae0dfade
8,2.6067,space,0.8532,0,249,249,118,1,,,63474e67a5fd298c6103c409,643772d7c8805de25329625b,2023-04-12_22h39.50.422,PRaM,2021.2.3,Win32,60.13952369,61b8f3437b89212fae0dfade
4,2.3468,space,0.4907,0,250,250,41,1,,,63474e67a5fd298c6103c409,643772d7c8805de25329625b,2023-04-12_22h39.50.422,PRaM,2021.2.3,Win32,60.13952369,61b8f3437b89212fae0dfade
3,1.5732,space,0.2683,0,251,251,373,1,,,63474e67a5fd298c6103c409,643772d7c8805de25329625b,2023-04-12_22h39.50.422,PRaM,2021.2.3,Win32,60.13952369,61b8f3437b89212fae0dfade
4,2.073,space,1.3061,0,252,252,150,1,,,63474e67a5fd298c6103c409,643772d7c8805de25329625b,2023-04-12_22h39.50.422,PRaM,2021.2.3,Win32,60.13952369,61b8f3437b89212fae0dfade
6,2.1743,space,0.4155,0,253,253,33,1,,,63474e67a5fd298c6103c409,643772d7c8805de25329625b,2023-04-12_22h39.50.422,PRaM,2021.2.3,Win32,60.13952369,61b8f3437b89212fae0dfade
2,2.0613,space,0.3342,0,254,254,189,1,,,63474e67a5fd298c6103c409,643772d7c8805de25329625b,2023-04-12_22h39.50.422,PRaM,2021.2.3,Win32,60.13952369,61b8f3437b89212fae0dfade
2,1.4388,space,0.0591,0,255,255,376,1,,,63474e67a5fd298c6103c409,643772d7c8805de25329625b,2023-04-12_22h39.50.422,PRaM,2021.2.3,Win32,60.13952369,61b8f3437b89212fae0dfade
6,1.4919,space,0.1343,0,256,256,361,1,,,63474e67a5fd298c6103c409,643772d7c8805de25329625b,2023-04-12_22h39.50.422,PRaM,2021.2.3,Win32,60.13952369,61b8f3437b89212fae0dfade
5,2.212,space,0.4669,0,257,257,149,1,,,63474e67a5fd298c6103c409,643772d7c8805de25329625b,2023-04-12_22h39.50.422,PRaM,2021.2.3,Win32,60.13952369,61b8f3437b89212fae0dfade
3,1.8915,space,0.1944,0,258,258,96,1,,,63474e67a5fd298c6103c409,643772d7c8805de25329625b,2023-04-12_22h39.50.422,PRaM,2021.2.3,Win32,60.13952369,61b8f3437b89212fae0dfade
2,1.4848,space,0.2764,0,259,259,66,1,,,63474e67a5fd298c6103c409,643772d7c8805de25329625b,2023-04-12_22h39.50.422,PRaM,2021.2.3,Win32,60.13952369,61b8f3437b89212fae0dfade
2,1.24,space,0.6058,0,260,260,227,1,,,63474e67a5fd298c6103c409,643772d7c8805de25329625b,2023-04-12_22h39.50.422,PRaM,2021.2.3,Win32,60.13952369,61b8f3437b89212fae0dfade
3,1.5471,space,0.3466,0,261,261,281,1,,,63474e67a5fd298c6103c409,643772d7c8805de25329625b,2023-04-12_22h39.50.422,PRaM,2021.2.3,Win32,60.13952369,61b8f3437b89212fae0dfade
5,1.3071,space,0.2533,0,262,262,278,1,,,63474e67a5fd298c6103c409,643772d7c8805de25329625b,2023-04-12_22h39.50.422,PRaM,2021.2.3,Win32,60.13952369,61b8f3437b89212fae0dfade
6,5.2706,space,3.5359,0,263,263,158,1,,,63474e67a5fd298c6103c409,643772d7c8805de25329625b,2023-04-12_22h39.50.422,PRaM,2021.2.3,Win32,60.13952369,61b8f3437b89212fae0dfade
3,4.7967,space,2.9427,0,264,264,78,1,,,63474e67a5fd298c6103c409,643772d7c8805de25329625b,2023-04-12_22h39.50.422,PRaM,2021.2.3,Win32,60.13952369,61b8f3437b89212fae0dfade
2,1.6234,space,0.1629,0,265,265,311,1,,,63474e67a5fd298c6103c409,643772d7c8805de25329625b,2023-04-12_22h39.50.422,PRaM,2021.2.3,Win32,60.13952369,61b8f3437b89212fae0dfade
2,3.7973,space,1.9693,0,266,266,224,1,,,63474e67a5fd298c6103c409,643772d7c8805de25329625b,2023-04-12_22h39.50.422,PRaM,2021.2.3,Win32,60.13952369,61b8f3437b89212fae0dfade
2,1.3114,space,0.2057,0,267,267,174,1,,,63474e67a5fd298c6103c409,643772d7c8805de25329625b,2023-04-12_22h39.50.422,PRaM,2021.2.3,Win32,60.13952369,61b8f3437b89212fae0dfade
3,2.8899,space,1.0842,0,268,268,275,1,,,63474e67a5fd298c6103c409,643772d7c8805de25329625b,2023-04-12_22h39.50.422,PRaM,2021.2.3,Win32,60.13952369,61b8f3437b89212fae0dfade
4,1.5723,space,0.0693,0,269,269,20,1,,,63474e67a5fd298c6103c409,643772d7c8805de25329625b,2023-04-12_22h39.50.422,PRaM,2021.2.3,Win32,60.13952369,61b8f3437b89212fae0dfade
3,2.7913,space,0.9676,0,270,270,85,1,,,63474e67a5fd298c6103c409,643772d7c8805de25329625b,2023-04-12_22h39.50.422,PRaM,2021.2.3,Win32,60.13952369,61b8f3437b89212fae0dfade
2,1.2395,space,0.3508,0,271,271,254,1,,,63474e67a5fd298c6103c409,643772d7c8805de25329625b,2023-04-12_22h39.50.422,PRaM,2021.2.3,Win32,60.13952369,61b8f3437b89212fae0dfade
7,2.2157,space,0.5278,0,272,272,341,1,,,63474e67a5fd298c6103c409,643772d7c8805de25329625b,2023-04-12_22h39.50.422,PRaM,2021.2.3,Win32,60.13952369,61b8f3437b89212fae0dfade
3,11.5979,space,10.0225,0,273,273,100,1,,,63474e67a5fd298c6103c409,643772d7c8805de25329625b,2023-04-12_22h39.50.422,PRaM,2021.2.3,Win32,60.13952369,61b8f3437b89212fae0dfade
4,1.8897,space,0.2297,0,274,274,297,1,,,63474e67a5fd298c6103c409,643772d7c8805de25329625b,2023-04-12_22h39.50.422,PRaM,2021.2.3,Win32,60.13952369,61b8f3437b89212fae0dfade
7,2.1934,space,0.4303,0,275,275,4,1,,,63474e67a5fd298c6103c409,643772d7c8805de25329625b,2023-04-12_22h39.50.422,PRaM,2021.2.3,Win32,60.13952369,61b8f3437b89212fae0dfade
6,1.7615,space,0.2502,0,276,276,46,1,,,63474e67a5fd298c6103c409,643772d7c8805de25329625b,2023-04-12_22h39.50.422,PRaM,2021.2.3,Win32,60.13952369,61b8f3437b89212fae0dfade
8,2.0158,space,0.191,0,277,277,126,1,,,63474e67a5fd298c6103c409,643772d7c8805de25329625b,2023-04-12_22h39.50.422,PRaM,2021.2.3,Win32,60.13952369,61b8f3437b89212fae0dfade
5,1.8062,space,0.0008,0,278,278,12,1,,,63474e67a5fd298c6103c409,643772d7c8805de25329625b,2023-04-12_22h39.50.422,PRaM,2021.2.3,Win32,60.13952369,61b8f3437b89212fae0dfade
6,2.0988,space,0.3171,0,279,279,208,1,,,63474e67a5fd298c6103c409,643772d7c8805de25329625b,2023-04-12_22h39.50.422,PRaM,2021.2.3,Win32,60.13952369,61b8f3437b89212fae0dfade
3,2.1055,space,0.8062,0,280,280,159,1,,,63474e67a5fd298c6103c409,643772d7c8805de25329625b,2023-04-12_22h39.50.422,PRaM,2021.2.3,Win32,60.13952369,61b8f3437b89212fae0dfade
3,2.9537,space,1.4006,0,281,281,296,1,,,63474e67a5fd298c6103c409,643772d7c8805de25329625b,2023-04-12_22h39.50.422,PRaM,2021.2.3,Win32,60.13952369,61b8f3437b89212fae0dfade
4,1.7326,space,2.455,0,282,282,318,1,,,63474e67a5fd298c6103c409,643772d7c8805de25329625b,2023-04-12_22h39.50.422,PRaM,2021.2.3,Win32,60.13952369,61b8f3437b89212fae0dfade
7,2.6051,space,0.7676,0,283,283,134,1,,,63474e67a5fd298c6103c409,643772d7c8805de25329625b,2023-04-12_22h39.50.422,PRaM,2021.2.3,Win32,60.13952369,61b8f3437b89212fae0dfade
3,2.7241,space,0.9814,0,284,284,255,1,,,63474e67a5fd298c6103c409,643772d7c8805de25329625b,2023-04-12_22h39.50.422,PRaM,2021.2.3,Win32,60.13952369,61b8f3437b89212fae0dfade
2,2.285,space,0.7172,0,285,285,204,1,,,63474e67a5fd298c6103c409,643772d7c8805de25329625b,2023-04-12_22h39.50.422,PRaM,2021.2.3,Win32,60.13952369,61b8f3437b89212fae0dfade
4,1.4841,space,0.3152,0,286,286,32,1,,,63474e67a5fd298c6103c409,643772d7c8805de25329625b,2023-04-12_22h39.50.422,PRaM,2021.2.3,Win32,60.13952369,61b8f3437b89212fae0dfade
3,2.6432,space,0.8964,0,287,287,10,1,,,63474e67a5fd298c6103c409,643772d7c8805de25329625b,2023-04-12_22h39.50.422,PRaM,2021.2.3,Win32,60.13952369,61b8f3437b89212fae0dfade
6,2.1392,space,0.6007,0,288,288,228,1,,,63474e67a5fd298c6103c409,643772d7c8805de25329625b,2023-04-12_22h39.50.422,PRaM,2021.2.3,Win32,60.13952369,61b8f3437b89212fae0dfade
4,2.7667,space,0.9511,0,289,289,36,1,,,63474e67a5fd298c6103c409,643772d7c8805de25329625b,2023-04-12_22h39.50.422,PRaM,2021.2.3,Win32,60.13952369,61b8f3437b89212fae0dfade
5,1.8219,space,0.1237,0,290,290,239,1,,,63474e67a5fd298c6103c409,643772d7c8805de25329625b,2023-04-12_22h39.50.422,PRaM,2021.2.3,Win32,60.13952369,61b8f3437b89212fae0dfade
3,1.7643,space,0.1196,0,291,291,265,1,,,63474e67a5fd298c6103c409,643772d7c8805de25329625b,2023-04-12_22h39.50.422,PRaM,2021.2.3,Win32,60.13952369,61b8f3437b89212fae0dfade
3,2.0393,space,0.2739,0,292,292,8,1,,,63474e67a5fd298c6103c409,643772d7c8805de25329625b,2023-04-12_22h39.50.422,PRaM,2021.2.3,Win32,60.13952369,61b8f3437b89212fae0dfade
3,1.9552,space,0.3684,0,293,293,129,1,,,63474e67a5fd298c6103c409,643772d7c8805de25329625b,2023-04-12_22h39.50.422,PRaM,2021.2.3,Win32,60.13952369,61b8f3437b89212fae0dfade
2,1.9612,space,0.1872,0,294,294,210,1,,,63474e67a5fd298c6103c409,643772d7c8805de25329625b,2023-04-12_22h39.50.422,PRaM,2021.2.3,Win32,60.13952369,61b8f3437b89212fae0dfade
2,1.8993,space,0.1409,0,295,295,217,1,,,63474e67a5fd298c6103c409,643772d7c8805de25329625b,2023-04-12_22h39.50.422,PRaM,2021.2.3,Win32,60.13952369,61b8f3437b89212fae0dfade
7,2.0153,space,0.2101,0,296,296,104,1,,,63474e67a5fd298c6103c409,643772d7c8805de25329625b,2023-04-12_22h39.50.422,PRaM,2021.2.3,Win32,60.13952369,61b8f3437b89212fae0dfade
2,1.7223,space,0.0225,0,297,297,220,1,,,63474e67a5fd298c6103c409,643772d7c8805de25329625b,2023-04-12_22h39.50.422,PRaM,2021.2.3,Win32,60.13952369,61b8f3437b89212fae0dfade
6,1.858,space,0.0823,0,298,298,0,1,,,63474e67a5fd298c6103c409,643772d7c8805de25329625b,2023-04-12_22h39.50.422,PRaM,2021.2.3,Win32,60.13952369,61b8f3437b89212fae0dfade
3,1.3306,space,0.4566,0,299,299,222,1,,,63474e67a5fd298c6103c409,643772d7c8805de25329625b,2023-04-12_22h39.50.422,PRaM,2021.2.3,Win32,60.13952369,61b8f3437b89212fae0dfade
2,1.7295,space,0.0839,0,300,300,138,1,,,63474e67a5fd298c6103c409,643772d7c8805de25329625b,2023-04-12_22h39.50.422,PRaM,2021.2.3,Win32,60.13952369,61b8f3437b89212fae0dfade
7,1.924,space,0.1334,0,301,301,105,1,,,63474e67a5fd298c6103c409,643772d7c8805de25329625b,2023-04-12_22h39.50.422,PRaM,2021.2.3,Win32,60.13952369,61b8f3437b89212fae0dfade
6,1.8391,space,0.0475,0,302,302,201,1,,,63474e67a5fd298c6103c409,643772d7c8805de25329625b,2023-04-12_22h39.50.422,PRaM,2021.2.3,Win32,60.13952369,61b8f3437b89212fae0dfade
6,1.5762,space,0.1878,0,303,303,322,1,,,63474e67a5fd298c6103c409,643772d7c8805de25329625b,2023-04-12_22h39.50.422,PRaM,2021.2.3,Win32,60.13952369,61b8f3437b89212fae0dfade
3,1.8232,space,0.0725,0,304,304,108,1,,,63474e67a5fd298c6103c409,643772d7c8805de25329625b,2023-04-12_22h39.50.422,PRaM,2021.2.3,Win32,60.13952369,61b8f3437b89212fae0dfade
4,1.8447,space,0.1344,0,305,305,7,1,,,63474e67a5fd298c6103c409,643772d7c8805de25329625b,2023-04-12_22h39.50.422,PRaM,2021.2.3,Win32,60.13952369,61b8f3437b89212fae0dfade
2,1.9615,space,0.2969,0,306,306,209,1,,,63474e67a5fd298c6103c409,643772d7c8805de25329625b,2023-04-12_22h39.50.422,PRaM,2021.2.3,Win32,60.13952369,61b8f3437b89212fae0dfade
2,1.3222,space,0.4505,0,307,307,233,1,,,63474e67a5fd298c6103c409,643772d7c8805de25329625b,2023-04-12_22h39.50.422,PRaM,2021.2.3,Win32,60.13952369,61b8f3437b89212fae0dfade
3,1.9829,space,0.1967,0,308,308,144,1,,,63474e67a5fd298c6103c409,643772d7c8805de25329625b,2023-04-12_22h39.50.422,PRaM,2021.2.3,Win32,60.13952369,61b8f3437b89212fae0dfade
3,1.8099,space,0.0674,0,309,309,262,1,,,63474e67a5fd298c6103c409,643772d7c8805de25329625b,2023-04-12_22h39.50.422,PRaM,2021.2.3,Win32,60.13952369,61b8f3437b89212fae0dfade
5,1.5226,space,0.2126,0,310,310,366,1,,,63474e67a5fd298c6103c409,643772d7c8805de25329625b,2023-04-12_22h39.50.422,PRaM,2021.2.3,Win32,60.13952369,61b8f3437b89212fae0dfade
6,1.8136,space,0.1006,0,311,311,199,1,,,63474e67a5fd298c6103c409,643772d7c8805de25329625b,2023-04-12_22h39.50.422,PRaM,2021.2.3,Win32,60.13952369,61b8f3437b89212fae0dfade
3,1.9663,space,0.3003,0,312,312,260,1,,,63474e67a5fd298c6103c409,643772d7c8805de25329625b,2023-04-12_22h39.50.422,PRaM,2021.2.3,Win32,60.13952369,61b8f3437b89212fae0dfade
3,2.4664,space,0.7347,0,313,313,261,1,,,63474e67a5fd298c6103c409,643772d7c8805de25329625b,2023-04-12_22h39.50.422,PRaM,2021.2.3,Win32,60.13952369,61b8f3437b89212fae0dfade
5,1.497,space,0.1339,0,314,314,169,1,,,63474e67a5fd298c6103c409,643772d7c8805de25329625b,2023-04-12_22h39.50.422,PRaM,2021.2.3,Win32,60.13952369,61b8f3437b89212fae0dfade
6,1.4523,space,0.0082,0,315,315,301,1,,,63474e67a5fd298c6103c409,643772d7c8805de25329625b,2023-04-12_22h39.50.422,PRaM,2021.2.3,Win32,60.13952369,61b8f3437b89212fae0dfade
6,3.1812,space,1.3505,0,316,316,83,1,,,63474e67a5fd298c6103c409,643772d7c8805de25329625b,2023-04-12_22h39.50.422,PRaM,2021.2.3,Win32,60.13952369,61b8f3437b89212fae0dfade
3,2.5327,space,0.7884,0,317,317,369,1,,,63474e67a5fd298c6103c409,643772d7c8805de25329625b,2023-04-12_22h39.50.422,PRaM,2021.2.3,Win32,60.13952369,61b8f3437b89212fae0dfade
2,1.5725,space,0.2078,0,318,318,256,1,,,63474e67a5fd298c6103c409,643772d7c8805de25329625b,2023-04-12_22h39.50.422,PRaM,2021.2.3,Win32,60.13952369,61b8f3437b89212fae0dfade
6,3.0229,space,1.3939,0,319,319,102,1,,,63474e67a5fd298c6103c409,643772d7c8805de25329625b,2023-04-12_22h39.50.422,PRaM,2021.2.3,Win32,60.13952369,61b8f3437b89212fae0dfade
5,2.356,space,0.6838,0,320,320,313,1,,,63474e67a5fd298c6103c409,643772d7c8805de25329625b,2023-04-12_22h39.50.422,PRaM,2021.2.3,Win32,60.13952369,61b8f3437b89212fae0dfade
7,1.6154,space,0.2504,0,321,321,276,1,,,63474e67a5fd298c6103c409,643772d7c8805de25329625b,2023-04-12_22h39.50.422,PRaM,2021.2.3,Win32,60.13952369,61b8f3437b89212fae0dfade
4,3.2658,space,1.5408,0,322,322,154,1,,,63474e67a5fd298c6103c409,643772d7c8805de25329625b,2023-04-12_22h39.50.422,PRaM,2021.2.3,Win32,60.13952369,61b8f3437b89212fae0dfade
3,1.648,space,0.0195,0,323,323,68,1,,,63474e67a5fd298c6103c409,643772d7c8805de25329625b,2023-04-12_22h39.50.422,PRaM,2021.2.3,Win32,60.13952369,61b8f3437b89212fae0dfade
4,2.7569,space,1.0101,0,324,324,332,1,,,63474e67a5fd298c6103c409,643772d7c8805de25329625b,2023-04-12_22h39.50.422,PRaM,2021.2.3,Win32,60.13952369,61b8f3437b89212fae0dfade
8,2.5562,space,0.7231,0,325,325,115,1,,,63474e67a5fd298c6103c409,643772d7c8805de25329625b,2023-04-12_22h39.50.422,PRaM,2021.2.3,Win32,60.13952369,61b8f3437b89212fae0dfade
2,1.9899,space,0.1671,0,326,326,221,1,,,63474e67a5fd298c6103c409,643772d7c8805de25329625b,2023-04-12_22h39.50.422,PRaM,2021.2.3,Win32,60.13952369,61b8f3437b89212fae0dfade
3,1.1728,space,0.2377,0,327,327,156,1,,,63474e67a5fd298c6103c409,643772d7c8805de25329625b,2023-04-12_22h39.50.422,PRaM,2021.2.3,Win32,60.13952369,61b8f3437b89212fae0dfade
2,1.6121,space,0.2016,0,328,328,74,1,,,63474e67a5fd298c6103c409,643772d7c8805de25329625b,2023-04-12_22h39.50.422,PRaM,2021.2.3,Win32,60.13952369,61b8f3437b89212fae0dfade
3,2.7553,space,0.9337,0,329,329,203,1,,,63474e67a5fd298c6103c409,643772d7c8805de25329625b,2023-04-12_22h39.50.422,PRaM,2021.2.3,Win32,60.13952369,61b8f3437b89212fae0dfade
4,7.8418,space,6.0485,0,330,330,292,1,,,63474e67a5fd298c6103c409,643772d7c8805de25329625b,2023-04-12_22h39.50.422,PRaM,2021.2.3,Win32,60.13952369,61b8f3437b89212fae0dfade
5,1.9182,space,0.1731,0,331,331,162,1,,,63474e67a5fd298c6103c409,643772d7c8805de25329625b,2023-04-12_22h39.50.422,PRaM,2021.2.3,Win32,60.13952369,61b8f3437b89212fae0dfade
3,2.5687,space,0.8738,0,332,332,28,1,,,63474e67a5fd298c6103c409,643772d7c8805de25329625b,2023-04-12_22h39.50.422,PRaM,2021.2.3,Win32,60.13952369,61b8f3437b89212fae0dfade
4,1.5564,space,0.18,0,333,333,194,1,,,63474e67a5fd298c6103c409,643772d7c8805de25329625b,2023-04-12_22h39.50.422,PRaM,2021.2.3,Win32,60.13952369,61b8f3437b89212fae0dfade
2,2.3826,space,0.6678,0,334,334,31,1,,,63474e67a5fd298c6103c409,643772d7c8805de25329625b,2023-04-12_22h39.50.422,PRaM,2021.2.3,Win32,60.13952369,61b8f3437b89212fae0dfade
2,1.2614,space,0.1377,0,335,335,215,1,,,63474e67a5fd298c6103c409,643772d7c8805de25329625b,2023-04-12_22h39.50.422,PRaM,2021.2.3,Win32,60.13952369,61b8f3437b89212fae0dfade
7,1.7868,space,0.1341,0,336,336,302,1,,,63474e67a5fd298c6103c409,643772d7c8805de25329625b,2023-04-12_22h39.50.422,PRaM,2021.2.3,Win32,60.13952369,61b8f3437b89212fae0dfade
3,2.3568,space,0.7172,0,337,337,101,1,,,63474e67a5fd298c6103c409,643772d7c8805de25329625b,2023-04-12_22h39.50.422,PRaM,2021.2.3,Win32,60.13952369,61b8f3437b89212fae0dfade
2,2.0327,space,0.4173,0,338,338,55,1,,,63474e67a5fd298c6103c409,643772d7c8805de25329625b,2023-04-12_22h39.50.422,PRaM,2021.2.3,Win32,60.13952369,61b8f3437b89212fae0dfade
7,1.7575,space,0.0681,0,339,339,114,1,,,63474e67a5fd298c6103c409,643772d7c8805de25329625b,2023-04-12_22h39.50.422,PRaM,2021.2.3,Win32,60.13952369,61b8f3437b89212fae0dfade
6,2.0103,space,0.4237,0,340,340,307,1,,,63474e67a5fd298c6103c409,643772d7c8805de25329625b,2023-04-12_22h39.50.422,PRaM,2021.2.3,Win32,60.13952369,61b8f3437b89212fae0dfade
6,1.8489,space,0.1097,0,341,341,42,1,,,63474e67a5fd298c6103c409,643772d7c8805de25329625b,2023-04-12_22h39.50.422,PRaM,2021.2.3,Win32,60.13952369,61b8f3437b89212fae0dfade
7,1.4988,space,0.2786,0,342,342,202,1,,,63474e67a5fd298c6103c409,643772d7c8805de25329625b,2023-04-12_22h39.50.422,PRaM,2021.2.3,Win32,60.13952369,61b8f3437b89212fae0dfade
9,3.4238,space,1.8837,0,343,343,285,1,,,63474e67a5fd298c6103c409,643772d7c8805de25329625b,2023-04-12_22h39.50.422,PRaM,2021.2.3,Win32,60.13952369,61b8f3437b89212fae0dfade
7,2.4077,space,0.5764,0,344,344,140,1,,,63474e67a5fd298c6103c409,643772d7c8805de25329625b,2023-04-12_22h39.50.422,PRaM,2021.2.3,Win32,60.13952369,61b8f3437b89212fae0dfade
4,1.7964,space,0.0371,0,345,345,34,1,,,63474e67a5fd298c6103c409,643772d7c8805de25329625b,2023-04-12_22h39.50.422,PRaM,2021.2.3,Win32,60.13952369,61b8f3437b89212fae0dfade
5,1.5721,space,0.0746,0,346,346,312,1,,,63474e67a5fd298c6103c409,643772d7c8805de25329625b,2023-04-12_22h39.50.422,PRaM,2021.2.3,Win32,60.13952369,61b8f3437b89212fae0dfade
2,2.1736,space,0.4239,0,347,347,103,1,,,63474e67a5fd298c6103c409,643772d7c8805de25329625b,2023-04-12_22h39.50.422,PRaM,2021.2.3,Win32,60.13952369,61b8f3437b89212fae0dfade
5,1.8791,space,0.1754,0,348,348,47,1,,,63474e67a5fd298c6103c409,643772d7c8805de25329625b,2023-04-12_22h39.50.422,PRaM,2021.2.3,Win32,60.13952369,61b8f3437b89212fae0dfade
3,1.5565,space,0.134,0,349,349,289,1,,,63474e67a5fd298c6103c409,643772d7c8805de25329625b,2023-04-12_22h39.50.422,PRaM,2021.2.3,Win32,60.13952369,61b8f3437b89212fae0dfade
4,1.683,space,0.1912,0,350,350,146,1,,,63474e67a5fd298c6103c409,643772d7c8805de25329625b,2023-04-12_22h39.50.422,PRaM,2021.2.3,Win32,60.13952369,61b8f3437b89212fae0dfade
5,1.8732,space,0.6177,0,351,351,304,1,,,63474e67a5fd298c6103c409,643772d7c8805de25329625b,2023-04-12_22h39.50.422,PRaM,2021.2.3,Win32,60.13952369,61b8f3437b89212fae0dfade
5,2.0672,space,0.3865,0,352,352,320,1,,,63474e67a5fd298c6103c409,643772d7c8805de25329625b,2023-04-12_22h39.50.422,PRaM,2021.2.3,Win32,60.13952369,61b8f3437b89212fae0dfade
7,2.7989,space,1.0335,0,353,353,112,1,,,63474e67a5fd298c6103c409,643772d7c8805de25329625b,2023-04-12_22h39.50.422,PRaM,2021.2.3,Win32,60.13952369,61b8f3437b89212fae0dfade
7,1.5552,space,0.2043,0,354,354,173,1,,,63474e67a5fd298c6103c409,643772d7c8805de25329625b,2023-04-12_22h39.50.422,PRaM,2021.2.3,Win32,60.13952369,61b8f3437b89212fae0dfade
3,1.5946,space,0.1929,0,355,355,60,1,,,63474e67a5fd298c6103c409,643772d7c8805de25329625b,2023-04-12_22h39.50.422,PRaM,2021.2.3,Win32,60.13952369,61b8f3437b89212fae0dfade
7,1.8726,space,0.072,0,356,356,17,1,,,63474e67a5fd298c6103c409,643772d7c8805de25329625b,2023-04-12_22h39.50.422,PRaM,2021.2.3,Win32,60.13952369,61b8f3437b89212fae0dfade
6,1.5056,space,0.1153,0,357,357,367,1,,,63474e67a5fd298c6103c409,643772d7c8805de25329625b,2023-04-12_22h39.50.422,PRaM,2021.2.3,Win32,60.13952369,61b8f3437b89212fae0dfade
4,1.3659,space,0.4437,0,358,358,270,1,,,63474e67a5fd298c6103c409,643772d7c8805de25329625b,2023-04-12_22h39.50.422,PRaM,2021.2.3,Win32,60.13952369,61b8f3437b89212fae0dfade
5,1.6173,space,0.1841,0,359,359,167,1,,,63474e67a5fd298c6103c409,643772d7c8805de25329625b,2023-04-12_22h39.50.422,PRaM,2021.2.3,Win32,60.13952369,61b8f3437b89212fae0dfade
6,1.4454,space,0.0219,0,360,360,274,1,,,63474e67a5fd298c6103c409,643772d7c8805de25329625b,2023-04-12_22h39.50.422,PRaM,2021.2.3,Win32,60.13952369,61b8f3437b89212fae0dfade
3,1.4117,space,0.1656,0,361,361,293,1,,,63474e67a5fd298c6103c409,643772d7c8805de25329625b,2023-04-12_22h39.50.422,PRaM,2021.2.3,Win32,60.13952369,61b8f3437b89212fae0dfade
2,1.8282,space,0.1801,0,362,362,252,1,,,63474e67a5fd298c6103c409,643772d7c8805de25329625b,2023-04-12_22h39.50.422,PRaM,2021.2.3,Win32,60.13952369,61b8f3437b89212fae0dfade
5,2.0287,space,0.2839,0,363,363,25,1,,,63474e67a5fd298c6103c409,643772d7c8805de25329625b,2023-04-12_22h39.50.422,PRaM,2021.2.3,Win32,60.13952369,61b8f3437b89212fae0dfade
6,1.3893,space,0.3463,0,364,364,145,1,,,63474e67a5fd298c6103c409,643772d7c8805de25329625b,2023-04-12_22h39.50.422,PRaM,2021.2.3,Win32,60.13952369,61b8f3437b89212fae0dfade
8,1.8161,space,0.2888,0,365,365,337,1,,,63474e67a5fd298c6103c409,643772d7c8805de25329625b,2023-04-12_22h39.50.422,PRaM,2021.2.3,Win32,60.13952369,61b8f3437b89212fae0dfade
4,1.7809,space,0.0673,0,366,366,111,1,,,63474e67a5fd298c6103c409,643772d7c8805de25329625b,2023-04-12_22h39.50.422,PRaM,2021.2.3,Win32,60.13952369,61b8f3437b89212fae0dfade
5,1.3721,space,0.0483,0,367,367,321,1,,,63474e67a5fd298c6103c409,643772d7c8805de25329625b,2023-04-12_22h39.50.422,PRaM,2021.2.3,Win32,60.13952369,61b8f3437b89212fae0dfade
3,1.6187,space,0.2298,0,368,368,161,1,,,63474e67a5fd298c6103c409,643772d7c8805de25329625b,2023-04-12_22h39.50.422,PRaM,2021.2.3,Win32,60.13952369,61b8f3437b89212fae0dfade
2,1.2194,space,0.2052,0,369,369,288,1,,,63474e67a5fd298c6103c409,643772d7c8805de25329625b,2023-04-12_22h39.50.422,PRaM,2021.2.3,Win32,60.13952369,61b8f3437b89212fae0dfade
3,1.5897,space,0.248,0,370,370,166,1,,,63474e67a5fd298c6103c409,643772d7c8805de25329625b,2023-04-12_22h39.50.422,PRaM,2021.2.3,Win32,60.13952369,61b8f3437b89212fae0dfade
6,1.9059,space,0.1694,0,371,371,195,1,,,63474e67a5fd298c6103c409,643772d7c8805de25329625b,2023-04-12_22h39.50.422,PRaM,2021.2.3,Win32,60.13952369,61b8f3437b89212fae0dfade
5,2.0388,space,0.2226,0,372,372,314,1,,,63474e67a5fd298c6103c409,643772d7c8805de25329625b,2023-04-12_22h39.50.422,PRaM,2021.2.3,Win32,60.13952369,61b8f3437b89212fae0dfade
4,2.3465,space,0.705,0,373,373,251,1,,,63474e67a5fd298c6103c409,643772d7c8805de25329625b,2023-04-12_22h39.50.422,PRaM,2021.2.3,Win32,60.13952369,61b8f3437b89212fae0dfade
3,1.5893,space,0.1503,0,374,374,354,1,,,63474e67a5fd298c6103c409,643772d7c8805de25329625b,2023-04-12_22h39.50.422,PRaM,2021.2.3,Win32,60.13952369,61b8f3437b89212fae0dfade
3,1.3598,space,0.0208,0,375,375,56,1,,,63474e67a5fd298c6103c409,643772d7c8805de25329625b,2023-04-12_22h39.50.422,PRaM,2021.2.3,Win32,60.13952369,61b8f3437b89212fae0dfade
4,1.4422,space,0.1465,0,376,376,351,1,,,63474e67a5fd298c6103c409,643772d7c8805de25329625b,2023-04-12_22h39.50.422,PRaM,2021.2.3,Win32,60.13952369,61b8f3437b89212fae0dfade
3,2.9261,space,1.2675,0,377,377,148,1,,,63474e67a5fd298c6103c409,643772d7c8805de25329625b,2023-04-12_22h39.50.422,PRaM,2021.2.3,Win32,60.13952369,61b8f3437b89212fae0dfade
