Rating.response,Rating.rt,EndTrial.keys,EndTrial.rt,trials.thisRepN,trials.thisTrialN,trials.thisN,trials.thisIndex,trials.ran,Pos1,Pos2,participant,session,date,expName,psychopyVersion,OS,frameRate,study_id
6,8.6523,space,7.9738,0,0,0,115,1,,,6398fb43fa99e33c3d9cee53,643773b413ac0d3abc9086c5,04-13-2023_12h45.24.979,PRaM,2021.2.3,Win32,59.99520038,61b8f3437b89212fae0dfadf
3,3.7211,space,2.7859,0,1,1,1,1,,,6398fb43fa99e33c3d9cee53,643773b413ac0d3abc9086c5,04-13-2023_12h45.24.979,PRaM,2021.2.3,Win32,59.99520038,61b8f3437b89212fae0dfadf
4,2.492,space,1.541,0,2,2,224,1,,,6398fb43fa99e33c3d9cee53,643773b413ac0d3abc9086c5,04-13-2023_12h45.24.979,PRaM,2021.2.3,Win32,59.99520038,61b8f3437b89212fae0dfadf
6,2.4772,space,1.1677,0,3,3,361,1,,,6398fb43fa99e33c3d9cee53,643773b413ac0d3abc9086c5,04-13-2023_12h45.24.979,PRaM,2021.2.3,Win32,59.99520038,61b8f3437b89212fae0dfadf
3,1.9971,space,0.6223,0,4,4,255,1,,,6398fb43fa99e33c3d9cee53,643773b413ac0d3abc9086c5,04-13-2023_12h45.24.979,PRaM,2021.2.3,Win32,59.99520038,61b8f3437b89212fae0dfadf
4,1.8878,space,0.679,0,5,5,31,1,,,6398fb43fa99e33c3d9cee53,643773b413ac0d3abc9086c5,04-13-2023_12h45.24.979,PRaM,2021.2.3,Win32,59.99520038,61b8f3437b89212fae0dfadf
8,2.4951,space,1.1177,0,6,6,307,1,,,6398fb43fa99e33c3d9cee53,643773b413ac0d3abc9086c5,04-13-2023_12h45.24.979,PRaM,2021.2.3,Win32,59.99520038,61b8f3437b89212fae0dfadf
5,5.6572,space,4.4985,0,7,7,203,1,,,6398fb43fa99e33c3d9cee53,643773b413ac0d3abc9086c5,04-13-2023_12h45.24.979,PRaM,2021.2.3,Win32,59.99520038,61b8f3437b89212fae0dfadf
3,2.8208,space,1.6882,0,8,8,300,1,,,6398fb43fa99e33c3d9cee53,643773b413ac0d3abc9086c5,04-13-2023_12h45.24.979,PRaM,2021.2.3,Win32,59.99520038,61b8f3437b89212fae0dfadf
6,1.9587,space,0.5112,0,9,9,132,1,,,6398fb43fa99e33c3d9cee53,643773b413ac0d3abc9086c5,04-13-2023_12h45.24.979,PRaM,2021.2.3,Win32,59.99520038,61b8f3437b89212fae0dfadf
7,1.9713,space,0.487,0,10,10,334,1,,,6398fb43fa99e33c3d9cee53,643773b413ac0d3abc9086c5,04-13-2023_12h45.24.979,PRaM,2021.2.3,Win32,59.99520038,61b8f3437b89212fae0dfadf
3,1.7746,space,0.2881,0,11,11,211,1,,,6398fb43fa99e33c3d9cee53,643773b413ac0d3abc9086c5,04-13-2023_12h45.24.979,PRaM,2021.2.3,Win32,59.99520038,61b8f3437b89212fae0dfadf
6,3.0336,space,1.7722,0,12,12,317,1,,,6398fb43fa99e33c3d9cee53,643773b413ac0d3abc9086c5,04-13-2023_12h45.24.979,PRaM,2021.2.3,Win32,59.99520038,61b8f3437b89212fae0dfadf
4,2.0414,space,0.8287,0,13,13,54,1,,,6398fb43fa99e33c3d9cee53,643773b413ac0d3abc9086c5,04-13-2023_12h45.24.979,PRaM,2021.2.3,Win32,59.99520038,61b8f3437b89212fae0dfadf
6,4.0536,space,2.6038,0,14,14,131,1,,,6398fb43fa99e33c3d9cee53,643773b413ac0d3abc9086c5,04-13-2023_12h45.24.979,PRaM,2021.2.3,Win32,59.99520038,61b8f3437b89212fae0dfadf
6,2.961,space,1.5344,0,15,15,99,1,,,6398fb43fa99e33c3d9cee53,643773b413ac0d3abc9086c5,04-13-2023_12h45.24.979,PRaM,2021.2.3,Win32,59.99520038,61b8f3437b89212fae0dfadf
9,1.9537,space,0.5952,0,16,16,320,1,,,6398fb43fa99e33c3d9cee53,643773b413ac0d3abc9086c5,04-13-2023_12h45.24.979,PRaM,2021.2.3,Win32,59.99520038,61b8f3437b89212fae0dfadf
7,2.6396,space,1.7014,0,17,17,90,1,,,6398fb43fa99e33c3d9cee53,643773b413ac0d3abc9086c5,04-13-2023_12h45.24.979,PRaM,2021.2.3,Win32,59.99520038,61b8f3437b89212fae0dfadf
4,3.6641,space,2.5848,0,18,18,155,1,,,6398fb43fa99e33c3d9cee53,643773b413ac0d3abc9086c5,04-13-2023_12h45.24.979,PRaM,2021.2.3,Win32,59.99520038,61b8f3437b89212fae0dfadf
3,1.4735,space,0.0926,0,19,19,77,1,,,6398fb43fa99e33c3d9cee53,643773b413ac0d3abc9086c5,04-13-2023_12h45.24.979,PRaM,2021.2.3,Win32,59.99520038,61b8f3437b89212fae0dfadf
5,3.0916,space,1.7365,0,20,20,290,1,,,6398fb43fa99e33c3d9cee53,643773b413ac0d3abc9086c5,04-13-2023_12h45.24.979,PRaM,2021.2.3,Win32,59.99520038,61b8f3437b89212fae0dfadf
7,1.9488,space,0.5014,0,21,21,149,1,,,6398fb43fa99e33c3d9cee53,643773b413ac0d3abc9086c5,04-13-2023_12h45.24.979,PRaM,2021.2.3,Win32,59.99520038,61b8f3437b89212fae0dfadf
4,2.0242,space,0.8841,0,22,22,188,1,,,6398fb43fa99e33c3d9cee53,643773b413ac0d3abc9086c5,04-13-2023_12h45.24.979,PRaM,2021.2.3,Win32,59.99520038,61b8f3437b89212fae0dfadf
4,3.9233,space,2.239,0,23,23,148,1,,,6398fb43fa99e33c3d9cee53,643773b413ac0d3abc9086c5,04-13-2023_12h45.24.979,PRaM,2021.2.3,Win32,59.99520038,61b8f3437b89212fae0dfadf
6,3.0892,space,1.1721,0,24,24,321,1,,,6398fb43fa99e33c3d9cee53,643773b413ac0d3abc9086c5,04-13-2023_12h45.24.979,PRaM,2021.2.3,Win32,59.99520038,61b8f3437b89212fae0dfadf
3,1.8572,space,0.6373,0,25,25,70,1,,,6398fb43fa99e33c3d9cee53,643773b413ac0d3abc9086c5,04-13-2023_12h45.24.979,PRaM,2021.2.3,Win32,59.99520038,61b8f3437b89212fae0dfadf
2,1.8778,space,0.2339,0,26,26,257,1,,,6398fb43fa99e33c3d9cee53,643773b413ac0d3abc9086c5,04-13-2023_12h45.24.979,PRaM,2021.2.3,Win32,59.99520038,61b8f3437b89212fae0dfadf
7,1.7142,space,0.055,0,27,27,200,1,,,6398fb43fa99e33c3d9cee53,643773b413ac0d3abc9086c5,04-13-2023_12h45.24.979,PRaM,2021.2.3,Win32,59.99520038,61b8f3437b89212fae0dfadf
4,1.808,space,0.1691,0,28,28,187,1,,,6398fb43fa99e33c3d9cee53,643773b413ac0d3abc9086c5,04-13-2023_12h45.24.979,PRaM,2021.2.3,Win32,59.99520038,61b8f3437b89212fae0dfadf
6,2.0637,space,0.3515,0,29,29,56,1,,,6398fb43fa99e33c3d9cee53,643773b413ac0d3abc9086c5,04-13-2023_12h45.24.979,PRaM,2021.2.3,Win32,59.99520038,61b8f3437b89212fae0dfadf
3,1.9207,space,0.2446,0,30,30,50,1,,,6398fb43fa99e33c3d9cee53,643773b413ac0d3abc9086c5,04-13-2023_12h45.24.979,PRaM,2021.2.3,Win32,59.99520038,61b8f3437b89212fae0dfadf
8,2.9815,space,1.8089,0,31,31,182,1,,,6398fb43fa99e33c3d9cee53,643773b413ac0d3abc9086c5,04-13-2023_12h45.24.979,PRaM,2021.2.3,Win32,59.99520038,61b8f3437b89212fae0dfadf
3,2.2443,space,0.5346,0,32,32,332,1,,,6398fb43fa99e33c3d9cee53,643773b413ac0d3abc9086c5,04-13-2023_12h45.24.979,PRaM,2021.2.3,Win32,59.99520038,61b8f3437b89212fae0dfadf
4,3.366,space,1.6703,0,33,33,55,1,,,6398fb43fa99e33c3d9cee53,643773b413ac0d3abc9086c5,04-13-2023_12h45.24.979,PRaM,2021.2.3,Win32,59.99520038,61b8f3437b89212fae0dfadf
8,3.6642,space,1.9534,0,34,34,218,1,,,6398fb43fa99e33c3d9cee53,643773b413ac0d3abc9086c5,04-13-2023_12h45.24.979,PRaM,2021.2.3,Win32,59.99520038,61b8f3437b89212fae0dfadf
1,4.0178,space,2.3869,0,35,35,97,1,,,6398fb43fa99e33c3d9cee53,643773b413ac0d3abc9086c5,04-13-2023_12h45.24.979,PRaM,2021.2.3,Win32,59.99520038,61b8f3437b89212fae0dfadf
4,3.0049,space,1.3224,0,36,36,256,1,,,6398fb43fa99e33c3d9cee53,643773b413ac0d3abc9086c5,04-13-2023_12h45.24.979,PRaM,2021.2.3,Win32,59.99520038,61b8f3437b89212fae0dfadf
4,2.0759,space,0.392,0,37,37,191,1,,,6398fb43fa99e33c3d9cee53,643773b413ac0d3abc9086c5,04-13-2023_12h45.24.979,PRaM,2021.2.3,Win32,59.99520038,61b8f3437b89212fae0dfadf
5,3.4106,space,1.7587,0,38,38,375,1,,,6398fb43fa99e33c3d9cee53,643773b413ac0d3abc9086c5,04-13-2023_12h45.24.979,PRaM,2021.2.3,Win32,59.99520038,61b8f3437b89212fae0dfadf
3,1.8595,space,0.2201,0,39,39,362,1,,,6398fb43fa99e33c3d9cee53,643773b413ac0d3abc9086c5,04-13-2023_12h45.24.979,PRaM,2021.2.3,Win32,59.99520038,61b8f3437b89212fae0dfadf
9,2.8045,space,1.1513,0,40,40,366,1,,,6398fb43fa99e33c3d9cee53,643773b413ac0d3abc9086c5,04-13-2023_12h45.24.979,PRaM,2021.2.3,Win32,59.99520038,61b8f3437b89212fae0dfadf
3,2.2209,space,0.532,0,41,41,377,1,,,6398fb43fa99e33c3d9cee53,643773b413ac0d3abc9086c5,04-13-2023_12h45.24.979,PRaM,2021.2.3,Win32,59.99520038,61b8f3437b89212fae0dfadf
4,1.204,space,0.5206,0,42,42,339,1,,,6398fb43fa99e33c3d9cee53,643773b413ac0d3abc9086c5,04-13-2023_12h45.24.979,PRaM,2021.2.3,Win32,59.99520038,61b8f3437b89212fae0dfadf
2,1.6888,space,0.0417,0,43,43,253,1,,,6398fb43fa99e33c3d9cee53,643773b413ac0d3abc9086c5,04-13-2023_12h45.24.979,PRaM,2021.2.3,Win32,59.99520038,61b8f3437b89212fae0dfadf
1,2.6705,space,0.9908,0,44,44,217,1,,,6398fb43fa99e33c3d9cee53,643773b413ac0d3abc9086c5,04-13-2023_12h45.24.979,PRaM,2021.2.3,Win32,59.99520038,61b8f3437b89212fae0dfadf
7,2.3146,space,0.5507,0,45,45,264,1,,,6398fb43fa99e33c3d9cee53,643773b413ac0d3abc9086c5,04-13-2023_12h45.24.979,PRaM,2021.2.3,Win32,59.99520038,61b8f3437b89212fae0dfadf
7,2.5875,space,0.9876,0,46,46,297,1,,,6398fb43fa99e33c3d9cee53,643773b413ac0d3abc9086c5,04-13-2023_12h45.24.979,PRaM,2021.2.3,Win32,59.99520038,61b8f3437b89212fae0dfadf
3,1.7301,space,0.0549,0,47,47,108,1,,,6398fb43fa99e33c3d9cee53,643773b413ac0d3abc9086c5,04-13-2023_12h45.24.979,PRaM,2021.2.3,Win32,59.99520038,61b8f3437b89212fae0dfadf
4,1.5989,space,0.7347,0,48,48,235,1,,,6398fb43fa99e33c3d9cee53,643773b413ac0d3abc9086c5,04-13-2023_12h45.24.979,PRaM,2021.2.3,Win32,59.99520038,61b8f3437b89212fae0dfadf
2,2.889,space,1.1531,0,49,49,162,1,,,6398fb43fa99e33c3d9cee53,643773b413ac0d3abc9086c5,04-13-2023_12h45.24.979,PRaM,2021.2.3,Win32,59.99520038,61b8f3437b89212fae0dfadf
3,1.706,space,1.3479,0,50,50,349,1,,,6398fb43fa99e33c3d9cee53,643773b413ac0d3abc9086c5,04-13-2023_12h45.24.979,PRaM,2021.2.3,Win32,59.99520038,61b8f3437b89212fae0dfadf
3,1.838,space,0.1416,0,51,51,206,1,,,6398fb43fa99e33c3d9cee53,643773b413ac0d3abc9086c5,04-13-2023_12h45.24.979,PRaM,2021.2.3,Win32,59.99520038,61b8f3437b89212fae0dfadf
8,2.087,space,0.4182,0,52,52,326,1,,,6398fb43fa99e33c3d9cee53,643773b413ac0d3abc9086c5,04-13-2023_12h45.24.979,PRaM,2021.2.3,Win32,59.99520038,61b8f3437b89212fae0dfadf
3,3.3783,space,1.6929,0,53,53,129,1,,,6398fb43fa99e33c3d9cee53,643773b413ac0d3abc9086c5,04-13-2023_12h45.24.979,PRaM,2021.2.3,Win32,59.99520038,61b8f3437b89212fae0dfadf
7,2.4377,space,0.7924,0,54,54,213,1,,,6398fb43fa99e33c3d9cee53,643773b413ac0d3abc9086c5,04-13-2023_12h45.24.979,PRaM,2021.2.3,Win32,59.99520038,61b8f3437b89212fae0dfadf
4,4.0288,space,2.3536,0,55,55,150,1,,,6398fb43fa99e33c3d9cee53,643773b413ac0d3abc9086c5,04-13-2023_12h45.24.979,PRaM,2021.2.3,Win32,59.99520038,61b8f3437b89212fae0dfadf
6,2.006,space,0.5226,0,56,56,340,1,,,6398fb43fa99e33c3d9cee53,643773b413ac0d3abc9086c5,04-13-2023_12h45.24.979,PRaM,2021.2.3,Win32,59.99520038,61b8f3437b89212fae0dfadf
8,2.3921,space,0.6975,0,57,57,364,1,,,6398fb43fa99e33c3d9cee53,643773b413ac0d3abc9086c5,04-13-2023_12h45.24.979,PRaM,2021.2.3,Win32,59.99520038,61b8f3437b89212fae0dfadf
4,1.7875,space,0.0841,0,58,58,371,1,,,6398fb43fa99e33c3d9cee53,643773b413ac0d3abc9086c5,04-13-2023_12h45.24.979,PRaM,2021.2.3,Win32,59.99520038,61b8f3437b89212fae0dfadf
7,3.4376,space,1.8034,0,59,59,274,1,,,6398fb43fa99e33c3d9cee53,643773b413ac0d3abc9086c5,04-13-2023_12h45.24.979,PRaM,2021.2.3,Win32,59.99520038,61b8f3437b89212fae0dfadf
3,1.454,space,0.2572,0,60,60,360,1,,,6398fb43fa99e33c3d9cee53,643773b413ac0d3abc9086c5,04-13-2023_12h45.24.979,PRaM,2021.2.3,Win32,59.99520038,61b8f3437b89212fae0dfadf
4,2.0486,space,0.3508,0,61,61,287,1,,,6398fb43fa99e33c3d9cee53,643773b413ac0d3abc9086c5,04-13-2023_12h45.24.979,PRaM,2021.2.3,Win32,59.99520038,61b8f3437b89212fae0dfadf
3,1.4251,space,0.3544,0,62,62,230,1,,,6398fb43fa99e33c3d9cee53,643773b413ac0d3abc9086c5,04-13-2023_12h45.24.979,PRaM,2021.2.3,Win32,59.99520038,61b8f3437b89212fae0dfadf
7,1.8979,space,0.2214,0,63,63,134,1,,,6398fb43fa99e33c3d9cee53,643773b413ac0d3abc9086c5,04-13-2023_12h45.24.979,PRaM,2021.2.3,Win32,59.99520038,61b8f3437b89212fae0dfadf
2,1.4894,space,0.3766,0,64,64,11,1,,,6398fb43fa99e33c3d9cee53,643773b413ac0d3abc9086c5,04-13-2023_12h45.24.979,PRaM,2021.2.3,Win32,59.99520038,61b8f3437b89212fae0dfadf
8,1.4211,space,0.334,0,65,65,38,1,,,6398fb43fa99e33c3d9cee53,643773b413ac0d3abc9086c5,04-13-2023_12h45.24.979,PRaM,2021.2.3,Win32,59.99520038,61b8f3437b89212fae0dfadf
3,3.3861,space,1.6876,0,66,66,198,1,,,6398fb43fa99e33c3d9cee53,643773b413ac0d3abc9086c5,04-13-2023_12h45.24.979,PRaM,2021.2.3,Win32,59.99520038,61b8f3437b89212fae0dfadf
4,6.2604,space,5.1535,0,67,67,169,1,,,6398fb43fa99e33c3d9cee53,643773b413ac0d3abc9086c5,04-13-2023_12h45.24.979,PRaM,2021.2.3,Win32,59.99520038,61b8f3437b89212fae0dfadf
8,1.7378,space,0.6033,0,68,68,154,1,,,6398fb43fa99e33c3d9cee53,643773b413ac0d3abc9086c5,04-13-2023_12h45.24.979,PRaM,2021.2.3,Win32,59.99520038,61b8f3437b89212fae0dfadf
6,3.7496,space,2.0848,0,69,69,21,1,,,6398fb43fa99e33c3d9cee53,643773b413ac0d3abc9086c5,04-13-2023_12h45.24.979,PRaM,2021.2.3,Win32,59.99520038,61b8f3437b89212fae0dfadf
6,9.2395,space,7.4923,0,70,70,40,1,,,6398fb43fa99e33c3d9cee53,643773b413ac0d3abc9086c5,04-13-2023_12h45.24.979,PRaM,2021.2.3,Win32,59.99520038,61b8f3437b89212fae0dfadf
2,3.1789,space,1.4683,0,71,71,89,1,,,6398fb43fa99e33c3d9cee53,643773b413ac0d3abc9086c5,04-13-2023_12h45.24.979,PRaM,2021.2.3,Win32,59.99520038,61b8f3437b89212fae0dfadf
3,1.9872,space,0.3857,0,72,72,309,1,,,6398fb43fa99e33c3d9cee53,643773b413ac0d3abc9086c5,04-13-2023_12h45.24.979,PRaM,2021.2.3,Win32,59.99520038,61b8f3437b89212fae0dfadf
4,1.9586,space,0.2277,0,73,73,95,1,,,6398fb43fa99e33c3d9cee53,643773b413ac0d3abc9086c5,04-13-2023_12h45.24.979,PRaM,2021.2.3,Win32,59.99520038,61b8f3437b89212fae0dfadf
3,1.7898,space,0.1778,0,74,74,37,1,,,6398fb43fa99e33c3d9cee53,643773b413ac0d3abc9086c5,04-13-2023_12h45.24.979,PRaM,2021.2.3,Win32,59.99520038,61b8f3437b89212fae0dfadf
3,3.5173,space,1.8086,0,75,75,79,1,,,6398fb43fa99e33c3d9cee53,643773b413ac0d3abc9086c5,04-13-2023_12h45.24.979,PRaM,2021.2.3,Win32,59.99520038,61b8f3437b89212fae0dfadf
6,2.1957,space,1.1204,0,76,76,158,1,,,6398fb43fa99e33c3d9cee53,643773b413ac0d3abc9086c5,04-13-2023_12h45.24.979,PRaM,2021.2.3,Win32,59.99520038,61b8f3437b89212fae0dfadf
7,3.1277,space,1.4341,0,77,77,136,1,,,6398fb43fa99e33c3d9cee53,643773b413ac0d3abc9086c5,04-13-2023_12h45.24.979,PRaM,2021.2.3,Win32,59.99520038,61b8f3437b89212fae0dfadf
8,3.8263,space,2.2554,0,78,78,285,1,,,6398fb43fa99e33c3d9cee53,643773b413ac0d3abc9086c5,04-13-2023_12h45.24.979,PRaM,2021.2.3,Win32,59.99520038,61b8f3437b89212fae0dfadf
1,2.6945,space,0.988,0,79,79,268,1,,,6398fb43fa99e33c3d9cee53,643773b413ac0d3abc9086c5,04-13-2023_12h45.24.979,PRaM,2021.2.3,Win32,59.99520038,61b8f3437b89212fae0dfadf
3,1.7263,space,0.0259,0,80,80,272,1,,,6398fb43fa99e33c3d9cee53,643773b413ac0d3abc9086c5,04-13-2023_12h45.24.979,PRaM,2021.2.3,Win32,59.99520038,61b8f3437b89212fae0dfadf
1,2.4715,space,0.9054,0,81,81,318,1,,,6398fb43fa99e33c3d9cee53,643773b413ac0d3abc9086c5,04-13-2023_12h45.24.979,PRaM,2021.2.3,Win32,59.99520038,61b8f3437b89212fae0dfadf
3,1.5912,space,1.0841,0,82,82,124,1,,,6398fb43fa99e33c3d9cee53,643773b413ac0d3abc9086c5,04-13-2023_12h45.24.979,PRaM,2021.2.3,Win32,59.99520038,61b8f3437b89212fae0dfadf
7,1.8423,space,0.1907,0,83,83,165,1,,,6398fb43fa99e33c3d9cee53,643773b413ac0d3abc9086c5,04-13-2023_12h45.24.979,PRaM,2021.2.3,Win32,59.99520038,61b8f3437b89212fae0dfadf
2,1.4097,space,0.31,0,84,84,284,1,,,6398fb43fa99e33c3d9cee53,643773b413ac0d3abc9086c5,04-13-2023_12h45.24.979,PRaM,2021.2.3,Win32,59.99520038,61b8f3437b89212fae0dfadf
6,2.1645,space,0.498,0,85,85,105,1,,,6398fb43fa99e33c3d9cee53,643773b413ac0d3abc9086c5,04-13-2023_12h45.24.979,PRaM,2021.2.3,Win32,59.99520038,61b8f3437b89212fae0dfadf
4,1.2788,space,0.0524,0,86,86,111,1,,,6398fb43fa99e33c3d9cee53,643773b413ac0d3abc9086c5,04-13-2023_12h45.24.979,PRaM,2021.2.3,Win32,59.99520038,61b8f3437b89212fae0dfadf
7,1.1636,space,0.1094,0,87,87,331,1,,,6398fb43fa99e33c3d9cee53,643773b413ac0d3abc9086c5,04-13-2023_12h45.24.979,PRaM,2021.2.3,Win32,59.99520038,61b8f3437b89212fae0dfadf
6,5.3261,space,3.64,0,88,88,33,1,,,6398fb43fa99e33c3d9cee53,643773b413ac0d3abc9086c5,04-13-2023_12h45.24.979,PRaM,2021.2.3,Win32,59.99520038,61b8f3437b89212fae0dfadf
7,1.5407,space,2.0601,0,89,89,194,1,,,6398fb43fa99e33c3d9cee53,643773b413ac0d3abc9086c5,04-13-2023_12h45.24.979,PRaM,2021.2.3,Win32,59.99520038,61b8f3437b89212fae0dfadf
4,1.5873,space,2.4014,0,90,90,343,1,,,6398fb43fa99e33c3d9cee53,643773b413ac0d3abc9086c5,04-13-2023_12h45.24.979,PRaM,2021.2.3,Win32,59.99520038,61b8f3437b89212fae0dfadf
7,2.0477,space,0.8569,0,91,91,225,1,,,6398fb43fa99e33c3d9cee53,643773b413ac0d3abc9086c5,04-13-2023_12h45.24.979,PRaM,2021.2.3,Win32,59.99520038,61b8f3437b89212fae0dfadf
4,1.7883,space,0.1263,0,92,92,346,1,,,6398fb43fa99e33c3d9cee53,643773b413ac0d3abc9086c5,04-13-2023_12h45.24.979,PRaM,2021.2.3,Win32,59.99520038,61b8f3437b89212fae0dfadf
3,2.8619,space,1.3132,0,93,93,160,1,,,6398fb43fa99e33c3d9cee53,643773b413ac0d3abc9086c5,04-13-2023_12h45.24.979,PRaM,2021.2.3,Win32,59.99520038,61b8f3437b89212fae0dfadf
6,1.4563,space,0.604,0,94,94,228,1,,,6398fb43fa99e33c3d9cee53,643773b413ac0d3abc9086c5,04-13-2023_12h45.24.979,PRaM,2021.2.3,Win32,59.99520038,61b8f3437b89212fae0dfadf
3,1.8057,space,0.1217,0,95,95,113,1,,,6398fb43fa99e33c3d9cee53,643773b413ac0d3abc9086c5,04-13-2023_12h45.24.979,PRaM,2021.2.3,Win32,59.99520038,61b8f3437b89212fae0dfadf
4,2.1885,space,0.5009,0,96,96,123,1,,,6398fb43fa99e33c3d9cee53,643773b413ac0d3abc9086c5,04-13-2023_12h45.24.979,PRaM,2021.2.3,Win32,59.99520038,61b8f3437b89212fae0dfadf
6,1.4109,space,0.1676,0,97,97,139,1,,,6398fb43fa99e33c3d9cee53,643773b413ac0d3abc9086c5,04-13-2023_12h45.24.979,PRaM,2021.2.3,Win32,59.99520038,61b8f3437b89212fae0dfadf
4,1.4855,space,0.2343,0,98,98,172,1,,,6398fb43fa99e33c3d9cee53,643773b413ac0d3abc9086c5,04-13-2023_12h45.24.979,PRaM,2021.2.3,Win32,59.99520038,61b8f3437b89212fae0dfadf
8,1.5386,space,0.48,0,99,99,277,1,,,6398fb43fa99e33c3d9cee53,643773b413ac0d3abc9086c5,04-13-2023_12h45.24.979,PRaM,2021.2.3,Win32,59.99520038,61b8f3437b89212fae0dfadf
8,1.4387,space,0.2081,0,100,100,42,1,,,6398fb43fa99e33c3d9cee53,643773b413ac0d3abc9086c5,04-13-2023_12h45.24.979,PRaM,2021.2.3,Win32,59.99520038,61b8f3437b89212fae0dfadf
1,2.7075,space,1.3862,0,101,101,345,1,,,6398fb43fa99e33c3d9cee53,643773b413ac0d3abc9086c5,04-13-2023_12h45.24.979,PRaM,2021.2.3,Win32,59.99520038,61b8f3437b89212fae0dfadf
3,1.8381,space,0.1583,0,102,102,376,1,,,6398fb43fa99e33c3d9cee53,643773b413ac0d3abc9086c5,04-13-2023_12h45.24.979,PRaM,2021.2.3,Win32,59.99520038,61b8f3437b89212fae0dfadf
3,2.7641,space,1.1131,0,103,103,146,1,,,6398fb43fa99e33c3d9cee53,643773b413ac0d3abc9086c5,04-13-2023_12h45.24.979,PRaM,2021.2.3,Win32,59.99520038,61b8f3437b89212fae0dfadf
7,2.187,space,0.4899,0,104,104,357,1,,,6398fb43fa99e33c3d9cee53,643773b413ac0d3abc9086c5,04-13-2023_12h45.24.979,PRaM,2021.2.3,Win32,59.99520038,61b8f3437b89212fae0dfadf
3,1.8424,space,0.1858,0,105,105,8,1,,,6398fb43fa99e33c3d9cee53,643773b413ac0d3abc9086c5,04-13-2023_12h45.24.979,PRaM,2021.2.3,Win32,59.99520038,61b8f3437b89212fae0dfadf
4,1.9889,space,0.2987,0,106,106,26,1,,,6398fb43fa99e33c3d9cee53,643773b413ac0d3abc9086c5,04-13-2023_12h45.24.979,PRaM,2021.2.3,Win32,59.99520038,61b8f3437b89212fae0dfadf
7,3.1013,space,1.4343,0,107,107,372,1,,,6398fb43fa99e33c3d9cee53,643773b413ac0d3abc9086c5,04-13-2023_12h45.24.979,PRaM,2021.2.3,Win32,59.99520038,61b8f3437b89212fae0dfadf
6,2.1791,space,0.5181,0,108,108,294,1,,,6398fb43fa99e33c3d9cee53,643773b413ac0d3abc9086c5,04-13-2023_12h45.24.979,PRaM,2021.2.3,Win32,59.99520038,61b8f3437b89212fae0dfadf
6,2.4906,space,0.8668,0,109,109,48,1,,,6398fb43fa99e33c3d9cee53,643773b413ac0d3abc9086c5,04-13-2023_12h45.24.979,PRaM,2021.2.3,Win32,59.99520038,61b8f3437b89212fae0dfadf
9,3.1168,space,1.4634,0,110,110,244,1,,,6398fb43fa99e33c3d9cee53,643773b413ac0d3abc9086c5,04-13-2023_12h45.24.979,PRaM,2021.2.3,Win32,59.99520038,61b8f3437b89212fae0dfadf
8,1.9389,space,0.3675,0,111,111,288,1,,,6398fb43fa99e33c3d9cee53,643773b413ac0d3abc9086c5,04-13-2023_12h45.24.979,PRaM,2021.2.3,Win32,59.99520038,61b8f3437b89212fae0dfadf
6,1.6726,space,0.0214,0,112,112,135,1,,,6398fb43fa99e33c3d9cee53,643773b413ac0d3abc9086c5,04-13-2023_12h45.24.979,PRaM,2021.2.3,Win32,59.99520038,61b8f3437b89212fae0dfadf
4,1.213,space,0.2836,0,113,113,316,1,,,6398fb43fa99e33c3d9cee53,643773b413ac0d3abc9086c5,04-13-2023_12h45.24.979,PRaM,2021.2.3,Win32,59.99520038,61b8f3437b89212fae0dfadf
7,1.6638,space,0.1695,0,114,114,350,1,,,6398fb43fa99e33c3d9cee53,643773b413ac0d3abc9086c5,04-13-2023_12h45.24.979,PRaM,2021.2.3,Win32,59.99520038,61b8f3437b89212fae0dfadf
7,1.9861,space,0.3013,0,115,115,110,1,,,6398fb43fa99e33c3d9cee53,643773b413ac0d3abc9086c5,04-13-2023_12h45.24.979,PRaM,2021.2.3,Win32,59.99520038,61b8f3437b89212fae0dfadf
6,1.8586,space,0.2332,0,116,116,333,1,,,6398fb43fa99e33c3d9cee53,643773b413ac0d3abc9086c5,04-13-2023_12h45.24.979,PRaM,2021.2.3,Win32,59.99520038,61b8f3437b89212fae0dfadf
2,2.0004,space,0.3838,0,117,117,41,1,,,6398fb43fa99e33c3d9cee53,643773b413ac0d3abc9086c5,04-13-2023_12h45.24.979,PRaM,2021.2.3,Win32,59.99520038,61b8f3437b89212fae0dfadf
5,2.187,space,0.5558,0,118,118,205,1,,,6398fb43fa99e33c3d9cee53,643773b413ac0d3abc9086c5,04-13-2023_12h45.24.979,PRaM,2021.2.3,Win32,59.99520038,61b8f3437b89212fae0dfadf
7,2.0664,space,0.3876,0,119,119,249,1,,,6398fb43fa99e33c3d9cee53,643773b413ac0d3abc9086c5,04-13-2023_12h45.24.979,PRaM,2021.2.3,Win32,59.99520038,61b8f3437b89212fae0dfadf
4,1.7758,space,0.1003,0,120,120,94,1,,,6398fb43fa99e33c3d9cee53,643773b413ac0d3abc9086c5,04-13-2023_12h45.24.979,PRaM,2021.2.3,Win32,59.99520038,61b8f3437b89212fae0dfadf
5,2.9986,space,1.3073,0,121,121,72,1,,,6398fb43fa99e33c3d9cee53,643773b413ac0d3abc9086c5,04-13-2023_12h45.24.979,PRaM,2021.2.3,Win32,59.99520038,61b8f3437b89212fae0dfadf
7,1.6618,space,0.6348,0,122,122,347,1,,,6398fb43fa99e33c3d9cee53,643773b413ac0d3abc9086c5,04-13-2023_12h45.24.979,PRaM,2021.2.3,Win32,59.99520038,61b8f3437b89212fae0dfadf
1,7.0713,space,5.8333,0,123,123,266,1,,,6398fb43fa99e33c3d9cee53,643773b413ac0d3abc9086c5,04-13-2023_12h45.24.979,PRaM,2021.2.3,Win32,59.99520038,61b8f3437b89212fae0dfadf
7,1.6835,space,0.0115,0,124,124,75,1,,,6398fb43fa99e33c3d9cee53,643773b413ac0d3abc9086c5,04-13-2023_12h45.24.979,PRaM,2021.2.3,Win32,59.99520038,61b8f3437b89212fae0dfadf
4,4.3261,space,2.6861,0,125,125,35,1,,,6398fb43fa99e33c3d9cee53,643773b413ac0d3abc9086c5,04-13-2023_12h45.24.979,PRaM,2021.2.3,Win32,59.99520038,61b8f3437b89212fae0dfadf
3,1.5724,space,0.5651,0,126,126,260,1,,,6398fb43fa99e33c3d9cee53,643773b413ac0d3abc9086c5,04-13-2023_12h45.24.979,PRaM,2021.2.3,Win32,59.99520038,61b8f3437b89212fae0dfadf
4,1.7048,space,0.1839,0,127,127,190,1,,,6398fb43fa99e33c3d9cee53,643773b413ac0d3abc9086c5,04-13-2023_12h45.24.979,PRaM,2021.2.3,Win32,59.99520038,61b8f3437b89212fae0dfadf
3,1.6261,space,0.4804,0,128,128,283,1,,,6398fb43fa99e33c3d9cee53,643773b413ac0d3abc9086c5,04-13-2023_12h45.24.979,PRaM,2021.2.3,Win32,59.99520038,61b8f3437b89212fae0dfadf
6,1.5025,space,0.4005,0,129,129,337,1,,,6398fb43fa99e33c3d9cee53,643773b413ac0d3abc9086c5,04-13-2023_12h45.24.979,PRaM,2021.2.3,Win32,59.99520038,61b8f3437b89212fae0dfadf
6,2.1483,space,0.483,0,130,130,30,1,,,6398fb43fa99e33c3d9cee53,643773b413ac0d3abc9086c5,04-13-2023_12h45.24.979,PRaM,2021.2.3,Win32,59.99520038,61b8f3437b89212fae0dfadf
3,1.6499,space,0.4341,0,131,131,87,1,,,6398fb43fa99e33c3d9cee53,643773b413ac0d3abc9086c5,04-13-2023_12h45.24.979,PRaM,2021.2.3,Win32,59.99520038,61b8f3437b89212fae0dfadf
4,1.8236,space,0.1636,0,132,132,167,1,,,6398fb43fa99e33c3d9cee53,643773b413ac0d3abc9086c5,04-13-2023_12h45.24.979,PRaM,2021.2.3,Win32,59.99520038,61b8f3437b89212fae0dfadf
6,2.7877,space,1.1003,0,133,133,80,1,,,6398fb43fa99e33c3d9cee53,643773b413ac0d3abc9086c5,04-13-2023_12h45.24.979,PRaM,2021.2.3,Win32,59.99520038,61b8f3437b89212fae0dfadf
8,2.3443,space,0.7345,0,134,134,209,1,,,6398fb43fa99e33c3d9cee53,643773b413ac0d3abc9086c5,04-13-2023_12h45.24.979,PRaM,2021.2.3,Win32,59.99520038,61b8f3437b89212fae0dfadf
5,3.1615,space,1.4392,0,135,135,238,1,,,6398fb43fa99e33c3d9cee53,643773b413ac0d3abc9086c5,04-13-2023_12h45.24.979,PRaM,2021.2.3,Win32,59.99520038,61b8f3437b89212fae0dfadf
7,3.2951,space,1.6387,0,136,136,20,1,,,6398fb43fa99e33c3d9cee53,643773b413ac0d3abc9086c5,04-13-2023_12h45.24.979,PRaM,2021.2.3,Win32,59.99520038,61b8f3437b89212fae0dfadf
6,1.9212,space,0.1845,0,137,137,175,1,,,6398fb43fa99e33c3d9cee53,643773b413ac0d3abc9086c5,04-13-2023_12h45.24.979,PRaM,2021.2.3,Win32,59.99520038,61b8f3437b89212fae0dfadf
6,2.2587,space,0.6022,0,138,138,355,1,,,6398fb43fa99e33c3d9cee53,643773b413ac0d3abc9086c5,04-13-2023_12h45.24.979,PRaM,2021.2.3,Win32,59.99520038,61b8f3437b89212fae0dfadf
3,1.4746,space,0.0004,0,139,139,324,1,,,6398fb43fa99e33c3d9cee53,643773b413ac0d3abc9086c5,04-13-2023_12h45.24.979,PRaM,2021.2.3,Win32,59.99520038,61b8f3437b89212fae0dfadf
4,1.508,space,0.3875,0,140,140,52,1,,,6398fb43fa99e33c3d9cee53,643773b413ac0d3abc9086c5,04-13-2023_12h45.24.979,PRaM,2021.2.3,Win32,59.99520038,61b8f3437b89212fae0dfadf
3,3.4926,space,1.8004,0,141,141,292,1,,,6398fb43fa99e33c3d9cee53,643773b413ac0d3abc9086c5,04-13-2023_12h45.24.979,PRaM,2021.2.3,Win32,59.99520038,61b8f3437b89212fae0dfadf
3,5.1447,space,3.5015,0,142,142,359,1,,,6398fb43fa99e33c3d9cee53,643773b413ac0d3abc9086c5,04-13-2023_12h45.24.979,PRaM,2021.2.3,Win32,59.99520038,61b8f3437b89212fae0dfadf
6,1.8817,space,0.2508,0,143,143,186,1,,,6398fb43fa99e33c3d9cee53,643773b413ac0d3abc9086c5,04-13-2023_12h45.24.979,PRaM,2021.2.3,Win32,59.99520038,61b8f3437b89212fae0dfadf
4,1.5518,space,0.3209,0,144,144,311,1,,,6398fb43fa99e33c3d9cee53,643773b413ac0d3abc9086c5,04-13-2023_12h45.24.979,PRaM,2021.2.3,Win32,59.99520038,61b8f3437b89212fae0dfadf
6,1.7284,space,0.4609,0,145,145,117,1,,,6398fb43fa99e33c3d9cee53,643773b413ac0d3abc9086c5,04-13-2023_12h45.24.979,PRaM,2021.2.3,Win32,59.99520038,61b8f3437b89212fae0dfadf
7,1.6718,space,0.0549,0,146,146,335,1,,,6398fb43fa99e33c3d9cee53,643773b413ac0d3abc9086c5,04-13-2023_12h45.24.979,PRaM,2021.2.3,Win32,59.99520038,61b8f3437b89212fae0dfadf
7,1.8976,space,0.1875,0,147,147,60,1,,,6398fb43fa99e33c3d9cee53,643773b413ac0d3abc9086c5,04-13-2023_12h45.24.979,PRaM,2021.2.3,Win32,59.99520038,61b8f3437b89212fae0dfadf
3,1.6888,space,0.0188,0,148,148,273,1,,,6398fb43fa99e33c3d9cee53,643773b413ac0d3abc9086c5,04-13-2023_12h45.24.979,PRaM,2021.2.3,Win32,59.99520038,61b8f3437b89212fae0dfadf
7,3.2858,space,1.6832,0,149,149,352,1,,,6398fb43fa99e33c3d9cee53,643773b413ac0d3abc9086c5,04-13-2023_12h45.24.979,PRaM,2021.2.3,Win32,59.99520038,61b8f3437b89212fae0dfadf
3,2.2654,space,0.5889,0,150,150,100,1,,,6398fb43fa99e33c3d9cee53,643773b413ac0d3abc9086c5,04-13-2023_12h45.24.979,PRaM,2021.2.3,Win32,59.99520038,61b8f3437b89212fae0dfadf
4,2.3607,space,0.8917,0,151,151,153,1,,,6398fb43fa99e33c3d9cee53,643773b413ac0d3abc9086c5,04-13-2023_12h45.24.979,PRaM,2021.2.3,Win32,59.99520038,61b8f3437b89212fae0dfadf
4,9.8369,space,8.1674,0,152,152,78,1,,,6398fb43fa99e33c3d9cee53,643773b413ac0d3abc9086c5,04-13-2023_12h45.24.979,PRaM,2021.2.3,Win32,59.99520038,61b8f3437b89212fae0dfadf
4,1.205,space,0.3591,0,153,153,101,1,,,6398fb43fa99e33c3d9cee53,643773b413ac0d3abc9086c5,04-13-2023_12h45.24.979,PRaM,2021.2.3,Win32,59.99520038,61b8f3437b89212fae0dfadf
3,2.1379,space,0.4392,0,154,154,265,1,,,6398fb43fa99e33c3d9cee53,643773b413ac0d3abc9086c5,04-13-2023_12h45.24.979,PRaM,2021.2.3,Win32,59.99520038,61b8f3437b89212fae0dfadf
6,2.0224,space,1.1725,0,155,155,147,1,,,6398fb43fa99e33c3d9cee53,643773b413ac0d3abc9086c5,04-13-2023_12h45.24.979,PRaM,2021.2.3,Win32,59.99520038,61b8f3437b89212fae0dfadf
4,1.7225,space,0.0813,0,156,156,58,1,,,6398fb43fa99e33c3d9cee53,643773b413ac0d3abc9086c5,04-13-2023_12h45.24.979,PRaM,2021.2.3,Win32,59.99520038,61b8f3437b89212fae0dfadf
4,9.506,space,7.9497,0,157,157,0,1,,,6398fb43fa99e33c3d9cee53,643773b413ac0d3abc9086c5,04-13-2023_12h45.24.979,PRaM,2021.2.3,Win32,59.99520038,61b8f3437b89212fae0dfadf
6,1.3386,space,0.4846,0,158,158,301,1,,,6398fb43fa99e33c3d9cee53,643773b413ac0d3abc9086c5,04-13-2023_12h45.24.979,PRaM,2021.2.3,Win32,59.99520038,61b8f3437b89212fae0dfadf
2,6.203,space,4.7099,0,159,159,275,1,,,6398fb43fa99e33c3d9cee53,643773b413ac0d3abc9086c5,04-13-2023_12h45.24.979,PRaM,2021.2.3,Win32,59.99520038,61b8f3437b89212fae0dfadf
4,1.4933,space,0.6506,0,160,160,128,1,,,6398fb43fa99e33c3d9cee53,643773b413ac0d3abc9086c5,04-13-2023_12h45.24.979,PRaM,2021.2.3,Win32,59.99520038,61b8f3437b89212fae0dfadf
6,1.4883,space,0.7338,0,161,161,84,1,,,6398fb43fa99e33c3d9cee53,643773b413ac0d3abc9086c5,04-13-2023_12h45.24.979,PRaM,2021.2.3,Win32,59.99520038,61b8f3437b89212fae0dfadf
3,3.8615,space,2.1846,0,162,162,34,1,,,6398fb43fa99e33c3d9cee53,643773b413ac0d3abc9086c5,04-13-2023_12h45.24.979,PRaM,2021.2.3,Win32,59.99520038,61b8f3437b89212fae0dfadf
1,2.2258,space,0.5799,0,163,163,210,1,,,6398fb43fa99e33c3d9cee53,643773b413ac0d3abc9086c5,04-13-2023_12h45.24.979,PRaM,2021.2.3,Win32,59.99520038,61b8f3437b89212fae0dfadf
3,1.15,space,0.557,0,164,164,258,1,,,6398fb43fa99e33c3d9cee53,643773b413ac0d3abc9086c5,04-13-2023_12h45.24.979,PRaM,2021.2.3,Win32,59.99520038,61b8f3437b89212fae0dfadf
4,1.4427,space,0.5341,0,165,165,171,1,,,6398fb43fa99e33c3d9cee53,643773b413ac0d3abc9086c5,04-13-2023_12h45.24.979,PRaM,2021.2.3,Win32,59.99520038,61b8f3437b89212fae0dfadf
7,2.1237,space,0.4965,0,166,166,51,1,,,6398fb43fa99e33c3d9cee53,643773b413ac0d3abc9086c5,04-13-2023_12h45.24.979,PRaM,2021.2.3,Win32,59.99520038,61b8f3437b89212fae0dfadf
3,1.4312,space,0.1356,0,167,167,24,1,,,6398fb43fa99e33c3d9cee53,643773b413ac0d3abc9086c5,04-13-2023_12h45.24.979,PRaM,2021.2.3,Win32,59.99520038,61b8f3437b89212fae0dfadf
4,1.6969,space,0.0816,0,168,168,125,1,,,6398fb43fa99e33c3d9cee53,643773b413ac0d3abc9086c5,04-13-2023_12h45.24.979,PRaM,2021.2.3,Win32,59.99520038,61b8f3437b89212fae0dfadf
6,1.8249,space,0.1757,0,169,169,145,1,,,6398fb43fa99e33c3d9cee53,643773b413ac0d3abc9086c5,04-13-2023_12h45.24.979,PRaM,2021.2.3,Win32,59.99520038,61b8f3437b89212fae0dfadf
3,2.4886,space,0.8394,0,170,170,74,1,,,6398fb43fa99e33c3d9cee53,643773b413ac0d3abc9086c5,04-13-2023_12h45.24.979,PRaM,2021.2.3,Win32,59.99520038,61b8f3437b89212fae0dfadf
8,2.0908,space,0.4168,0,171,171,83,1,,,6398fb43fa99e33c3d9cee53,643773b413ac0d3abc9086c5,04-13-2023_12h45.24.979,PRaM,2021.2.3,Win32,59.99520038,61b8f3437b89212fae0dfadf
5,3.4402,space,1.784,0,172,172,313,1,,,6398fb43fa99e33c3d9cee53,643773b413ac0d3abc9086c5,04-13-2023_12h45.24.979,PRaM,2021.2.3,Win32,59.99520038,61b8f3437b89212fae0dfadf
8,2.2629,space,0.5942,0,173,173,276,1,,,6398fb43fa99e33c3d9cee53,643773b413ac0d3abc9086c5,04-13-2023_12h45.24.979,PRaM,2021.2.3,Win32,59.99520038,61b8f3437b89212fae0dfadf
6,4.9114,space,3.2177,0,174,174,112,1,,,6398fb43fa99e33c3d9cee53,643773b413ac0d3abc9086c5,04-13-2023_12h45.24.979,PRaM,2021.2.3,Win32,59.99520038,61b8f3437b89212fae0dfadf
6,1.5211,space,0.2342,0,175,175,22,1,,,6398fb43fa99e33c3d9cee53,643773b413ac0d3abc9086c5,04-13-2023_12h45.24.979,PRaM,2021.2.3,Win32,59.99520038,61b8f3437b89212fae0dfadf
4,2.0713,space,0.4041,0,176,176,10,1,,,6398fb43fa99e33c3d9cee53,643773b413ac0d3abc9086c5,04-13-2023_12h45.24.979,PRaM,2021.2.3,Win32,59.99520038,61b8f3437b89212fae0dfadf
7,1.88,space,0.2584,0,177,177,370,1,,,6398fb43fa99e33c3d9cee53,643773b413ac0d3abc9086c5,04-13-2023_12h45.24.979,PRaM,2021.2.3,Win32,59.99520038,61b8f3437b89212fae0dfadf
6,1.5643,space,0.4787,0,178,178,88,1,,,6398fb43fa99e33c3d9cee53,643773b413ac0d3abc9086c5,04-13-2023_12h45.24.979,PRaM,2021.2.3,Win32,59.99520038,61b8f3437b89212fae0dfadf
4,2.6422,space,0.9387,0,179,179,184,1,,,6398fb43fa99e33c3d9cee53,643773b413ac0d3abc9086c5,04-13-2023_12h45.24.979,PRaM,2021.2.3,Win32,59.99520038,61b8f3437b89212fae0dfadf
7,1.8965,space,0.2505,0,180,180,93,1,,,6398fb43fa99e33c3d9cee53,643773b413ac0d3abc9086c5,04-13-2023_12h45.24.979,PRaM,2021.2.3,Win32,59.99520038,61b8f3437b89212fae0dfadf
6,1.4398,space,0.1338,0,181,181,178,1,,,6398fb43fa99e33c3d9cee53,643773b413ac0d3abc9086c5,04-13-2023_12h45.24.979,PRaM,2021.2.3,Win32,59.99520038,61b8f3437b89212fae0dfadf
3,2.2391,space,0.5704,0,182,182,39,1,,,6398fb43fa99e33c3d9cee53,643773b413ac0d3abc9086c5,04-13-2023_12h45.24.979,PRaM,2021.2.3,Win32,59.99520038,61b8f3437b89212fae0dfadf
2,3.1596,space,1.4268,0,183,183,212,1,,,6398fb43fa99e33c3d9cee53,643773b413ac0d3abc9086c5,04-13-2023_12h45.24.979,PRaM,2021.2.3,Win32,59.99520038,61b8f3437b89212fae0dfadf
6,2.5102,space,0.7988,0,184,184,365,1,,,6398fb43fa99e33c3d9cee53,643773b413ac0d3abc9086c5,04-13-2023_12h45.24.979,PRaM,2021.2.3,Win32,59.99520038,61b8f3437b89212fae0dfadf
7,1.3957,space,0.1755,0,185,185,279,1,,,6398fb43fa99e33c3d9cee53,643773b413ac0d3abc9086c5,04-13-2023_12h45.24.979,PRaM,2021.2.3,Win32,59.99520038,61b8f3437b89212fae0dfadf
8,1.4431,space,0.1454,0,186,186,302,1,,,6398fb43fa99e33c3d9cee53,643773b413ac0d3abc9086c5,04-13-2023_12h45.24.979,PRaM,2021.2.3,Win32,59.99520038,61b8f3437b89212fae0dfadf
4,1.5834,space,0.5194,0,187,187,18,1,,,6398fb43fa99e33c3d9cee53,643773b413ac0d3abc9086c5,04-13-2023_12h45.24.979,PRaM,2021.2.3,Win32,59.99520038,61b8f3437b89212fae0dfadf
7,3.1454,space,1.4881,0,188,188,102,1,,,6398fb43fa99e33c3d9cee53,643773b413ac0d3abc9086c5,04-13-2023_12h45.24.979,PRaM,2021.2.3,Win32,59.99520038,61b8f3437b89212fae0dfadf
6,1.8905,space,0.4942,0,189,189,126,1,,,6398fb43fa99e33c3d9cee53,643773b413ac0d3abc9086c5,04-13-2023_12h45.24.979,PRaM,2021.2.3,Win32,59.99520038,61b8f3437b89212fae0dfadf
2,2.7877,space,1.0747,0,190,190,289,1,,,6398fb43fa99e33c3d9cee53,643773b413ac0d3abc9086c5,04-13-2023_12h45.24.979,PRaM,2021.2.3,Win32,59.99520038,61b8f3437b89212fae0dfadf
9,2.0213,space,0.3401,0,191,191,137,1,,,6398fb43fa99e33c3d9cee53,643773b413ac0d3abc9086c5,04-13-2023_12h45.24.979,PRaM,2021.2.3,Win32,59.99520038,61b8f3437b89212fae0dfadf
1,1.7618,space,0.0732,0,192,192,295,1,,,6398fb43fa99e33c3d9cee53,643773b413ac0d3abc9086c5,04-13-2023_12h45.24.979,PRaM,2021.2.3,Win32,59.99520038,61b8f3437b89212fae0dfadf
4,1.6389,space,0.0008,0,193,193,116,1,,,6398fb43fa99e33c3d9cee53,643773b413ac0d3abc9086c5,04-13-2023_12h45.24.979,PRaM,2021.2.3,Win32,59.99520038,61b8f3437b89212fae0dfadf
1,2.2122,space,0.7012,0,194,194,107,1,,,6398fb43fa99e33c3d9cee53,643773b413ac0d3abc9086c5,04-13-2023_12h45.24.979,PRaM,2021.2.3,Win32,59.99520038,61b8f3437b89212fae0dfadf
2,2.364,space,0.8165,0,195,195,130,1,,,6398fb43fa99e33c3d9cee53,643773b413ac0d3abc9086c5,04-13-2023_12h45.24.979,PRaM,2021.2.3,Win32,59.99520038,61b8f3437b89212fae0dfadf
4,3.0924,space,1.2723,0,196,196,236,1,,,6398fb43fa99e33c3d9cee53,643773b413ac0d3abc9086c5,04-13-2023_12h45.24.979,PRaM,2021.2.3,Win32,59.99520038,61b8f3437b89212fae0dfadf
6,2.1113,space,0.4701,0,197,197,358,1,,,6398fb43fa99e33c3d9cee53,643773b413ac0d3abc9086c5,04-13-2023_12h45.24.979,PRaM,2021.2.3,Win32,59.99520038,61b8f3437b89212fae0dfadf
2,1.7485,space,0.069,0,198,198,2,1,,,6398fb43fa99e33c3d9cee53,643773b413ac0d3abc9086c5,04-13-2023_12h45.24.979,PRaM,2021.2.3,Win32,59.99520038,61b8f3437b89212fae0dfadf
2,2.0384,space,0.4,0,199,199,251,1,,,6398fb43fa99e33c3d9cee53,643773b413ac0d3abc9086c5,04-13-2023_12h45.24.979,PRaM,2021.2.3,Win32,59.99520038,61b8f3437b89212fae0dfadf
2,2.4905,space,0.7678,0,200,200,237,1,,,6398fb43fa99e33c3d9cee53,643773b413ac0d3abc9086c5,04-13-2023_12h45.24.979,PRaM,2021.2.3,Win32,59.99520038,61b8f3437b89212fae0dfadf
3,3.3904,space,1.7667,0,201,201,157,1,,,6398fb43fa99e33c3d9cee53,643773b413ac0d3abc9086c5,04-13-2023_12h45.24.979,PRaM,2021.2.3,Win32,59.99520038,61b8f3437b89212fae0dfadf
3,2.4282,space,0.7545,0,202,202,374,1,,,6398fb43fa99e33c3d9cee53,643773b413ac0d3abc9086c5,04-13-2023_12h45.24.979,PRaM,2021.2.3,Win32,59.99520038,61b8f3437b89212fae0dfadf
3,1.4721,space,0.3404,0,203,203,28,1,,,6398fb43fa99e33c3d9cee53,643773b413ac0d3abc9086c5,04-13-2023_12h45.24.979,PRaM,2021.2.3,Win32,59.99520038,61b8f3437b89212fae0dfadf
8,1.6245,space,0.317,0,204,204,17,1,,,6398fb43fa99e33c3d9cee53,643773b413ac0d3abc9086c5,04-13-2023_12h45.24.979,PRaM,2021.2.3,Win32,59.99520038,61b8f3437b89212fae0dfadf
1,1.9008,space,0.2543,0,205,205,220,1,,,6398fb43fa99e33c3d9cee53,643773b413ac0d3abc9086c5,04-13-2023_12h45.24.979,PRaM,2021.2.3,Win32,59.99520038,61b8f3437b89212fae0dfadf
7,3.3754,space,1.6268,0,206,206,183,1,,,6398fb43fa99e33c3d9cee53,643773b413ac0d3abc9086c5,04-13-2023_12h45.24.979,PRaM,2021.2.3,Win32,59.99520038,61b8f3437b89212fae0dfadf
4,3.4949,space,1.8407,0,207,207,308,1,,,6398fb43fa99e33c3d9cee53,643773b413ac0d3abc9086c5,04-13-2023_12h45.24.979,PRaM,2021.2.3,Win32,59.99520038,61b8f3437b89212fae0dfadf
4,2.1788,space,0.9456,0,208,208,240,1,,,6398fb43fa99e33c3d9cee53,643773b413ac0d3abc9086c5,04-13-2023_12h45.24.979,PRaM,2021.2.3,Win32,59.99520038,61b8f3437b89212fae0dfadf
7,1.7914,space,0.3521,0,209,209,207,1,,,6398fb43fa99e33c3d9cee53,643773b413ac0d3abc9086c5,04-13-2023_12h45.24.979,PRaM,2021.2.3,Win32,59.99520038,61b8f3437b89212fae0dfadf
7,1.5358,space,0.45,0,210,210,12,1,,,6398fb43fa99e33c3d9cee53,643773b413ac0d3abc9086c5,04-13-2023_12h45.24.979,PRaM,2021.2.3,Win32,59.99520038,61b8f3437b89212fae0dfadf
3,1.6712,space,0.2849,0,211,211,341,1,,,6398fb43fa99e33c3d9cee53,643773b413ac0d3abc9086c5,04-13-2023_12h45.24.979,PRaM,2021.2.3,Win32,59.99520038,61b8f3437b89212fae0dfadf
6,4.0462,space,2.3175,0,212,212,310,1,,,6398fb43fa99e33c3d9cee53,643773b413ac0d3abc9086c5,04-13-2023_12h45.24.979,PRaM,2021.2.3,Win32,59.99520038,61b8f3437b89212fae0dfadf
4,2.0719,space,0.3984,0,213,213,96,1,,,6398fb43fa99e33c3d9cee53,643773b413ac0d3abc9086c5,04-13-2023_12h45.24.979,PRaM,2021.2.3,Win32,59.99520038,61b8f3437b89212fae0dfadf
3,2.7122,space,1.0365,0,214,214,189,1,,,6398fb43fa99e33c3d9cee53,643773b413ac0d3abc9086c5,04-13-2023_12h45.24.979,PRaM,2021.2.3,Win32,59.99520038,61b8f3437b89212fae0dfadf
4,2.1552,space,0.438,0,215,215,122,1,,,6398fb43fa99e33c3d9cee53,643773b413ac0d3abc9086c5,04-13-2023_12h45.24.979,PRaM,2021.2.3,Win32,59.99520038,61b8f3437b89212fae0dfadf
7,1.8887,space,0.2307,0,216,216,127,1,,,6398fb43fa99e33c3d9cee53,643773b413ac0d3abc9086c5,04-13-2023_12h45.24.979,PRaM,2021.2.3,Win32,59.99520038,61b8f3437b89212fae0dfadf
7,1.9719,space,0.3157,0,217,217,4,1,,,6398fb43fa99e33c3d9cee53,643773b413ac0d3abc9086c5,04-13-2023_12h45.24.979,PRaM,2021.2.3,Win32,59.99520038,61b8f3437b89212fae0dfadf
4,2.0397,space,0.3706,0,218,218,144,1,,,6398fb43fa99e33c3d9cee53,643773b413ac0d3abc9086c5,04-13-2023_12h45.24.979,PRaM,2021.2.3,Win32,59.99520038,61b8f3437b89212fae0dfadf
7,1.5597,space,0.3719,0,219,219,177,1,,,6398fb43fa99e33c3d9cee53,643773b413ac0d3abc9086c5,04-13-2023_12h45.24.979,PRaM,2021.2.3,Win32,59.99520038,61b8f3437b89212fae0dfadf
7,1.7723,space,0.1007,0,220,220,7,1,,,6398fb43fa99e33c3d9cee53,643773b413ac0d3abc9086c5,04-13-2023_12h45.24.979,PRaM,2021.2.3,Win32,59.99520038,61b8f3437b89212fae0dfadf
8,1.5302,space,0.3898,0,221,221,45,1,,,6398fb43fa99e33c3d9cee53,643773b413ac0d3abc9086c5,04-13-2023_12h45.24.979,PRaM,2021.2.3,Win32,59.99520038,61b8f3437b89212fae0dfadf
3,1.7302,space,0.6686,0,222,222,163,1,,,6398fb43fa99e33c3d9cee53,643773b413ac0d3abc9086c5,04-13-2023_12h45.24.979,PRaM,2021.2.3,Win32,59.99520038,61b8f3437b89212fae0dfadf
6,1.9549,space,0.4691,0,223,223,156,1,,,6398fb43fa99e33c3d9cee53,643773b413ac0d3abc9086c5,04-13-2023_12h45.24.979,PRaM,2021.2.3,Win32,59.99520038,61b8f3437b89212fae0dfadf
7,4.329,space,2.6672,0,224,224,16,1,,,6398fb43fa99e33c3d9cee53,643773b413ac0d3abc9086c5,04-13-2023_12h45.24.979,PRaM,2021.2.3,Win32,59.99520038,61b8f3437b89212fae0dfadf
6,1.8319,space,0.1667,0,225,225,76,1,,,6398fb43fa99e33c3d9cee53,643773b413ac0d3abc9086c5,04-13-2023_12h45.24.979,PRaM,2021.2.3,Win32,59.99520038,61b8f3437b89212fae0dfadf
2,1.7856,space,0.1387,0,226,226,214,1,,,6398fb43fa99e33c3d9cee53,643773b413ac0d3abc9086c5,04-13-2023_12h45.24.979,PRaM,2021.2.3,Win32,59.99520038,61b8f3437b89212fae0dfadf
3,1.3219,space,0.1725,0,227,227,296,1,,,6398fb43fa99e33c3d9cee53,643773b413ac0d3abc9086c5,04-13-2023_12h45.24.979,PRaM,2021.2.3,Win32,59.99520038,61b8f3437b89212fae0dfadf
6,1.8545,space,0.1967,0,228,228,142,1,,,6398fb43fa99e33c3d9cee53,643773b413ac0d3abc9086c5,04-13-2023_12h45.24.979,PRaM,2021.2.3,Win32,59.99520038,61b8f3437b89212fae0dfadf
4,1.49,space,0.3501,0,229,229,121,1,,,6398fb43fa99e33c3d9cee53,643773b413ac0d3abc9086c5,04-13-2023_12h45.24.979,PRaM,2021.2.3,Win32,59.99520038,61b8f3437b89212fae0dfadf
1,1.9964,space,0.2692,0,230,230,312,1,,,6398fb43fa99e33c3d9cee53,643773b413ac0d3abc9086c5,04-13-2023_12h45.24.979,PRaM,2021.2.3,Win32,59.99520038,61b8f3437b89212fae0dfadf
2,1.9376,space,0.2597,0,231,231,322,1,,,6398fb43fa99e33c3d9cee53,643773b413ac0d3abc9086c5,04-13-2023_12h45.24.979,PRaM,2021.2.3,Win32,59.99520038,61b8f3437b89212fae0dfadf
4,2.251,space,0.8179,0,232,232,98,1,,,6398fb43fa99e33c3d9cee53,643773b413ac0d3abc9086c5,04-13-2023_12h45.24.979,PRaM,2021.2.3,Win32,59.99520038,61b8f3437b89212fae0dfadf
4,1.449,space,0.2686,0,233,233,9,1,,,6398fb43fa99e33c3d9cee53,643773b413ac0d3abc9086c5,04-13-2023_12h45.24.979,PRaM,2021.2.3,Win32,59.99520038,61b8f3437b89212fae0dfadf
3,3.1013,space,1.5811,0,234,234,219,1,,,6398fb43fa99e33c3d9cee53,643773b413ac0d3abc9086c5,04-13-2023_12h45.24.979,PRaM,2021.2.3,Win32,59.99520038,61b8f3437b89212fae0dfadf
7,2.2717,space,0.6169,0,235,235,259,1,,,6398fb43fa99e33c3d9cee53,643773b413ac0d3abc9086c5,04-13-2023_12h45.24.979,PRaM,2021.2.3,Win32,59.99520038,61b8f3437b89212fae0dfadf
4,2.582,space,0.9672,0,236,236,356,1,,,6398fb43fa99e33c3d9cee53,643773b413ac0d3abc9086c5,04-13-2023_12h45.24.979,PRaM,2021.2.3,Win32,59.99520038,61b8f3437b89212fae0dfadf
8,2.0986,space,1.3508,0,237,237,61,1,,,6398fb43fa99e33c3d9cee53,643773b413ac0d3abc9086c5,04-13-2023_12h45.24.979,PRaM,2021.2.3,Win32,59.99520038,61b8f3437b89212fae0dfadf
4,2.638,space,0.9343,0,238,238,221,1,,,6398fb43fa99e33c3d9cee53,643773b413ac0d3abc9086c5,04-13-2023_12h45.24.979,PRaM,2021.2.3,Win32,59.99520038,61b8f3437b89212fae0dfadf
6,2.8781,space,1.2315,0,239,239,19,1,,,6398fb43fa99e33c3d9cee53,643773b413ac0d3abc9086c5,04-13-2023_12h45.24.979,PRaM,2021.2.3,Win32,59.99520038,61b8f3437b89212fae0dfadf
8,1.7827,space,0.2788,0,240,240,197,1,,,6398fb43fa99e33c3d9cee53,643773b413ac0d3abc9086c5,04-13-2023_12h45.24.979,PRaM,2021.2.3,Win32,59.99520038,61b8f3437b89212fae0dfadf
6,4.3233,space,2.7235,0,241,241,281,1,,,6398fb43fa99e33c3d9cee53,643773b413ac0d3abc9086c5,04-13-2023_12h45.24.979,PRaM,2021.2.3,Win32,59.99520038,61b8f3437b89212fae0dfadf
6,2.4422,space,0.7687,0,242,242,143,1,,,6398fb43fa99e33c3d9cee53,643773b413ac0d3abc9086c5,04-13-2023_12h45.24.979,PRaM,2021.2.3,Win32,59.99520038,61b8f3437b89212fae0dfadf
3,1.8424,space,0.2008,0,243,243,243,1,,,6398fb43fa99e33c3d9cee53,643773b413ac0d3abc9086c5,04-13-2023_12h45.24.979,PRaM,2021.2.3,Win32,59.99520038,61b8f3437b89212fae0dfadf
6,1.3551,space,0.6351,0,244,244,159,1,,,6398fb43fa99e33c3d9cee53,643773b413ac0d3abc9086c5,04-13-2023_12h45.24.979,PRaM,2021.2.3,Win32,59.99520038,61b8f3437b89212fae0dfadf
7,2.3554,space,0.6205,0,245,245,86,1,,,6398fb43fa99e33c3d9cee53,643773b413ac0d3abc9086c5,04-13-2023_12h45.24.979,PRaM,2021.2.3,Win32,59.99520038,61b8f3437b89212fae0dfadf
4,1.81,space,0.0936,0,246,246,348,1,,,6398fb43fa99e33c3d9cee53,643773b413ac0d3abc9086c5,04-13-2023_12h45.24.979,PRaM,2021.2.3,Win32,59.99520038,61b8f3437b89212fae0dfadf
4,1.3387,space,0.0631,0,247,247,71,1,,,6398fb43fa99e33c3d9cee53,643773b413ac0d3abc9086c5,04-13-2023_12h45.24.979,PRaM,2021.2.3,Win32,59.99520038,61b8f3437b89212fae0dfadf
4,2.7719,space,1.2042,0,248,248,179,1,,,6398fb43fa99e33c3d9cee53,643773b413ac0d3abc9086c5,04-13-2023_12h45.24.979,PRaM,2021.2.3,Win32,59.99520038,61b8f3437b89212fae0dfadf
4,1.4558,space,0.2267,0,249,249,104,1,,,6398fb43fa99e33c3d9cee53,643773b413ac0d3abc9086c5,04-13-2023_12h45.24.979,PRaM,2021.2.3,Win32,59.99520038,61b8f3437b89212fae0dfadf
4,2.0762,space,0.4499,0,250,250,119,1,,,6398fb43fa99e33c3d9cee53,643773b413ac0d3abc9086c5,04-13-2023_12h45.24.979,PRaM,2021.2.3,Win32,59.99520038,61b8f3437b89212fae0dfadf
6,2.6701,space,1.0536,0,251,251,208,1,,,6398fb43fa99e33c3d9cee53,643773b413ac0d3abc9086c5,04-13-2023_12h45.24.979,PRaM,2021.2.3,Win32,59.99520038,61b8f3437b89212fae0dfadf
3,1.9052,space,0.227,0,252,252,250,1,,,6398fb43fa99e33c3d9cee53,643773b413ac0d3abc9086c5,04-13-2023_12h45.24.979,PRaM,2021.2.3,Win32,59.99520038,61b8f3437b89212fae0dfadf
2,2.6539,space,1.0353,0,253,253,353,1,,,6398fb43fa99e33c3d9cee53,643773b413ac0d3abc9086c5,04-13-2023_12h45.24.979,PRaM,2021.2.3,Win32,59.99520038,61b8f3437b89212fae0dfadf
2,1.305,space,0.1788,0,254,254,247,1,,,6398fb43fa99e33c3d9cee53,643773b413ac0d3abc9086c5,04-13-2023_12h45.24.979,PRaM,2021.2.3,Win32,59.99520038,61b8f3437b89212fae0dfadf
6,1.6377,space,0.0841,0,255,255,152,1,,,6398fb43fa99e33c3d9cee53,643773b413ac0d3abc9086c5,04-13-2023_12h45.24.979,PRaM,2021.2.3,Win32,59.99520038,61b8f3437b89212fae0dfadf
6,1.8003,space,0.1172,0,256,256,168,1,,,6398fb43fa99e33c3d9cee53,643773b413ac0d3abc9086c5,04-13-2023_12h45.24.979,PRaM,2021.2.3,Win32,59.99520038,61b8f3437b89212fae0dfadf
6,1.0392,space,0.2534,0,257,257,199,1,,,6398fb43fa99e33c3d9cee53,643773b413ac0d3abc9086c5,04-13-2023_12h45.24.979,PRaM,2021.2.3,Win32,59.99520038,61b8f3437b89212fae0dfadf
7,1.872,space,0.1999,0,258,258,239,1,,,6398fb43fa99e33c3d9cee53,643773b413ac0d3abc9086c5,04-13-2023_12h45.24.979,PRaM,2021.2.3,Win32,59.99520038,61b8f3437b89212fae0dfadf
6,2.2493,space,0.5903,0,259,259,170,1,,,6398fb43fa99e33c3d9cee53,643773b413ac0d3abc9086c5,04-13-2023_12h45.24.979,PRaM,2021.2.3,Win32,59.99520038,61b8f3437b89212fae0dfadf
6,2.4187,space,0.9831,0,260,260,151,1,,,6398fb43fa99e33c3d9cee53,643773b413ac0d3abc9086c5,04-13-2023_12h45.24.979,PRaM,2021.2.3,Win32,59.99520038,61b8f3437b89212fae0dfadf
3,1.7245,space,0.0372,0,261,261,315,1,,,6398fb43fa99e33c3d9cee53,643773b413ac0d3abc9086c5,04-13-2023_12h45.24.979,PRaM,2021.2.3,Win32,59.99520038,61b8f3437b89212fae0dfadf
4,2.0053,space,0.3836,0,262,262,367,1,,,6398fb43fa99e33c3d9cee53,643773b413ac0d3abc9086c5,04-13-2023_12h45.24.979,PRaM,2021.2.3,Win32,59.99520038,61b8f3437b89212fae0dfadf
4,5.4224,space,3.7576,0,263,263,298,1,,,6398fb43fa99e33c3d9cee53,643773b413ac0d3abc9086c5,04-13-2023_12h45.24.979,PRaM,2021.2.3,Win32,59.99520038,61b8f3437b89212fae0dfadf
6,1.4961,space,0.3225,0,264,264,363,1,,,6398fb43fa99e33c3d9cee53,643773b413ac0d3abc9086c5,04-13-2023_12h45.24.979,PRaM,2021.2.3,Win32,59.99520038,61b8f3437b89212fae0dfadf
4,2.4953,space,0.7958,0,265,265,81,1,,,6398fb43fa99e33c3d9cee53,643773b413ac0d3abc9086c5,04-13-2023_12h45.24.979,PRaM,2021.2.3,Win32,59.99520038,61b8f3437b89212fae0dfadf
3,1.7709,space,0.1011,0,266,266,67,1,,,6398fb43fa99e33c3d9cee53,643773b413ac0d3abc9086c5,04-13-2023_12h45.24.979,PRaM,2021.2.3,Win32,59.99520038,61b8f3437b89212fae0dfadf
4,1.8547,space,0.1532,0,267,267,138,1,,,6398fb43fa99e33c3d9cee53,643773b413ac0d3abc9086c5,04-13-2023_12h45.24.979,PRaM,2021.2.3,Win32,59.99520038,61b8f3437b89212fae0dfadf
6,1.5211,space,0.3257,0,268,268,3,1,,,6398fb43fa99e33c3d9cee53,643773b413ac0d3abc9086c5,04-13-2023_12h45.24.979,PRaM,2021.2.3,Win32,59.99520038,61b8f3437b89212fae0dfadf
6,1.52,space,0.2675,0,269,269,216,1,,,6398fb43fa99e33c3d9cee53,643773b413ac0d3abc9086c5,04-13-2023_12h45.24.979,PRaM,2021.2.3,Win32,59.99520038,61b8f3437b89212fae0dfadf
4,1.6916,space,0.3404,0,270,270,106,1,,,6398fb43fa99e33c3d9cee53,643773b413ac0d3abc9086c5,04-13-2023_12h45.24.979,PRaM,2021.2.3,Win32,59.99520038,61b8f3437b89212fae0dfadf
7,1.7071,space,0.0332,0,271,271,196,1,,,6398fb43fa99e33c3d9cee53,643773b413ac0d3abc9086c5,04-13-2023_12h45.24.979,PRaM,2021.2.3,Win32,59.99520038,61b8f3437b89212fae0dfadf
3,4.1317,space,2.6444,0,272,272,278,1,,,6398fb43fa99e33c3d9cee53,643773b413ac0d3abc9086c5,04-13-2023_12h45.24.979,PRaM,2021.2.3,Win32,59.99520038,61b8f3437b89212fae0dfadf
4,5.0538,space,3.3667,0,273,273,204,1,,,6398fb43fa99e33c3d9cee53,643773b413ac0d3abc9086c5,04-13-2023_12h45.24.979,PRaM,2021.2.3,Win32,59.99520038,61b8f3437b89212fae0dfadf
3,2.6971,space,1.0342,0,274,274,92,1,,,6398fb43fa99e33c3d9cee53,643773b413ac0d3abc9086c5,04-13-2023_12h45.24.979,PRaM,2021.2.3,Win32,59.99520038,61b8f3437b89212fae0dfadf
2,1.78,space,0.1208,0,275,275,64,1,,,6398fb43fa99e33c3d9cee53,643773b413ac0d3abc9086c5,04-13-2023_12h45.24.979,PRaM,2021.2.3,Win32,59.99520038,61b8f3437b89212fae0dfadf
4,2.0056,space,0.5338,0,276,276,181,1,,,6398fb43fa99e33c3d9cee53,643773b413ac0d3abc9086c5,04-13-2023_12h45.24.979,PRaM,2021.2.3,Win32,59.99520038,61b8f3437b89212fae0dfadf
4,2.5214,space,0.8836,0,277,277,342,1,,,6398fb43fa99e33c3d9cee53,643773b413ac0d3abc9086c5,04-13-2023_12h45.24.979,PRaM,2021.2.3,Win32,59.99520038,61b8f3437b89212fae0dfadf
3,3.1894,space,1.5004,0,278,278,161,1,,,6398fb43fa99e33c3d9cee53,643773b413ac0d3abc9086c5,04-13-2023_12h45.24.979,PRaM,2021.2.3,Win32,59.99520038,61b8f3437b89212fae0dfadf
6,3.2217,space,1.504,0,279,279,180,1,,,6398fb43fa99e33c3d9cee53,643773b413ac0d3abc9086c5,04-13-2023_12h45.24.979,PRaM,2021.2.3,Win32,59.99520038,61b8f3437b89212fae0dfadf
5,3.2725,space,1.6031,0,280,280,15,1,,,6398fb43fa99e33c3d9cee53,643773b413ac0d3abc9086c5,04-13-2023_12h45.24.979,PRaM,2021.2.3,Win32,59.99520038,61b8f3437b89212fae0dfadf
3,1.9693,space,0.3137,0,281,281,73,1,,,6398fb43fa99e33c3d9cee53,643773b413ac0d3abc9086c5,04-13-2023_12h45.24.979,PRaM,2021.2.3,Win32,59.99520038,61b8f3437b89212fae0dfadf
2,2.0512,space,0.3628,0,282,282,248,1,,,6398fb43fa99e33c3d9cee53,643773b413ac0d3abc9086c5,04-13-2023_12h45.24.979,PRaM,2021.2.3,Win32,59.99520038,61b8f3437b89212fae0dfadf
3,1.621,space,0.3344,0,283,283,27,1,,,6398fb43fa99e33c3d9cee53,643773b413ac0d3abc9086c5,04-13-2023_12h45.24.979,PRaM,2021.2.3,Win32,59.99520038,61b8f3437b89212fae0dfadf
3,3.271,space,1.7837,0,284,284,229,1,,,6398fb43fa99e33c3d9cee53,643773b413ac0d3abc9086c5,04-13-2023_12h45.24.979,PRaM,2021.2.3,Win32,59.99520038,61b8f3437b89212fae0dfadf
3,1.7133,space,0.0337,0,285,285,303,1,,,6398fb43fa99e33c3d9cee53,643773b413ac0d3abc9086c5,04-13-2023_12h45.24.979,PRaM,2021.2.3,Win32,59.99520038,61b8f3437b89212fae0dfadf
5,2.3545,space,0.7012,0,286,286,166,1,,,6398fb43fa99e33c3d9cee53,643773b413ac0d3abc9086c5,04-13-2023_12h45.24.979,PRaM,2021.2.3,Win32,59.99520038,61b8f3437b89212fae0dfadf
6,1.9422,space,0.2935,0,287,287,118,1,,,6398fb43fa99e33c3d9cee53,643773b413ac0d3abc9086c5,04-13-2023_12h45.24.979,PRaM,2021.2.3,Win32,59.99520038,61b8f3437b89212fae0dfadf
4,1.4086,space,0.2343,0,288,288,13,1,,,6398fb43fa99e33c3d9cee53,643773b413ac0d3abc9086c5,04-13-2023_12h45.24.979,PRaM,2021.2.3,Win32,59.99520038,61b8f3437b89212fae0dfadf
7,1.6047,space,0.3793,0,289,289,173,1,,,6398fb43fa99e33c3d9cee53,643773b413ac0d3abc9086c5,04-13-2023_12h45.24.979,PRaM,2021.2.3,Win32,59.99520038,61b8f3437b89212fae0dfadf
7,1.3007,space,0.2057,0,290,290,114,1,,,6398fb43fa99e33c3d9cee53,643773b413ac0d3abc9086c5,04-13-2023_12h45.24.979,PRaM,2021.2.3,Win32,59.99520038,61b8f3437b89212fae0dfadf
6,2.1389,space,0.3346,0,291,291,267,1,,,6398fb43fa99e33c3d9cee53,643773b413ac0d3abc9086c5,04-13-2023_12h45.24.979,PRaM,2021.2.3,Win32,59.99520038,61b8f3437b89212fae0dfadf
3,1.6721,space,0.0507,0,292,292,176,1,,,6398fb43fa99e33c3d9cee53,643773b413ac0d3abc9086c5,04-13-2023_12h45.24.979,PRaM,2021.2.3,Win32,59.99520038,61b8f3437b89212fae0dfadf
2,1.982,space,0.3192,0,293,293,338,1,,,6398fb43fa99e33c3d9cee53,643773b413ac0d3abc9086c5,04-13-2023_12h45.24.979,PRaM,2021.2.3,Win32,59.99520038,61b8f3437b89212fae0dfadf
9,2.3075,space,1.0342,0,294,294,291,1,,,6398fb43fa99e33c3d9cee53,643773b413ac0d3abc9086c5,04-13-2023_12h45.24.979,PRaM,2021.2.3,Win32,59.99520038,61b8f3437b89212fae0dfadf
4,1.6624,space,0.0093,0,295,295,215,1,,,6398fb43fa99e33c3d9cee53,643773b413ac0d3abc9086c5,04-13-2023_12h45.24.979,PRaM,2021.2.3,Win32,59.99520038,61b8f3437b89212fae0dfadf
3,2.013,space,0.3404,0,296,296,36,1,,,6398fb43fa99e33c3d9cee53,643773b413ac0d3abc9086c5,04-13-2023_12h45.24.979,PRaM,2021.2.3,Win32,59.99520038,61b8f3437b89212fae0dfadf
6,2.7385,space,1.051,0,297,297,261,1,,,6398fb43fa99e33c3d9cee53,643773b413ac0d3abc9086c5,04-13-2023_12h45.24.979,PRaM,2021.2.3,Win32,59.99520038,61b8f3437b89212fae0dfadf
6,2.4425,space,0.7493,0,298,298,327,1,,,6398fb43fa99e33c3d9cee53,643773b413ac0d3abc9086c5,04-13-2023_12h45.24.979,PRaM,2021.2.3,Win32,59.99520038,61b8f3437b89212fae0dfadf
8,2.4884,space,0.7912,0,299,299,304,1,,,6398fb43fa99e33c3d9cee53,643773b413ac0d3abc9086c5,04-13-2023_12h45.24.979,PRaM,2021.2.3,Win32,59.99520038,61b8f3437b89212fae0dfadf
4,1.8428,space,0.4333,0,300,300,252,1,,,6398fb43fa99e33c3d9cee53,643773b413ac0d3abc9086c5,04-13-2023_12h45.24.979,PRaM,2021.2.3,Win32,59.99520038,61b8f3437b89212fae0dfadf
4,2.9551,space,1.2776,0,301,301,174,1,,,6398fb43fa99e33c3d9cee53,643773b413ac0d3abc9086c5,04-13-2023_12h45.24.979,PRaM,2021.2.3,Win32,59.99520038,61b8f3437b89212fae0dfadf
4,1.7957,space,0.0875,0,302,302,241,1,,,6398fb43fa99e33c3d9cee53,643773b413ac0d3abc9086c5,04-13-2023_12h45.24.979,PRaM,2021.2.3,Win32,59.99520038,61b8f3437b89212fae0dfadf
6,2.4793,space,0.8188,0,303,303,32,1,,,6398fb43fa99e33c3d9cee53,643773b413ac0d3abc9086c5,04-13-2023_12h45.24.979,PRaM,2021.2.3,Win32,59.99520038,61b8f3437b89212fae0dfadf
7,1.9053,space,0.3175,0,304,304,53,1,,,6398fb43fa99e33c3d9cee53,643773b413ac0d3abc9086c5,04-13-2023_12h45.24.979,PRaM,2021.2.3,Win32,59.99520038,61b8f3437b89212fae0dfadf
5,2.9752,space,1.3335,0,305,305,271,1,,,6398fb43fa99e33c3d9cee53,643773b413ac0d3abc9086c5,04-13-2023_12h45.24.979,PRaM,2021.2.3,Win32,59.99520038,61b8f3437b89212fae0dfadf
3,1.5323,space,0.9341,0,306,306,369,1,,,6398fb43fa99e33c3d9cee53,643773b413ac0d3abc9086c5,04-13-2023_12h45.24.979,PRaM,2021.2.3,Win32,59.99520038,61b8f3437b89212fae0dfadf
6,3.5546,space,1.9169,0,307,307,164,1,,,6398fb43fa99e33c3d9cee53,643773b413ac0d3abc9086c5,04-13-2023_12h45.24.979,PRaM,2021.2.3,Win32,59.99520038,61b8f3437b89212fae0dfadf
3,1.7832,space,0.4339,0,308,308,91,1,,,6398fb43fa99e33c3d9cee53,643773b413ac0d3abc9086c5,04-13-2023_12h45.24.979,PRaM,2021.2.3,Win32,59.99520038,61b8f3437b89212fae0dfadf
3,2.0269,space,0.4386,0,309,309,65,1,,,6398fb43fa99e33c3d9cee53,643773b413ac0d3abc9086c5,04-13-2023_12h45.24.979,PRaM,2021.2.3,Win32,59.99520038,61b8f3437b89212fae0dfadf
2,1.5391,space,0.9461,0,310,310,329,1,,,6398fb43fa99e33c3d9cee53,643773b413ac0d3abc9086c5,04-13-2023_12h45.24.979,PRaM,2021.2.3,Win32,59.99520038,61b8f3437b89212fae0dfadf
8,1.2765,space,0.0747,0,311,311,323,1,,,6398fb43fa99e33c3d9cee53,643773b413ac0d3abc9086c5,04-13-2023_12h45.24.979,PRaM,2021.2.3,Win32,59.99520038,61b8f3437b89212fae0dfadf
2,8.9882,space,7.3123,0,312,312,368,1,,,6398fb43fa99e33c3d9cee53,643773b413ac0d3abc9086c5,04-13-2023_12h45.24.979,PRaM,2021.2.3,Win32,59.99520038,61b8f3437b89212fae0dfadf
4,1.6354,space,0.0515,0,313,313,109,1,,,6398fb43fa99e33c3d9cee53,643773b413ac0d3abc9086c5,04-13-2023_12h45.24.979,PRaM,2021.2.3,Win32,59.99520038,61b8f3437b89212fae0dfadf
6,1.5091,space,0.4083,0,314,314,46,1,,,6398fb43fa99e33c3d9cee53,643773b413ac0d3abc9086c5,04-13-2023_12h45.24.979,PRaM,2021.2.3,Win32,59.99520038,61b8f3437b89212fae0dfadf
7,1.2547,space,0.4497,0,315,315,280,1,,,6398fb43fa99e33c3d9cee53,643773b413ac0d3abc9086c5,04-13-2023_12h45.24.979,PRaM,2021.2.3,Win32,59.99520038,61b8f3437b89212fae0dfadf
3,1.6209,space,0.3345,0,316,316,232,1,,,6398fb43fa99e33c3d9cee53,643773b413ac0d3abc9086c5,04-13-2023_12h45.24.979,PRaM,2021.2.3,Win32,59.99520038,61b8f3437b89212fae0dfadf
6,2.2094,space,0.5856,0,317,317,246,1,,,6398fb43fa99e33c3d9cee53,643773b413ac0d3abc9086c5,04-13-2023_12h45.24.979,PRaM,2021.2.3,Win32,59.99520038,61b8f3437b89212fae0dfadf
7,2.281,space,0.6202,0,318,318,319,1,,,6398fb43fa99e33c3d9cee53,643773b413ac0d3abc9086c5,04-13-2023_12h45.24.979,PRaM,2021.2.3,Win32,59.99520038,61b8f3437b89212fae0dfadf
3,1.7885,space,0.1131,0,319,319,299,1,,,6398fb43fa99e33c3d9cee53,643773b413ac0d3abc9086c5,04-13-2023_12h45.24.979,PRaM,2021.2.3,Win32,59.99520038,61b8f3437b89212fae0dfadf
3,5.331,space,3.6364,0,320,320,63,1,,,6398fb43fa99e33c3d9cee53,643773b413ac0d3abc9086c5,04-13-2023_12h45.24.979,PRaM,2021.2.3,Win32,59.99520038,61b8f3437b89212fae0dfadf
6,2.6366,space,0.9791,0,321,321,305,1,,,6398fb43fa99e33c3d9cee53,643773b413ac0d3abc9086c5,04-13-2023_12h45.24.979,PRaM,2021.2.3,Win32,59.99520038,61b8f3437b89212fae0dfadf
7,2.5157,space,0.7851,0,322,322,242,1,,,6398fb43fa99e33c3d9cee53,643773b413ac0d3abc9086c5,04-13-2023_12h45.24.979,PRaM,2021.2.3,Win32,59.99520038,61b8f3437b89212fae0dfadf
6,1.605,space,0.3681,0,323,323,59,1,,,6398fb43fa99e33c3d9cee53,643773b413ac0d3abc9086c5,04-13-2023_12h45.24.979,PRaM,2021.2.3,Win32,59.99520038,61b8f3437b89212fae0dfadf
6,1.8125,space,0.1701,0,324,324,43,1,,,6398fb43fa99e33c3d9cee53,643773b413ac0d3abc9086c5,04-13-2023_12h45.24.979,PRaM,2021.2.3,Win32,59.99520038,61b8f3437b89212fae0dfadf
7,2.8886,space,1.2082,0,325,325,306,1,,,6398fb43fa99e33c3d9cee53,643773b413ac0d3abc9086c5,04-13-2023_12h45.24.979,PRaM,2021.2.3,Win32,59.99520038,61b8f3437b89212fae0dfadf
3,3.3081,space,1.7171,0,326,326,263,1,,,6398fb43fa99e33c3d9cee53,643773b413ac0d3abc9086c5,04-13-2023_12h45.24.979,PRaM,2021.2.3,Win32,59.99520038,61b8f3437b89212fae0dfadf
3,1.5737,space,0.3205,0,327,327,262,1,,,6398fb43fa99e33c3d9cee53,643773b413ac0d3abc9086c5,04-13-2023_12h45.24.979,PRaM,2021.2.3,Win32,59.99520038,61b8f3437b89212fae0dfadf
5,2.7216,space,1.031,0,328,328,133,1,,,6398fb43fa99e33c3d9cee53,643773b413ac0d3abc9086c5,04-13-2023_12h45.24.979,PRaM,2021.2.3,Win32,59.99520038,61b8f3437b89212fae0dfadf
4,1.71,space,0.0083,0,329,329,185,1,,,6398fb43fa99e33c3d9cee53,643773b413ac0d3abc9086c5,04-13-2023_12h45.24.979,PRaM,2021.2.3,Win32,59.99520038,61b8f3437b89212fae0dfadf
3,2.9459,space,1.2786,0,330,330,223,1,,,6398fb43fa99e33c3d9cee53,643773b413ac0d3abc9086c5,04-13-2023_12h45.24.979,PRaM,2021.2.3,Win32,59.99520038,61b8f3437b89212fae0dfadf
7,1.5159,space,0.3838,0,331,331,201,1,,,6398fb43fa99e33c3d9cee53,643773b413ac0d3abc9086c5,04-13-2023_12h45.24.979,PRaM,2021.2.3,Win32,59.99520038,61b8f3437b89212fae0dfadf
8,2.1818,space,0.5234,0,332,332,269,1,,,6398fb43fa99e33c3d9cee53,643773b413ac0d3abc9086c5,04-13-2023_12h45.24.979,PRaM,2021.2.3,Win32,59.99520038,61b8f3437b89212fae0dfadf
7,1.626,space,0.2691,0,333,333,66,1,,,6398fb43fa99e33c3d9cee53,643773b413ac0d3abc9086c5,04-13-2023_12h45.24.979,PRaM,2021.2.3,Win32,59.99520038,61b8f3437b89212fae0dfadf
4,2.1897,space,0.3506,0,334,334,103,1,,,6398fb43fa99e33c3d9cee53,643773b413ac0d3abc9086c5,04-13-2023_12h45.24.979,PRaM,2021.2.3,Win32,59.99520038,61b8f3437b89212fae0dfadf
6,4.0082,space,2.3673,0,335,335,141,1,,,6398fb43fa99e33c3d9cee53,643773b413ac0d3abc9086c5,04-13-2023_12h45.24.979,PRaM,2021.2.3,Win32,59.99520038,61b8f3437b89212fae0dfadf
7,1.5055,space,0.3099,0,336,336,226,1,,,6398fb43fa99e33c3d9cee53,643773b413ac0d3abc9086c5,04-13-2023_12h45.24.979,PRaM,2021.2.3,Win32,59.99520038,61b8f3437b89212fae0dfadf
4,1.2149,space,0.0649,0,337,337,293,1,,,6398fb43fa99e33c3d9cee53,643773b413ac0d3abc9086c5,04-13-2023_12h45.24.979,PRaM,2021.2.3,Win32,59.99520038,61b8f3437b89212fae0dfadf
6,1.2777,space,0.2884,0,338,338,192,1,,,6398fb43fa99e33c3d9cee53,643773b413ac0d3abc9086c5,04-13-2023_12h45.24.979,PRaM,2021.2.3,Win32,59.99520038,61b8f3437b89212fae0dfadf
4,1.4101,space,0.006,0,339,339,373,1,,,6398fb43fa99e33c3d9cee53,643773b413ac0d3abc9086c5,04-13-2023_12h45.24.979,PRaM,2021.2.3,Win32,59.99520038,61b8f3437b89212fae0dfadf
6,1.7118,space,0.0508,0,340,340,336,1,,,6398fb43fa99e33c3d9cee53,643773b413ac0d3abc9086c5,04-13-2023_12h45.24.979,PRaM,2021.2.3,Win32,59.99520038,61b8f3437b89212fae0dfadf
4,1.6058,space,0.6789,0,341,341,270,1,,,6398fb43fa99e33c3d9cee53,643773b413ac0d3abc9086c5,04-13-2023_12h45.24.979,PRaM,2021.2.3,Win32,59.99520038,61b8f3437b89212fae0dfadf
2,2.1658,space,0.567,0,342,342,354,1,,,6398fb43fa99e33c3d9cee53,643773b413ac0d3abc9086c5,04-13-2023_12h45.24.979,PRaM,2021.2.3,Win32,59.99520038,61b8f3437b89212fae0dfadf
6,1.898,space,0.1845,0,343,343,351,1,,,6398fb43fa99e33c3d9cee53,643773b413ac0d3abc9086c5,04-13-2023_12h45.24.979,PRaM,2021.2.3,Win32,59.99520038,61b8f3437b89212fae0dfadf
7,1.3217,space,0.5285,0,344,344,202,1,,,6398fb43fa99e33c3d9cee53,643773b413ac0d3abc9086c5,04-13-2023_12h45.24.979,PRaM,2021.2.3,Win32,59.99520038,61b8f3437b89212fae0dfadf
8,2.0328,space,0.4211,0,345,345,314,1,,,6398fb43fa99e33c3d9cee53,643773b413ac0d3abc9086c5,04-13-2023_12h45.24.979,PRaM,2021.2.3,Win32,59.99520038,61b8f3437b89212fae0dfadf
2,1.8657,space,0.5817,0,346,346,234,1,,,6398fb43fa99e33c3d9cee53,643773b413ac0d3abc9086c5,04-13-2023_12h45.24.979,PRaM,2021.2.3,Win32,59.99520038,61b8f3437b89212fae0dfadf
4,2.0426,space,0.8486,0,347,347,57,1,,,6398fb43fa99e33c3d9cee53,643773b413ac0d3abc9086c5,04-13-2023_12h45.24.979,PRaM,2021.2.3,Win32,59.99520038,61b8f3437b89212fae0dfadf
3,2.6531,space,0.9674,0,348,348,82,1,,,6398fb43fa99e33c3d9cee53,643773b413ac0d3abc9086c5,04-13-2023_12h45.24.979,PRaM,2021.2.3,Win32,59.99520038,61b8f3437b89212fae0dfadf
1,2.0822,space,2.0339,0,349,349,330,1,,,6398fb43fa99e33c3d9cee53,643773b413ac0d3abc9086c5,04-13-2023_12h45.24.979,PRaM,2021.2.3,Win32,59.99520038,61b8f3437b89212fae0dfadf
3,28.2929,space,27.0831,0,350,350,29,1,,,6398fb43fa99e33c3d9cee53,643773b413ac0d3abc9086c5,04-13-2023_12h45.24.979,PRaM,2021.2.3,Win32,59.99520038,61b8f3437b89212fae0dfadf
6,23.363,space,21.6387,0,351,351,47,1,,,6398fb43fa99e33c3d9cee53,643773b413ac0d3abc9086c5,04-13-2023_12h45.24.979,PRaM,2021.2.3,Win32,59.99520038,61b8f3437b89212fae0dfadf
3,1.2387,space,0.5345,0,352,352,49,1,,,6398fb43fa99e33c3d9cee53,643773b413ac0d3abc9086c5,04-13-2023_12h45.24.979,PRaM,2021.2.3,Win32,59.99520038,61b8f3437b89212fae0dfadf
6,2.5543,space,0.851,0,353,353,140,1,,,6398fb43fa99e33c3d9cee53,643773b413ac0d3abc9086c5,04-13-2023_12h45.24.979,PRaM,2021.2.3,Win32,59.99520038,61b8f3437b89212fae0dfadf
7,2.6433,space,1.0794,0,354,354,62,1,,,6398fb43fa99e33c3d9cee53,643773b413ac0d3abc9086c5,04-13-2023_12h45.24.979,PRaM,2021.2.3,Win32,59.99520038,61b8f3437b89212fae0dfadf
3,30.0013,space,29.2728,0,355,355,286,1,,,6398fb43fa99e33c3d9cee53,643773b413ac0d3abc9086c5,04-13-2023_12h45.24.979,PRaM,2021.2.3,Win32,59.99520038,61b8f3437b89212fae0dfadf
3,14.6191,space,13.0294,0,356,356,120,1,,,6398fb43fa99e33c3d9cee53,643773b413ac0d3abc9086c5,04-13-2023_12h45.24.979,PRaM,2021.2.3,Win32,59.99520038,61b8f3437b89212fae0dfadf
6,1.4675,space,1.0931,0,357,357,85,1,,,6398fb43fa99e33c3d9cee53,643773b413ac0d3abc9086c5,04-13-2023_12h45.24.979,PRaM,2021.2.3,Win32,59.99520038,61b8f3437b89212fae0dfadf
4,12.8113,space,13.4927,0,358,358,6,1,,,6398fb43fa99e33c3d9cee53,643773b413ac0d3abc9086c5,04-13-2023_12h45.24.979,PRaM,2021.2.3,Win32,59.99520038,61b8f3437b89212fae0dfadf
3,1.4097,space,0.3173,0,359,359,231,1,,,6398fb43fa99e33c3d9cee53,643773b413ac0d3abc9086c5,04-13-2023_12h45.24.979,PRaM,2021.2.3,Win32,59.99520038,61b8f3437b89212fae0dfadf
6,1.4218,space,0.1504,0,360,360,233,1,,,6398fb43fa99e33c3d9cee53,643773b413ac0d3abc9086c5,04-13-2023_12h45.24.979,PRaM,2021.2.3,Win32,59.99520038,61b8f3437b89212fae0dfadf
7,1.4602,space,0.1267,0,361,361,69,1,,,6398fb43fa99e33c3d9cee53,643773b413ac0d3abc9086c5,04-13-2023_12h45.24.979,PRaM,2021.2.3,Win32,59.99520038,61b8f3437b89212fae0dfadf
7,4.6284,space,4.0011,0,362,362,25,1,,,6398fb43fa99e33c3d9cee53,643773b413ac0d3abc9086c5,04-13-2023_12h45.24.979,PRaM,2021.2.3,Win32,59.99520038,61b8f3437b89212fae0dfadf
6,2.6948,space,1.0071,0,363,363,282,1,,,6398fb43fa99e33c3d9cee53,643773b413ac0d3abc9086c5,04-13-2023_12h45.24.979,PRaM,2021.2.3,Win32,59.99520038,61b8f3437b89212fae0dfadf
3,1.4273,space,0.15,0,364,364,245,1,,,6398fb43fa99e33c3d9cee53,643773b413ac0d3abc9086c5,04-13-2023_12h45.24.979,PRaM,2021.2.3,Win32,59.99520038,61b8f3437b89212fae0dfadf
3,1.7047,space,0.0515,0,365,365,193,1,,,6398fb43fa99e33c3d9cee53,643773b413ac0d3abc9086c5,04-13-2023_12h45.24.979,PRaM,2021.2.3,Win32,59.99520038,61b8f3437b89212fae0dfadf
3,1.4246,space,0.06,0,366,366,44,1,,,6398fb43fa99e33c3d9cee53,643773b413ac0d3abc9086c5,04-13-2023_12h45.24.979,PRaM,2021.2.3,Win32,59.99520038,61b8f3437b89212fae0dfadf
3,1.8775,space,0.2008,0,367,367,227,1,,,6398fb43fa99e33c3d9cee53,643773b413ac0d3abc9086c5,04-13-2023_12h45.24.979,PRaM,2021.2.3,Win32,59.99520038,61b8f3437b89212fae0dfadf
4,3.3791,space,1.6832,0,368,368,23,1,,,6398fb43fa99e33c3d9cee53,643773b413ac0d3abc9086c5,04-13-2023_12h45.24.979,PRaM,2021.2.3,Win32,59.99520038,61b8f3437b89212fae0dfadf
6,1.559,space,0.1861,0,369,369,254,1,,,6398fb43fa99e33c3d9cee53,643773b413ac0d3abc9086c5,04-13-2023_12h45.24.979,PRaM,2021.2.3,Win32,59.99520038,61b8f3437b89212fae0dfadf
2,1.9883,space,0.2897,0,370,370,68,1,,,6398fb43fa99e33c3d9cee53,643773b413ac0d3abc9086c5,04-13-2023_12h45.24.979,PRaM,2021.2.3,Win32,59.99520038,61b8f3437b89212fae0dfadf
2,2.122,space,0.4859,0,371,371,195,1,,,6398fb43fa99e33c3d9cee53,643773b413ac0d3abc9086c5,04-13-2023_12h45.24.979,PRaM,2021.2.3,Win32,59.99520038,61b8f3437b89212fae0dfadf
6,2.6452,space,0.9504,0,372,372,344,1,,,6398fb43fa99e33c3d9cee53,643773b413ac0d3abc9086c5,04-13-2023_12h45.24.979,PRaM,2021.2.3,Win32,59.99520038,61b8f3437b89212fae0dfadf
7,2.0896,space,0.4247,0,373,373,14,1,,,6398fb43fa99e33c3d9cee53,643773b413ac0d3abc9086c5,04-13-2023_12h45.24.979,PRaM,2021.2.3,Win32,59.99520038,61b8f3437b89212fae0dfadf
8,3.0918,space,1.2866,0,374,374,222,1,,,6398fb43fa99e33c3d9cee53,643773b413ac0d3abc9086c5,04-13-2023_12h45.24.979,PRaM,2021.2.3,Win32,59.99520038,61b8f3437b89212fae0dfadf
8,1.6555,space,0.0099,0,375,375,328,1,,,6398fb43fa99e33c3d9cee53,643773b413ac0d3abc9086c5,04-13-2023_12h45.24.979,PRaM,2021.2.3,Win32,59.99520038,61b8f3437b89212fae0dfadf
9,1.1906,space,0.4173,0,376,376,325,1,,,6398fb43fa99e33c3d9cee53,643773b413ac0d3abc9086c5,04-13-2023_12h45.24.979,PRaM,2021.2.3,Win32,59.99520038,61b8f3437b89212fae0dfadf
4,1.8916,space,0.3258,0,377,377,5,1,,,6398fb43fa99e33c3d9cee53,643773b413ac0d3abc9086c5,04-13-2023_12h45.24.979,PRaM,2021.2.3,Win32,59.99520038,61b8f3437b89212fae0dfadf
