Rating.response,Rating.rt,EndTrial.keys,EndTrial.rt,trials.thisRepN,trials.thisTrialN,trials.thisN,trials.thisIndex,trials.ran,Pos1,Pos2,participant,session,date,expName,psychopyVersion,OS,frameRate,study_id
,,space,20.7388,0,0,0,189,1,,,639b9ab341f4429b1b3c06a2,643772d113ac0d3abc9086b1,2023-04-12_21h19.33.324,PRaM,2021.2.3,Win32,59.91252771,61b8f3437b89212fae0dfade
6,21.7938,space,26.6443,0,1,1,222,1,,,639b9ab341f4429b1b3c06a2,643772d113ac0d3abc9086b1,2023-04-12_21h19.33.324,PRaM,2021.2.3,Win32,59.91252771,61b8f3437b89212fae0dfade
5,6.7738,space,5.2233,0,2,2,75,1,,,639b9ab341f4429b1b3c06a2,643772d113ac0d3abc9086b1,2023-04-12_21h19.33.324,PRaM,2021.2.3,Win32,59.91252771,61b8f3437b89212fae0dfade
6,11.8482,space,10.3947,0,3,3,63,1,,,639b9ab341f4429b1b3c06a2,643772d113ac0d3abc9086b1,2023-04-12_21h19.33.324,PRaM,2021.2.3,Win32,59.91252771,61b8f3437b89212fae0dfade
3,7.3045,space,5.7621,0,4,4,256,1,,,639b9ab341f4429b1b3c06a2,643772d113ac0d3abc9086b1,2023-04-12_21h19.33.324,PRaM,2021.2.3,Win32,59.91252771,61b8f3437b89212fae0dfade
3,5.3225,space,4.4882,0,5,5,86,1,,,639b9ab341f4429b1b3c06a2,643772d113ac0d3abc9086b1,2023-04-12_21h19.33.324,PRaM,2021.2.3,Win32,59.91252771,61b8f3437b89212fae0dfade
5,3.8159,space,2.3369,0,6,6,154,1,,,639b9ab341f4429b1b3c06a2,643772d113ac0d3abc9086b1,2023-04-12_21h19.33.324,PRaM,2021.2.3,Win32,59.91252771,61b8f3437b89212fae0dfade
3,6.4202,space,5.2628,0,7,7,281,1,,,639b9ab341f4429b1b3c06a2,643772d113ac0d3abc9086b1,2023-04-12_21h19.33.324,PRaM,2021.2.3,Win32,59.91252771,61b8f3437b89212fae0dfade
5,6.2526,space,4.8128,0,8,8,144,1,,,639b9ab341f4429b1b3c06a2,643772d113ac0d3abc9086b1,2023-04-12_21h19.33.324,PRaM,2021.2.3,Win32,59.91252771,61b8f3437b89212fae0dfade
4,7.8376,space,6.7908,0,9,9,356,1,,,639b9ab341f4429b1b3c06a2,643772d113ac0d3abc9086b1,2023-04-12_21h19.33.324,PRaM,2021.2.3,Win32,59.91252771,61b8f3437b89212fae0dfade
6,4.9548,space,3.4706,0,10,10,115,1,,,639b9ab341f4429b1b3c06a2,643772d113ac0d3abc9086b1,2023-04-12_21h19.33.324,PRaM,2021.2.3,Win32,59.91252771,61b8f3437b89212fae0dfade
4,5.2504,space,3.9232,0,11,11,337,1,,,639b9ab341f4429b1b3c06a2,643772d113ac0d3abc9086b1,2023-04-12_21h19.33.324,PRaM,2021.2.3,Win32,59.91252771,61b8f3437b89212fae0dfade
3,4.6891,space,4.1873,0,12,12,371,1,,,639b9ab341f4429b1b3c06a2,643772d113ac0d3abc9086b1,2023-04-12_21h19.33.324,PRaM,2021.2.3,Win32,59.91252771,61b8f3437b89212fae0dfade
3,3.3653,space,1.792,0,13,13,48,1,,,639b9ab341f4429b1b3c06a2,643772d113ac0d3abc9086b1,2023-04-12_21h19.33.324,PRaM,2021.2.3,Win32,59.91252771,61b8f3437b89212fae0dfade
1,5.8688,space,5.1238,0,14,14,245,1,,,639b9ab341f4429b1b3c06a2,643772d113ac0d3abc9086b1,2023-04-12_21h19.33.324,PRaM,2021.2.3,Win32,59.91252771,61b8f3437b89212fae0dfade
2,5.6223,space,4.1719,0,15,15,170,1,,,639b9ab341f4429b1b3c06a2,643772d113ac0d3abc9086b1,2023-04-12_21h19.33.324,PRaM,2021.2.3,Win32,59.91252771,61b8f3437b89212fae0dfade
4,4.4588,space,2.7454,0,16,16,42,1,,,639b9ab341f4429b1b3c06a2,643772d113ac0d3abc9086b1,2023-04-12_21h19.33.324,PRaM,2021.2.3,Win32,59.91252771,61b8f3437b89212fae0dfade
3,2.9992,space,1.2682,0,17,17,141,1,,,639b9ab341f4429b1b3c06a2,643772d113ac0d3abc9086b1,2023-04-12_21h19.33.324,PRaM,2021.2.3,Win32,59.91252771,61b8f3437b89212fae0dfade
3,2.6309,space,0.927,0,18,18,317,1,,,639b9ab341f4429b1b3c06a2,643772d113ac0d3abc9086b1,2023-04-12_21h19.33.324,PRaM,2021.2.3,Win32,59.91252771,61b8f3437b89212fae0dfade
2,3.7331,space,2.6053,0,19,19,8,1,,,639b9ab341f4429b1b3c06a2,643772d113ac0d3abc9086b1,2023-04-12_21h19.33.324,PRaM,2021.2.3,Win32,59.91252771,61b8f3437b89212fae0dfade
5,4.0328,space,2.5045,0,20,20,93,1,,,639b9ab341f4429b1b3c06a2,643772d113ac0d3abc9086b1,2023-04-12_21h19.33.324,PRaM,2021.2.3,Win32,59.91252771,61b8f3437b89212fae0dfade
4,3.7835,space,2.0711,0,21,21,33,1,,,639b9ab341f4429b1b3c06a2,643772d113ac0d3abc9086b1,2023-04-12_21h19.33.324,PRaM,2021.2.3,Win32,59.91252771,61b8f3437b89212fae0dfade
3,4.6961,space,3.0799,0,22,22,332,1,,,639b9ab341f4429b1b3c06a2,643772d113ac0d3abc9086b1,2023-04-12_21h19.33.324,PRaM,2021.2.3,Win32,59.91252771,61b8f3437b89212fae0dfade
3,3.8268,space,2.9033,0,23,23,255,1,,,639b9ab341f4429b1b3c06a2,643772d113ac0d3abc9086b1,2023-04-12_21h19.33.324,PRaM,2021.2.3,Win32,59.91252771,61b8f3437b89212fae0dfade
4,2.8427,space,1.5724,0,24,24,357,1,,,639b9ab341f4429b1b3c06a2,643772d113ac0d3abc9086b1,2023-04-12_21h19.33.324,PRaM,2021.2.3,Win32,59.91252771,61b8f3437b89212fae0dfade
2,4.044,space,2.5814,0,25,25,36,1,,,639b9ab341f4429b1b3c06a2,643772d113ac0d3abc9086b1,2023-04-12_21h19.33.324,PRaM,2021.2.3,Win32,59.91252771,61b8f3437b89212fae0dfade
3,4.8507,space,4.1716,0,26,26,326,1,,,639b9ab341f4429b1b3c06a2,643772d113ac0d3abc9086b1,2023-04-12_21h19.33.324,PRaM,2021.2.3,Win32,59.91252771,61b8f3437b89212fae0dfade
6,3.3656,space,2.1152,0,27,27,328,1,,,639b9ab341f4429b1b3c06a2,643772d113ac0d3abc9086b1,2023-04-12_21h19.33.324,PRaM,2021.2.3,Win32,59.91252771,61b8f3437b89212fae0dfade
4,5.1772,space,3.6192,0,28,28,261,1,,,639b9ab341f4429b1b3c06a2,643772d113ac0d3abc9086b1,2023-04-12_21h19.33.324,PRaM,2021.2.3,Win32,59.91252771,61b8f3437b89212fae0dfade
2,8.6867,space,7.3082,0,29,29,232,1,,,639b9ab341f4429b1b3c06a2,643772d113ac0d3abc9086b1,2023-04-12_21h19.33.324,PRaM,2021.2.3,Win32,59.91252771,61b8f3437b89212fae0dfade
2,7.1368,space,5.6063,0,30,30,260,1,,,639b9ab341f4429b1b3c06a2,643772d113ac0d3abc9086b1,2023-04-12_21h19.33.324,PRaM,2021.2.3,Win32,59.91252771,61b8f3437b89212fae0dfade
4,4.5041,space,2.9925,0,31,31,120,1,,,639b9ab341f4429b1b3c06a2,643772d113ac0d3abc9086b1,2023-04-12_21h19.33.324,PRaM,2021.2.3,Win32,59.91252771,61b8f3437b89212fae0dfade
3,8.7476,space,6.9576,0,32,32,339,1,,,639b9ab341f4429b1b3c06a2,643772d113ac0d3abc9086b1,2023-04-12_21h19.33.324,PRaM,2021.2.3,Win32,59.91252771,61b8f3437b89212fae0dfade
4,5.6761,space,4.0275,0,33,33,239,1,,,639b9ab341f4429b1b3c06a2,643772d113ac0d3abc9086b1,2023-04-12_21h19.33.324,PRaM,2021.2.3,Win32,59.91252771,61b8f3437b89212fae0dfade
3,3.3091,space,1.6931,0,34,34,206,1,,,639b9ab341f4429b1b3c06a2,643772d113ac0d3abc9086b1,2023-04-12_21h19.33.324,PRaM,2021.2.3,Win32,59.91252771,61b8f3437b89212fae0dfade
2,2.5568,space,0.8468,0,35,35,78,1,,,639b9ab341f4429b1b3c06a2,643772d113ac0d3abc9086b1,2023-04-12_21h19.33.324,PRaM,2021.2.3,Win32,59.91252771,61b8f3437b89212fae0dfade
4,4.9118,space,3.4757,0,36,36,192,1,,,639b9ab341f4429b1b3c06a2,643772d113ac0d3abc9086b1,2023-04-12_21h19.33.324,PRaM,2021.2.3,Win32,59.91252771,61b8f3437b89212fae0dfade
5,3.4596,space,1.7362,0,37,37,153,1,,,639b9ab341f4429b1b3c06a2,643772d113ac0d3abc9086b1,2023-04-12_21h19.33.324,PRaM,2021.2.3,Win32,59.91252771,61b8f3437b89212fae0dfade
3,8.9578,space,7.241,0,38,38,64,1,,,639b9ab341f4429b1b3c06a2,643772d113ac0d3abc9086b1,2023-04-12_21h19.33.324,PRaM,2021.2.3,Win32,59.91252771,61b8f3437b89212fae0dfade
4,2.7449,space,0.9382,0,39,39,127,1,,,639b9ab341f4429b1b3c06a2,643772d113ac0d3abc9086b1,2023-04-12_21h19.33.324,PRaM,2021.2.3,Win32,59.91252771,61b8f3437b89212fae0dfade
3,4.8651,space,3.1756,0,40,40,152,1,,,639b9ab341f4429b1b3c06a2,643772d113ac0d3abc9086b1,2023-04-12_21h19.33.324,PRaM,2021.2.3,Win32,59.91252771,61b8f3437b89212fae0dfade
3,3.3434,space,1.4809,0,41,41,26,1,,,639b9ab341f4429b1b3c06a2,643772d113ac0d3abc9086b1,2023-04-12_21h19.33.324,PRaM,2021.2.3,Win32,59.91252771,61b8f3437b89212fae0dfade
6,3.6265,space,2.2752,0,42,42,197,1,,,639b9ab341f4429b1b3c06a2,643772d113ac0d3abc9086b1,2023-04-12_21h19.33.324,PRaM,2021.2.3,Win32,59.91252771,61b8f3437b89212fae0dfade
3,5.9781,space,4.2909,0,43,43,246,1,,,639b9ab341f4429b1b3c06a2,643772d113ac0d3abc9086b1,2023-04-12_21h19.33.324,PRaM,2021.2.3,Win32,59.91252771,61b8f3437b89212fae0dfade
4,7.6373,space,6.0414,0,44,44,309,1,,,639b9ab341f4429b1b3c06a2,643772d113ac0d3abc9086b1,2023-04-12_21h19.33.324,PRaM,2021.2.3,Win32,59.91252771,61b8f3437b89212fae0dfade
3,2.3094,space,0.5429,0,45,45,375,1,,,639b9ab341f4429b1b3c06a2,643772d113ac0d3abc9086b1,2023-04-12_21h19.33.324,PRaM,2021.2.3,Win32,59.91252771,61b8f3437b89212fae0dfade
3,2.5918,space,1.0219,0,46,46,354,1,,,639b9ab341f4429b1b3c06a2,643772d113ac0d3abc9086b1,2023-04-12_21h19.33.324,PRaM,2021.2.3,Win32,59.91252771,61b8f3437b89212fae0dfade
2,2.3765,space,0.6679,0,47,47,95,1,,,639b9ab341f4429b1b3c06a2,643772d113ac0d3abc9086b1,2023-04-12_21h19.33.324,PRaM,2021.2.3,Win32,59.91252771,61b8f3437b89212fae0dfade
2,3.026,space,1.3194,0,48,48,25,1,,,639b9ab341f4429b1b3c06a2,643772d113ac0d3abc9086b1,2023-04-12_21h19.33.324,PRaM,2021.2.3,Win32,59.91252771,61b8f3437b89212fae0dfade
1,3.331,space,2.5363,0,49,49,248,1,,,639b9ab341f4429b1b3c06a2,643772d113ac0d3abc9086b1,2023-04-12_21h19.33.324,PRaM,2021.2.3,Win32,59.91252771,61b8f3437b89212fae0dfade
2,4.4184,space,2.6966,0,50,50,218,1,,,639b9ab341f4429b1b3c06a2,643772d113ac0d3abc9086b1,2023-04-12_21h19.33.324,PRaM,2021.2.3,Win32,59.91252771,61b8f3437b89212fae0dfade
3,3.3492,space,1.7047,0,51,51,347,1,,,639b9ab341f4429b1b3c06a2,643772d113ac0d3abc9086b1,2023-04-12_21h19.33.324,PRaM,2021.2.3,Win32,59.91252771,61b8f3437b89212fae0dfade
3,3.2227,space,1.4744,0,52,52,353,1,,,639b9ab341f4429b1b3c06a2,643772d113ac0d3abc9086b1,2023-04-12_21h19.33.324,PRaM,2021.2.3,Win32,59.91252771,61b8f3437b89212fae0dfade
3,4.558,space,2.8787,0,53,53,133,1,,,639b9ab341f4429b1b3c06a2,643772d113ac0d3abc9086b1,2023-04-12_21h19.33.324,PRaM,2021.2.3,Win32,59.91252771,61b8f3437b89212fae0dfade
3,2.2249,space,0.5637,0,54,54,72,1,,,639b9ab341f4429b1b3c06a2,643772d113ac0d3abc9086b1,2023-04-12_21h19.33.324,PRaM,2021.2.3,Win32,59.91252771,61b8f3437b89212fae0dfade
3,2.8839,space,1.2309,0,55,55,219,1,,,639b9ab341f4429b1b3c06a2,643772d113ac0d3abc9086b1,2023-04-12_21h19.33.324,PRaM,2021.2.3,Win32,59.91252771,61b8f3437b89212fae0dfade
5,4.5827,space,2.9999,0,56,56,166,1,,,639b9ab341f4429b1b3c06a2,643772d113ac0d3abc9086b1,2023-04-12_21h19.33.324,PRaM,2021.2.3,Win32,59.91252771,61b8f3437b89212fae0dfade
3,2.109,space,1.3352,0,57,57,157,1,,,639b9ab341f4429b1b3c06a2,643772d113ac0d3abc9086b1,2023-04-12_21h19.33.324,PRaM,2021.2.3,Win32,59.91252771,61b8f3437b89212fae0dfade
3,4.6878,space,2.9044,0,58,58,342,1,,,639b9ab341f4429b1b3c06a2,643772d113ac0d3abc9086b1,2023-04-12_21h19.33.324,PRaM,2021.2.3,Win32,59.91252771,61b8f3437b89212fae0dfade
3,2.058,space,0.3032,0,59,59,176,1,,,639b9ab341f4429b1b3c06a2,643772d113ac0d3abc9086b1,2023-04-12_21h19.33.324,PRaM,2021.2.3,Win32,59.91252771,61b8f3437b89212fae0dfade
2,2.7435,space,1.0688,0,60,60,60,1,,,639b9ab341f4429b1b3c06a2,643772d113ac0d3abc9086b1,2023-04-12_21h19.33.324,PRaM,2021.2.3,Win32,59.91252771,61b8f3437b89212fae0dfade
3,1.9223,space,0.0996,0,61,61,116,1,,,639b9ab341f4429b1b3c06a2,643772d113ac0d3abc9086b1,2023-04-12_21h19.33.324,PRaM,2021.2.3,Win32,59.91252771,61b8f3437b89212fae0dfade
2,2.0661,space,0.2507,0,62,62,258,1,,,639b9ab341f4429b1b3c06a2,643772d113ac0d3abc9086b1,2023-04-12_21h19.33.324,PRaM,2021.2.3,Win32,59.91252771,61b8f3437b89212fae0dfade
7,3.4364,space,1.8054,0,63,63,137,1,,,639b9ab341f4429b1b3c06a2,643772d113ac0d3abc9086b1,2023-04-12_21h19.33.324,PRaM,2021.2.3,Win32,59.91252771,61b8f3437b89212fae0dfade
3,1.7249,space,1.1482,0,64,64,221,1,,,639b9ab341f4429b1b3c06a2,643772d113ac0d3abc9086b1,2023-04-12_21h19.33.324,PRaM,2021.2.3,Win32,59.91252771,61b8f3437b89212fae0dfade
3,1.2896,space,0.5846,0,65,65,217,1,,,639b9ab341f4429b1b3c06a2,643772d113ac0d3abc9086b1,2023-04-12_21h19.33.324,PRaM,2021.2.3,Win32,59.91252771,61b8f3437b89212fae0dfade
2,3.3566,space,1.6472,0,66,66,229,1,,,639b9ab341f4429b1b3c06a2,643772d113ac0d3abc9086b1,2023-04-12_21h19.33.324,PRaM,2021.2.3,Win32,59.91252771,61b8f3437b89212fae0dfade
3,3.1602,space,1.4771,0,67,67,278,1,,,639b9ab341f4429b1b3c06a2,643772d113ac0d3abc9086b1,2023-04-12_21h19.33.324,PRaM,2021.2.3,Win32,59.91252771,61b8f3437b89212fae0dfade
4,2.9738,space,1.1686,0,68,68,18,1,,,639b9ab341f4429b1b3c06a2,643772d113ac0d3abc9086b1,2023-04-12_21h19.33.324,PRaM,2021.2.3,Win32,59.91252771,61b8f3437b89212fae0dfade
5,3.2528,space,1.6158,0,69,69,370,1,,,639b9ab341f4429b1b3c06a2,643772d113ac0d3abc9086b1,2023-04-12_21h19.33.324,PRaM,2021.2.3,Win32,59.91252771,61b8f3437b89212fae0dfade
3,3.7338,space,2.0834,0,70,70,69,1,,,639b9ab341f4429b1b3c06a2,643772d113ac0d3abc9086b1,2023-04-12_21h19.33.324,PRaM,2021.2.3,Win32,59.91252771,61b8f3437b89212fae0dfade
3,4.3336,space,2.587,0,71,71,313,1,,,639b9ab341f4429b1b3c06a2,643772d113ac0d3abc9086b1,2023-04-12_21h19.33.324,PRaM,2021.2.3,Win32,59.91252771,61b8f3437b89212fae0dfade
3,2.8829,space,1.2538,0,72,72,200,1,,,639b9ab341f4429b1b3c06a2,643772d113ac0d3abc9086b1,2023-04-12_21h19.33.324,PRaM,2021.2.3,Win32,59.91252771,61b8f3437b89212fae0dfade
2,3.0603,space,1.5025,0,73,73,1,1,,,639b9ab341f4429b1b3c06a2,643772d113ac0d3abc9086b1,2023-04-12_21h19.33.324,PRaM,2021.2.3,Win32,59.91252771,61b8f3437b89212fae0dfade
3,3.2513,space,1.6368,0,74,74,288,1,,,639b9ab341f4429b1b3c06a2,643772d113ac0d3abc9086b1,2023-04-12_21h19.33.324,PRaM,2021.2.3,Win32,59.91252771,61b8f3437b89212fae0dfade
4,3.2223,space,1.503,0,75,75,98,1,,,639b9ab341f4429b1b3c06a2,643772d113ac0d3abc9086b1,2023-04-12_21h19.33.324,PRaM,2021.2.3,Win32,59.91252771,61b8f3437b89212fae0dfade
3,1.9582,space,0.2811,0,76,76,174,1,,,639b9ab341f4429b1b3c06a2,643772d113ac0d3abc9086b1,2023-04-12_21h19.33.324,PRaM,2021.2.3,Win32,59.91252771,61b8f3437b89212fae0dfade
2,2.1512,space,0.4342,0,77,77,65,1,,,639b9ab341f4429b1b3c06a2,643772d113ac0d3abc9086b1,2023-04-12_21h19.33.324,PRaM,2021.2.3,Win32,59.91252771,61b8f3437b89212fae0dfade
2,2.727,space,0.9832,0,78,78,101,1,,,639b9ab341f4429b1b3c06a2,643772d113ac0d3abc9086b1,2023-04-12_21h19.33.324,PRaM,2021.2.3,Win32,59.91252771,61b8f3437b89212fae0dfade
2,2.8091,space,1.2085,0,79,79,162,1,,,639b9ab341f4429b1b3c06a2,643772d113ac0d3abc9086b1,2023-04-12_21h19.33.324,PRaM,2021.2.3,Win32,59.91252771,61b8f3437b89212fae0dfade
2,2.0772,space,0.3014,0,80,80,89,1,,,639b9ab341f4429b1b3c06a2,643772d113ac0d3abc9086b1,2023-04-12_21h19.33.324,PRaM,2021.2.3,Win32,59.91252771,61b8f3437b89212fae0dfade
3,2.3157,space,0.9513,0,81,81,52,1,,,639b9ab341f4429b1b3c06a2,643772d113ac0d3abc9086b1,2023-04-12_21h19.33.324,PRaM,2021.2.3,Win32,59.91252771,61b8f3437b89212fae0dfade
2,1.1799,space,0.6693,0,82,82,352,1,,,639b9ab341f4429b1b3c06a2,643772d113ac0d3abc9086b1,2023-04-12_21h19.33.324,PRaM,2021.2.3,Win32,59.91252771,61b8f3437b89212fae0dfade
2,1.9992,space,0.4065,0,83,83,205,1,,,639b9ab341f4429b1b3c06a2,643772d113ac0d3abc9086b1,2023-04-12_21h19.33.324,PRaM,2021.2.3,Win32,59.91252771,61b8f3437b89212fae0dfade
3,2.7885,space,1.1019,0,84,84,66,1,,,639b9ab341f4429b1b3c06a2,643772d113ac0d3abc9086b1,2023-04-12_21h19.33.324,PRaM,2021.2.3,Win32,59.91252771,61b8f3437b89212fae0dfade
2,4.0272,space,2.4871,0,85,85,268,1,,,639b9ab341f4429b1b3c06a2,643772d113ac0d3abc9086b1,2023-04-12_21h19.33.324,PRaM,2021.2.3,Win32,59.91252771,61b8f3437b89212fae0dfade
3,2.2422,space,0.8192,0,86,86,128,1,,,639b9ab341f4429b1b3c06a2,643772d113ac0d3abc9086b1,2023-04-12_21h19.33.324,PRaM,2021.2.3,Win32,59.91252771,61b8f3437b89212fae0dfade
3,1.5741,space,0.5748,0,87,87,376,1,,,639b9ab341f4429b1b3c06a2,643772d113ac0d3abc9086b1,2023-04-12_21h19.33.324,PRaM,2021.2.3,Win32,59.91252771,61b8f3437b89212fae0dfade
2,1.4748,space,0.5011,0,88,88,374,1,,,639b9ab341f4429b1b3c06a2,643772d113ac0d3abc9086b1,2023-04-12_21h19.33.324,PRaM,2021.2.3,Win32,59.91252771,61b8f3437b89212fae0dfade
3,1.8281,space,0.1463,0,89,89,362,1,,,639b9ab341f4429b1b3c06a2,643772d113ac0d3abc9086b1,2023-04-12_21h19.33.324,PRaM,2021.2.3,Win32,59.91252771,61b8f3437b89212fae0dfade
3,1.501,space,0.4507,0,90,90,34,1,,,639b9ab341f4429b1b3c06a2,643772d113ac0d3abc9086b1,2023-04-12_21h19.33.324,PRaM,2021.2.3,Win32,59.91252771,61b8f3437b89212fae0dfade
3,2.1154,space,1.9024,0,91,91,71,1,,,639b9ab341f4429b1b3c06a2,643772d113ac0d3abc9086b1,2023-04-12_21h19.33.324,PRaM,2021.2.3,Win32,59.91252771,61b8f3437b89212fae0dfade
3,3.0502,space,1.322,0,92,92,259,1,,,639b9ab341f4429b1b3c06a2,643772d113ac0d3abc9086b1,2023-04-12_21h19.33.324,PRaM,2021.2.3,Win32,59.91252771,61b8f3437b89212fae0dfade
3,1.5914,space,0.0155,0,93,93,147,1,,,639b9ab341f4429b1b3c06a2,643772d113ac0d3abc9086b1,2023-04-12_21h19.33.324,PRaM,2021.2.3,Win32,59.91252771,61b8f3437b89212fae0dfade
2,1.7299,space,0.0909,0,94,94,234,1,,,639b9ab341f4429b1b3c06a2,643772d113ac0d3abc9086b1,2023-04-12_21h19.33.324,PRaM,2021.2.3,Win32,59.91252771,61b8f3437b89212fae0dfade
3,1.7251,space,0.5554,0,95,95,11,1,,,639b9ab341f4429b1b3c06a2,643772d113ac0d3abc9086b1,2023-04-12_21h19.33.324,PRaM,2021.2.3,Win32,59.91252771,61b8f3437b89212fae0dfade
3,3.8433,space,2.1856,0,96,96,228,1,,,639b9ab341f4429b1b3c06a2,643772d113ac0d3abc9086b1,2023-04-12_21h19.33.324,PRaM,2021.2.3,Win32,59.91252771,61b8f3437b89212fae0dfade
2,1.7244,space,0.5967,0,97,97,83,1,,,639b9ab341f4429b1b3c06a2,643772d113ac0d3abc9086b1,2023-04-12_21h19.33.324,PRaM,2021.2.3,Win32,59.91252771,61b8f3437b89212fae0dfade
2,1.6176,space,0.026,0,98,98,143,1,,,639b9ab341f4429b1b3c06a2,643772d113ac0d3abc9086b1,2023-04-12_21h19.33.324,PRaM,2021.2.3,Win32,59.91252771,61b8f3437b89212fae0dfade
3,1.3991,space,0.3013,0,99,99,111,1,,,639b9ab341f4429b1b3c06a2,643772d113ac0d3abc9086b1,2023-04-12_21h19.33.324,PRaM,2021.2.3,Win32,59.91252771,61b8f3437b89212fae0dfade
2,1.8947,space,0.3748,0,100,100,55,1,,,639b9ab341f4429b1b3c06a2,643772d113ac0d3abc9086b1,2023-04-12_21h19.33.324,PRaM,2021.2.3,Win32,59.91252771,61b8f3437b89212fae0dfade
3,2.9596,space,1.3406,0,101,101,88,1,,,639b9ab341f4429b1b3c06a2,643772d113ac0d3abc9086b1,2023-04-12_21h19.33.324,PRaM,2021.2.3,Win32,59.91252771,61b8f3437b89212fae0dfade
2,1.7094,space,0.0998,0,102,102,21,1,,,639b9ab341f4429b1b3c06a2,643772d113ac0d3abc9086b1,2023-04-12_21h19.33.324,PRaM,2021.2.3,Win32,59.91252771,61b8f3437b89212fae0dfade
2,1.7583,space,0.6017,0,103,103,46,1,,,639b9ab341f4429b1b3c06a2,643772d113ac0d3abc9086b1,2023-04-12_21h19.33.324,PRaM,2021.2.3,Win32,59.91252771,61b8f3437b89212fae0dfade
3,2.6265,space,0.8851,0,104,104,209,1,,,639b9ab341f4429b1b3c06a2,643772d113ac0d3abc9086b1,2023-04-12_21h19.33.324,PRaM,2021.2.3,Win32,59.91252771,61b8f3437b89212fae0dfade
3,4.2273,space,2.7202,0,105,105,242,1,,,639b9ab341f4429b1b3c06a2,643772d113ac0d3abc9086b1,2023-04-12_21h19.33.324,PRaM,2021.2.3,Win32,59.91252771,61b8f3437b89212fae0dfade
4,2.7753,space,1.0022,0,106,106,273,1,,,639b9ab341f4429b1b3c06a2,643772d113ac0d3abc9086b1,2023-04-12_21h19.33.324,PRaM,2021.2.3,Win32,59.91252771,61b8f3437b89212fae0dfade
2,2.6208,space,0.8597,0,107,107,299,1,,,639b9ab341f4429b1b3c06a2,643772d113ac0d3abc9086b1,2023-04-12_21h19.33.324,PRaM,2021.2.3,Win32,59.91252771,61b8f3437b89212fae0dfade
3,3.2999,space,1.6859,0,108,108,12,1,,,639b9ab341f4429b1b3c06a2,643772d113ac0d3abc9086b1,2023-04-12_21h19.33.324,PRaM,2021.2.3,Win32,59.91252771,61b8f3437b89212fae0dfade
3,3.7504,space,5.3583,0,109,109,298,1,,,639b9ab341f4429b1b3c06a2,643772d113ac0d3abc9086b1,2023-04-12_21h19.33.324,PRaM,2021.2.3,Win32,59.91252771,61b8f3437b89212fae0dfade
2,2.1372,space,0.4395,0,110,110,272,1,,,639b9ab341f4429b1b3c06a2,643772d113ac0d3abc9086b1,2023-04-12_21h19.33.324,PRaM,2021.2.3,Win32,59.91252771,61b8f3437b89212fae0dfade
3,2.331,space,0.9178,0,111,111,67,1,,,639b9ab341f4429b1b3c06a2,643772d113ac0d3abc9086b1,2023-04-12_21h19.33.324,PRaM,2021.2.3,Win32,59.91252771,61b8f3437b89212fae0dfade
4,5.9453,space,4.3187,0,112,112,269,1,,,639b9ab341f4429b1b3c06a2,643772d113ac0d3abc9086b1,2023-04-12_21h19.33.324,PRaM,2021.2.3,Win32,59.91252771,61b8f3437b89212fae0dfade
3,3.0401,space,1.4546,0,113,113,231,1,,,639b9ab341f4429b1b3c06a2,643772d113ac0d3abc9086b1,2023-04-12_21h19.33.324,PRaM,2021.2.3,Win32,59.91252771,61b8f3437b89212fae0dfade
4,3.1005,space,1.5052,0,114,114,53,1,,,639b9ab341f4429b1b3c06a2,643772d113ac0d3abc9086b1,2023-04-12_21h19.33.324,PRaM,2021.2.3,Win32,59.91252771,61b8f3437b89212fae0dfade
5,3.3284,space,1.7204,0,115,115,102,1,,,639b9ab341f4429b1b3c06a2,643772d113ac0d3abc9086b1,2023-04-12_21h19.33.324,PRaM,2021.2.3,Win32,59.91252771,61b8f3437b89212fae0dfade
4,3.6842,space,2.0871,0,116,116,99,1,,,639b9ab341f4429b1b3c06a2,643772d113ac0d3abc9086b1,2023-04-12_21h19.33.324,PRaM,2021.2.3,Win32,59.91252771,61b8f3437b89212fae0dfade
4,2.1827,space,0.7354,0,117,117,90,1,,,639b9ab341f4429b1b3c06a2,643772d113ac0d3abc9086b1,2023-04-12_21h19.33.324,PRaM,2021.2.3,Win32,59.91252771,61b8f3437b89212fae0dfade
2,2.9913,space,1.3181,0,118,118,224,1,,,639b9ab341f4429b1b3c06a2,643772d113ac0d3abc9086b1,2023-04-12_21h19.33.324,PRaM,2021.2.3,Win32,59.91252771,61b8f3437b89212fae0dfade
2,2.7089,space,1.6024,0,119,119,172,1,,,639b9ab341f4429b1b3c06a2,643772d113ac0d3abc9086b1,2023-04-12_21h19.33.324,PRaM,2021.2.3,Win32,59.91252771,61b8f3437b89212fae0dfade
2,2.1254,space,1.2852,0,120,120,108,1,,,639b9ab341f4429b1b3c06a2,643772d113ac0d3abc9086b1,2023-04-12_21h19.33.324,PRaM,2021.2.3,Win32,59.91252771,61b8f3437b89212fae0dfade
3,5.4947,space,3.9419,0,121,121,216,1,,,639b9ab341f4429b1b3c06a2,643772d113ac0d3abc9086b1,2023-04-12_21h19.33.324,PRaM,2021.2.3,Win32,59.91252771,61b8f3437b89212fae0dfade
2,1.6913,space,0.017,0,122,122,373,1,,,639b9ab341f4429b1b3c06a2,643772d113ac0d3abc9086b1,2023-04-12_21h19.33.324,PRaM,2021.2.3,Win32,59.91252771,61b8f3437b89212fae0dfade
2,2.1582,space,0.5685,0,123,123,117,1,,,639b9ab341f4429b1b3c06a2,643772d113ac0d3abc9086b1,2023-04-12_21h19.33.324,PRaM,2021.2.3,Win32,59.91252771,61b8f3437b89212fae0dfade
2,2.9431,space,1.3608,0,124,124,20,1,,,639b9ab341f4429b1b3c06a2,643772d113ac0d3abc9086b1,2023-04-12_21h19.33.324,PRaM,2021.2.3,Win32,59.91252771,61b8f3437b89212fae0dfade
6,4.4638,space,3.2473,0,125,125,306,1,,,639b9ab341f4429b1b3c06a2,643772d113ac0d3abc9086b1,2023-04-12_21h19.33.324,PRaM,2021.2.3,Win32,59.91252771,61b8f3437b89212fae0dfade
6,3.0591,space,1.4689,0,126,126,301,1,,,639b9ab341f4429b1b3c06a2,643772d113ac0d3abc9086b1,2023-04-12_21h19.33.324,PRaM,2021.2.3,Win32,59.91252771,61b8f3437b89212fae0dfade
3,3.5088,space,1.9527,0,127,127,235,1,,,639b9ab341f4429b1b3c06a2,643772d113ac0d3abc9086b1,2023-04-12_21h19.33.324,PRaM,2021.2.3,Win32,59.91252771,61b8f3437b89212fae0dfade
2,2.6682,space,0.9508,0,128,128,303,1,,,639b9ab341f4429b1b3c06a2,643772d113ac0d3abc9086b1,2023-04-12_21h19.33.324,PRaM,2021.2.3,Win32,59.91252771,61b8f3437b89212fae0dfade
3,2.0857,space,0.5067,0,129,129,160,1,,,639b9ab341f4429b1b3c06a2,643772d113ac0d3abc9086b1,2023-04-12_21h19.33.324,PRaM,2021.2.3,Win32,59.91252771,61b8f3437b89212fae0dfade
3,2.8922,space,2.1713,0,130,130,74,1,,,639b9ab341f4429b1b3c06a2,643772d113ac0d3abc9086b1,2023-04-12_21h19.33.324,PRaM,2021.2.3,Win32,59.91252771,61b8f3437b89212fae0dfade
3,2.1418,space,0.9754,0,131,131,293,1,,,639b9ab341f4429b1b3c06a2,643772d113ac0d3abc9086b1,2023-04-12_21h19.33.324,PRaM,2021.2.3,Win32,59.91252771,61b8f3437b89212fae0dfade
2,2.3975,space,0.8473,0,132,132,35,1,,,639b9ab341f4429b1b3c06a2,643772d113ac0d3abc9086b1,2023-04-12_21h19.33.324,PRaM,2021.2.3,Win32,59.91252771,61b8f3437b89212fae0dfade
2,2.5193,space,0.9679,0,133,133,82,1,,,639b9ab341f4429b1b3c06a2,643772d113ac0d3abc9086b1,2023-04-12_21h19.33.324,PRaM,2021.2.3,Win32,59.91252771,61b8f3437b89212fae0dfade
3,2.6764,space,1.8605,0,134,134,142,1,,,639b9ab341f4429b1b3c06a2,643772d113ac0d3abc9086b1,2023-04-12_21h19.33.324,PRaM,2021.2.3,Win32,59.91252771,61b8f3437b89212fae0dfade
6,5.2771,space,3.7733,0,135,135,59,1,,,639b9ab341f4429b1b3c06a2,643772d113ac0d3abc9086b1,2023-04-12_21h19.33.324,PRaM,2021.2.3,Win32,59.91252771,61b8f3437b89212fae0dfade
4,5.1865,space,3.6082,0,136,136,202,1,,,639b9ab341f4429b1b3c06a2,643772d113ac0d3abc9086b1,2023-04-12_21h19.33.324,PRaM,2021.2.3,Win32,59.91252771,61b8f3437b89212fae0dfade
5,3.4665,space,1.8695,0,137,137,180,1,,,639b9ab341f4429b1b3c06a2,643772d113ac0d3abc9086b1,2023-04-12_21h19.33.324,PRaM,2021.2.3,Win32,59.91252771,61b8f3437b89212fae0dfade
4,3.3206,space,1.6024,0,138,138,191,1,,,639b9ab341f4429b1b3c06a2,643772d113ac0d3abc9086b1,2023-04-12_21h19.33.324,PRaM,2021.2.3,Win32,59.91252771,61b8f3437b89212fae0dfade
2,3.5509,space,2.0067,0,139,139,37,1,,,639b9ab341f4429b1b3c06a2,643772d113ac0d3abc9086b1,2023-04-12_21h19.33.324,PRaM,2021.2.3,Win32,59.91252771,61b8f3437b89212fae0dfade
1,4.2326,space,2.9879,0,140,140,9,1,,,639b9ab341f4429b1b3c06a2,643772d113ac0d3abc9086b1,2023-04-12_21h19.33.324,PRaM,2021.2.3,Win32,59.91252771,61b8f3437b89212fae0dfade
5,4.8659,space,3.1204,0,141,141,40,1,,,639b9ab341f4429b1b3c06a2,643772d113ac0d3abc9086b1,2023-04-12_21h19.33.324,PRaM,2021.2.3,Win32,59.91252771,61b8f3437b89212fae0dfade
2,4.2375,space,2.5819,0,142,142,316,1,,,639b9ab341f4429b1b3c06a2,643772d113ac0d3abc9086b1,2023-04-12_21h19.33.324,PRaM,2021.2.3,Win32,59.91252771,61b8f3437b89212fae0dfade
2,2.2831,space,1.4272,0,143,143,50,1,,,639b9ab341f4429b1b3c06a2,643772d113ac0d3abc9086b1,2023-04-12_21h19.33.324,PRaM,2021.2.3,Win32,59.91252771,61b8f3437b89212fae0dfade
2,2.4089,space,0.9417,0,144,144,280,1,,,639b9ab341f4429b1b3c06a2,643772d113ac0d3abc9086b1,2023-04-12_21h19.33.324,PRaM,2021.2.3,Win32,59.91252771,61b8f3437b89212fae0dfade
3,3.0769,space,1.5017,0,145,145,294,1,,,639b9ab341f4429b1b3c06a2,643772d113ac0d3abc9086b1,2023-04-12_21h19.33.324,PRaM,2021.2.3,Win32,59.91252771,61b8f3437b89212fae0dfade
2,2.2483,space,0.6511,0,146,146,195,1,,,639b9ab341f4429b1b3c06a2,643772d113ac0d3abc9086b1,2023-04-12_21h19.33.324,PRaM,2021.2.3,Win32,59.91252771,61b8f3437b89212fae0dfade
2,2.8787,space,1.3198,0,147,147,204,1,,,639b9ab341f4429b1b3c06a2,643772d113ac0d3abc9086b1,2023-04-12_21h19.33.324,PRaM,2021.2.3,Win32,59.91252771,61b8f3437b89212fae0dfade
4,2.9008,space,1.1687,0,148,148,230,1,,,639b9ab341f4429b1b3c06a2,643772d113ac0d3abc9086b1,2023-04-12_21h19.33.324,PRaM,2021.2.3,Win32,59.91252771,61b8f3437b89212fae0dfade
2,4.8451,space,3.2694,0,149,149,368,1,,,639b9ab341f4429b1b3c06a2,643772d113ac0d3abc9086b1,2023-04-12_21h19.33.324,PRaM,2021.2.3,Win32,59.91252771,61b8f3437b89212fae0dfade
2,2.0188,space,0.3508,0,150,150,364,1,,,639b9ab341f4429b1b3c06a2,643772d113ac0d3abc9086b1,2023-04-12_21h19.33.324,PRaM,2021.2.3,Win32,59.91252771,61b8f3437b89212fae0dfade
2,2.6183,space,1.1686,0,151,151,341,1,,,639b9ab341f4429b1b3c06a2,643772d113ac0d3abc9086b1,2023-04-12_21h19.33.324,PRaM,2021.2.3,Win32,59.91252771,61b8f3437b89212fae0dfade
6,8.0552,space,7.3077,0,152,152,207,1,,,639b9ab341f4429b1b3c06a2,643772d113ac0d3abc9086b1,2023-04-12_21h19.33.324,PRaM,2021.2.3,Win32,59.91252771,61b8f3437b89212fae0dfade
2,2.8891,space,1.1398,0,153,153,300,1,,,639b9ab341f4429b1b3c06a2,643772d113ac0d3abc9086b1,2023-04-12_21h19.33.324,PRaM,2021.2.3,Win32,59.91252771,61b8f3437b89212fae0dfade
2,2.6923,space,1.0354,0,154,154,135,1,,,639b9ab341f4429b1b3c06a2,643772d113ac0d3abc9086b1,2023-04-12_21h19.33.324,PRaM,2021.2.3,Win32,59.91252771,61b8f3437b89212fae0dfade
3,3.2426,space,1.523,0,155,155,139,1,,,639b9ab341f4429b1b3c06a2,643772d113ac0d3abc9086b1,2023-04-12_21h19.33.324,PRaM,2021.2.3,Win32,59.91252771,61b8f3437b89212fae0dfade
3,3.3826,space,1.6425,0,156,156,32,1,,,639b9ab341f4429b1b3c06a2,643772d113ac0d3abc9086b1,2023-04-12_21h19.33.324,PRaM,2021.2.3,Win32,59.91252771,61b8f3437b89212fae0dfade
5,3.2837,space,1.6859,0,157,157,363,1,,,639b9ab341f4429b1b3c06a2,643772d113ac0d3abc9086b1,2023-04-12_21h19.33.324,PRaM,2021.2.3,Win32,59.91252771,61b8f3437b89212fae0dfade
3,2.6021,space,0.941,0,158,158,76,1,,,639b9ab341f4429b1b3c06a2,643772d113ac0d3abc9086b1,2023-04-12_21h19.33.324,PRaM,2021.2.3,Win32,59.91252771,61b8f3437b89212fae0dfade
2,2.7832,space,1.1308,0,159,159,129,1,,,639b9ab341f4429b1b3c06a2,643772d113ac0d3abc9086b1,2023-04-12_21h19.33.324,PRaM,2021.2.3,Win32,59.91252771,61b8f3437b89212fae0dfade
3,3.0189,space,1.1391,0,160,160,165,1,,,639b9ab341f4429b1b3c06a2,643772d113ac0d3abc9086b1,2023-04-12_21h19.33.324,PRaM,2021.2.3,Win32,59.91252771,61b8f3437b89212fae0dfade
2,3.185,space,1.3523,0,161,161,185,1,,,639b9ab341f4429b1b3c06a2,643772d113ac0d3abc9086b1,2023-04-12_21h19.33.324,PRaM,2021.2.3,Win32,59.91252771,61b8f3437b89212fae0dfade
2,1.8779,space,0.2339,0,162,162,114,1,,,639b9ab341f4429b1b3c06a2,643772d113ac0d3abc9086b1,2023-04-12_21h19.33.324,PRaM,2021.2.3,Win32,59.91252771,61b8f3437b89212fae0dfade
2,1.6605,space,0.2999,0,163,163,226,1,,,639b9ab341f4429b1b3c06a2,643772d113ac0d3abc9086b1,2023-04-12_21h19.33.324,PRaM,2021.2.3,Win32,59.91252771,61b8f3437b89212fae0dfade
3,2.6592,space,0.845,0,164,164,110,1,,,639b9ab341f4429b1b3c06a2,643772d113ac0d3abc9086b1,2023-04-12_21h19.33.324,PRaM,2021.2.3,Win32,59.91252771,61b8f3437b89212fae0dfade
2,1.9099,space,0.1131,0,165,165,243,1,,,639b9ab341f4429b1b3c06a2,643772d113ac0d3abc9086b1,2023-04-12_21h19.33.324,PRaM,2021.2.3,Win32,59.91252771,61b8f3437b89212fae0dfade
2,1.7244,space,0.8185,0,166,166,233,1,,,639b9ab341f4429b1b3c06a2,643772d113ac0d3abc9086b1,2023-04-12_21h19.33.324,PRaM,2021.2.3,Win32,59.91252771,61b8f3437b89212fae0dfade
3,1.8577,space,0.2463,0,167,167,106,1,,,639b9ab341f4429b1b3c06a2,643772d113ac0d3abc9086b1,2023-04-12_21h19.33.324,PRaM,2021.2.3,Win32,59.91252771,61b8f3437b89212fae0dfade
2,1.791,space,0.1891,0,168,168,131,1,,,639b9ab341f4429b1b3c06a2,643772d113ac0d3abc9086b1,2023-04-12_21h19.33.324,PRaM,2021.2.3,Win32,59.91252771,61b8f3437b89212fae0dfade
2,1.4421,space,0.5065,0,169,169,292,1,,,639b9ab341f4429b1b3c06a2,643772d113ac0d3abc9086b1,2023-04-12_21h19.33.324,PRaM,2021.2.3,Win32,59.91252771,61b8f3437b89212fae0dfade
3,2.5003,space,0.9232,0,170,170,223,1,,,639b9ab341f4429b1b3c06a2,643772d113ac0d3abc9086b1,2023-04-12_21h19.33.324,PRaM,2021.2.3,Win32,59.91252771,61b8f3437b89212fae0dfade
6,2.443,space,0.692,0,171,171,196,1,,,639b9ab341f4429b1b3c06a2,643772d113ac0d3abc9086b1,2023-04-12_21h19.33.324,PRaM,2021.2.3,Win32,59.91252771,61b8f3437b89212fae0dfade
3,2.0414,space,0.3086,0,172,172,123,1,,,639b9ab341f4429b1b3c06a2,643772d113ac0d3abc9086b1,2023-04-12_21h19.33.324,PRaM,2021.2.3,Win32,59.91252771,61b8f3437b89212fae0dfade
2,1.7749,space,0.0329,0,173,173,155,1,,,639b9ab341f4429b1b3c06a2,643772d113ac0d3abc9086b1,2023-04-12_21h19.33.324,PRaM,2021.2.3,Win32,59.91252771,61b8f3437b89212fae0dfade
2,1.9523,space,0.3343,0,174,174,43,1,,,639b9ab341f4429b1b3c06a2,643772d113ac0d3abc9086b1,2023-04-12_21h19.33.324,PRaM,2021.2.3,Win32,59.91252771,61b8f3437b89212fae0dfade
2,1.779,space,0.0507,0,175,175,87,1,,,639b9ab341f4429b1b3c06a2,643772d113ac0d3abc9086b1,2023-04-12_21h19.33.324,PRaM,2021.2.3,Win32,59.91252771,61b8f3437b89212fae0dfade
2,3.6962,space,2.0358,0,176,176,333,1,,,639b9ab341f4429b1b3c06a2,643772d113ac0d3abc9086b1,2023-04-12_21h19.33.324,PRaM,2021.2.3,Win32,59.91252771,61b8f3437b89212fae0dfade
2,2.1977,space,0.5012,0,177,177,44,1,,,639b9ab341f4429b1b3c06a2,643772d113ac0d3abc9086b1,2023-04-12_21h19.33.324,PRaM,2021.2.3,Win32,59.91252771,61b8f3437b89212fae0dfade
2,4.513,space,2.6794,0,178,178,77,1,,,639b9ab341f4429b1b3c06a2,643772d113ac0d3abc9086b1,2023-04-12_21h19.33.324,PRaM,2021.2.3,Win32,59.91252771,61b8f3437b89212fae0dfade
6,2.7198,space,0.9978,0,179,179,276,1,,,639b9ab341f4429b1b3c06a2,643772d113ac0d3abc9086b1,2023-04-12_21h19.33.324,PRaM,2021.2.3,Win32,59.91252771,61b8f3437b89212fae0dfade
2,2.6929,space,1.0231,0,180,180,311,1,,,639b9ab341f4429b1b3c06a2,643772d113ac0d3abc9086b1,2023-04-12_21h19.33.324,PRaM,2021.2.3,Win32,59.91252771,61b8f3437b89212fae0dfade
2,2.0141,space,0.4069,0,181,181,212,1,,,639b9ab341f4429b1b3c06a2,643772d113ac0d3abc9086b1,2023-04-12_21h19.33.324,PRaM,2021.2.3,Win32,59.91252771,61b8f3437b89212fae0dfade
3,2.9092,space,1.1187,0,182,182,183,1,,,639b9ab341f4429b1b3c06a2,643772d113ac0d3abc9086b1,2023-04-12_21h19.33.324,PRaM,2021.2.3,Win32,59.91252771,61b8f3437b89212fae0dfade
2,2.468,space,0.9017,0,183,183,359,1,,,639b9ab341f4429b1b3c06a2,643772d113ac0d3abc9086b1,2023-04-12_21h19.33.324,PRaM,2021.2.3,Win32,59.91252771,61b8f3437b89212fae0dfade
2,2.0264,space,0.351,0,184,184,91,1,,,639b9ab341f4429b1b3c06a2,643772d113ac0d3abc9086b1,2023-04-12_21h19.33.324,PRaM,2021.2.3,Win32,59.91252771,61b8f3437b89212fae0dfade
2,2.0594,space,0.4011,0,185,185,81,1,,,639b9ab341f4429b1b3c06a2,643772d113ac0d3abc9086b1,2023-04-12_21h19.33.324,PRaM,2021.2.3,Win32,59.91252771,61b8f3437b89212fae0dfade
3,4.7359,space,3.1033,0,186,186,297,1,,,639b9ab341f4429b1b3c06a2,643772d113ac0d3abc9086b1,2023-04-12_21h19.33.324,PRaM,2021.2.3,Win32,59.91252771,61b8f3437b89212fae0dfade
4,2.6436,space,1.0047,0,187,187,182,1,,,639b9ab341f4429b1b3c06a2,643772d113ac0d3abc9086b1,2023-04-12_21h19.33.324,PRaM,2021.2.3,Win32,59.91252771,61b8f3437b89212fae0dfade
3,2.3589,space,1.2649,0,188,188,253,1,,,639b9ab341f4429b1b3c06a2,643772d113ac0d3abc9086b1,2023-04-12_21h19.33.324,PRaM,2021.2.3,Win32,59.91252771,61b8f3437b89212fae0dfade
2,2.2742,space,0.6115,0,189,189,118,1,,,639b9ab341f4429b1b3c06a2,643772d113ac0d3abc9086b1,2023-04-12_21h19.33.324,PRaM,2021.2.3,Win32,59.91252771,61b8f3437b89212fae0dfade
2,1.7865,space,1.7003,0,190,190,346,1,,,639b9ab341f4429b1b3c06a2,643772d113ac0d3abc9086b1,2023-04-12_21h19.33.324,PRaM,2021.2.3,Win32,59.91252771,61b8f3437b89212fae0dfade
3,2.7828,space,1.1683,0,191,191,304,1,,,639b9ab341f4429b1b3c06a2,643772d113ac0d3abc9086b1,2023-04-12_21h19.33.324,PRaM,2021.2.3,Win32,59.91252771,61b8f3437b89212fae0dfade
4,3.1961,space,1.585,0,192,192,38,1,,,639b9ab341f4429b1b3c06a2,643772d113ac0d3abc9086b1,2023-04-12_21h19.33.324,PRaM,2021.2.3,Win32,59.91252771,61b8f3437b89212fae0dfade
2,2.4416,space,0.7015,0,193,193,171,1,,,639b9ab341f4429b1b3c06a2,643772d113ac0d3abc9086b1,2023-04-12_21h19.33.324,PRaM,2021.2.3,Win32,59.91252771,61b8f3437b89212fae0dfade
2,1.7441,space,0.1178,0,194,194,79,1,,,639b9ab341f4429b1b3c06a2,643772d113ac0d3abc9086b1,2023-04-12_21h19.33.324,PRaM,2021.2.3,Win32,59.91252771,61b8f3437b89212fae0dfade
7,3.0664,space,2.3532,0,195,195,17,1,,,639b9ab341f4429b1b3c06a2,643772d113ac0d3abc9086b1,2023-04-12_21h19.33.324,PRaM,2021.2.3,Win32,59.91252771,61b8f3437b89212fae0dfade
3,2.678,space,1.0184,0,196,196,126,1,,,639b9ab341f4429b1b3c06a2,643772d113ac0d3abc9086b1,2023-04-12_21h19.33.324,PRaM,2021.2.3,Win32,59.91252771,61b8f3437b89212fae0dfade
3,2.0488,space,0.4627,0,197,197,369,1,,,639b9ab341f4429b1b3c06a2,643772d113ac0d3abc9086b1,2023-04-12_21h19.33.324,PRaM,2021.2.3,Win32,59.91252771,61b8f3437b89212fae0dfade
2,2.9101,space,1.469,0,198,198,240,1,,,639b9ab341f4429b1b3c06a2,643772d113ac0d3abc9086b1,2023-04-12_21h19.33.324,PRaM,2021.2.3,Win32,59.91252771,61b8f3437b89212fae0dfade
4,3.3994,space,1.7853,0,199,199,173,1,,,639b9ab341f4429b1b3c06a2,643772d113ac0d3abc9086b1,2023-04-12_21h19.33.324,PRaM,2021.2.3,Win32,59.91252771,61b8f3437b89212fae0dfade
3,3.3054,space,1.6048,0,200,200,271,1,,,639b9ab341f4429b1b3c06a2,643772d113ac0d3abc9086b1,2023-04-12_21h19.33.324,PRaM,2021.2.3,Win32,59.91252771,61b8f3437b89212fae0dfade
2,3.4688,space,1.8722,0,201,201,121,1,,,639b9ab341f4429b1b3c06a2,643772d113ac0d3abc9086b1,2023-04-12_21h19.33.324,PRaM,2021.2.3,Win32,59.91252771,61b8f3437b89212fae0dfade
1,2.6088,space,0.973,0,202,202,10,1,,,639b9ab341f4429b1b3c06a2,643772d113ac0d3abc9086b1,2023-04-12_21h19.33.324,PRaM,2021.2.3,Win32,59.91252771,61b8f3437b89212fae0dfade
2,2.6343,space,0.939,0,203,203,148,1,,,639b9ab341f4429b1b3c06a2,643772d113ac0d3abc9086b1,2023-04-12_21h19.33.324,PRaM,2021.2.3,Win32,59.91252771,61b8f3437b89212fae0dfade
3,4.4271,space,2.887,0,204,204,39,1,,,639b9ab341f4429b1b3c06a2,643772d113ac0d3abc9086b1,2023-04-12_21h19.33.324,PRaM,2021.2.3,Win32,59.91252771,61b8f3437b89212fae0dfade
2,4.1766,space,2.5204,0,205,205,6,1,,,639b9ab341f4429b1b3c06a2,643772d113ac0d3abc9086b1,2023-04-12_21h19.33.324,PRaM,2021.2.3,Win32,59.91252771,61b8f3437b89212fae0dfade
1,6.0236,space,4.9188,0,206,206,289,1,,,639b9ab341f4429b1b3c06a2,643772d113ac0d3abc9086b1,2023-04-12_21h19.33.324,PRaM,2021.2.3,Win32,59.91252771,61b8f3437b89212fae0dfade
2,2.6022,space,1.0348,0,207,207,193,1,,,639b9ab341f4429b1b3c06a2,643772d113ac0d3abc9086b1,2023-04-12_21h19.33.324,PRaM,2021.2.3,Win32,59.91252771,61b8f3437b89212fae0dfade
5,3.4603,space,1.7903,0,208,208,3,1,,,639b9ab341f4429b1b3c06a2,643772d113ac0d3abc9086b1,2023-04-12_21h19.33.324,PRaM,2021.2.3,Win32,59.91252771,61b8f3437b89212fae0dfade
2,2.5124,space,0.8093,0,209,209,73,1,,,639b9ab341f4429b1b3c06a2,643772d113ac0d3abc9086b1,2023-04-12_21h19.33.324,PRaM,2021.2.3,Win32,59.91252771,61b8f3437b89212fae0dfade
3,3.985,space,2.207,0,210,210,366,1,,,639b9ab341f4429b1b3c06a2,643772d113ac0d3abc9086b1,2023-04-12_21h19.33.324,PRaM,2021.2.3,Win32,59.91252771,61b8f3437b89212fae0dfade
2,1.8155,space,1.4241,0,211,211,124,1,,,639b9ab341f4429b1b3c06a2,643772d113ac0d3abc9086b1,2023-04-12_21h19.33.324,PRaM,2021.2.3,Win32,59.91252771,61b8f3437b89212fae0dfade
2,2.0349,space,0.3713,0,212,212,158,1,,,639b9ab341f4429b1b3c06a2,643772d113ac0d3abc9086b1,2023-04-12_21h19.33.324,PRaM,2021.2.3,Win32,59.91252771,61b8f3437b89212fae0dfade
3,2.8996,space,1.0692,0,213,213,179,1,,,639b9ab341f4429b1b3c06a2,643772d113ac0d3abc9086b1,2023-04-12_21h19.33.324,PRaM,2021.2.3,Win32,59.91252771,61b8f3437b89212fae0dfade
5,5.1137,space,3.5257,0,214,214,264,1,,,639b9ab341f4429b1b3c06a2,643772d113ac0d3abc9086b1,2023-04-12_21h19.33.324,PRaM,2021.2.3,Win32,59.91252771,61b8f3437b89212fae0dfade
3,2.11,space,0.4845,0,215,215,164,1,,,639b9ab341f4429b1b3c06a2,643772d113ac0d3abc9086b1,2023-04-12_21h19.33.324,PRaM,2021.2.3,Win32,59.91252771,61b8f3437b89212fae0dfade
2,1.8973,space,0.2244,0,216,216,167,1,,,639b9ab341f4429b1b3c06a2,643772d113ac0d3abc9086b1,2023-04-12_21h19.33.324,PRaM,2021.2.3,Win32,59.91252771,61b8f3437b89212fae0dfade
2,4.9078,space,3.3343,0,217,217,227,1,,,639b9ab341f4429b1b3c06a2,643772d113ac0d3abc9086b1,2023-04-12_21h19.33.324,PRaM,2021.2.3,Win32,59.91252771,61b8f3437b89212fae0dfade
3,4.493,space,2.9547,0,218,218,80,1,,,639b9ab341f4429b1b3c06a2,643772d113ac0d3abc9086b1,2023-04-12_21h19.33.324,PRaM,2021.2.3,Win32,59.91252771,61b8f3437b89212fae0dfade
3,3.326,space,1.7197,0,219,219,254,1,,,639b9ab341f4429b1b3c06a2,643772d113ac0d3abc9086b1,2023-04-12_21h19.33.324,PRaM,2021.2.3,Win32,59.91252771,61b8f3437b89212fae0dfade
6,4.8343,space,3.2564,0,220,220,319,1,,,639b9ab341f4429b1b3c06a2,643772d113ac0d3abc9086b1,2023-04-12_21h19.33.324,PRaM,2021.2.3,Win32,59.91252771,61b8f3437b89212fae0dfade
3,2.6003,space,0.8518,0,221,221,5,1,,,639b9ab341f4429b1b3c06a2,643772d113ac0d3abc9086b1,2023-04-12_21h19.33.324,PRaM,2021.2.3,Win32,59.91252771,61b8f3437b89212fae0dfade
7,2.6138,space,0.9906,0,222,222,323,1,,,639b9ab341f4429b1b3c06a2,643772d113ac0d3abc9086b1,2023-04-12_21h19.33.324,PRaM,2021.2.3,Win32,59.91252771,61b8f3437b89212fae0dfade
7,2.8168,space,1.3972,0,223,223,302,1,,,639b9ab341f4429b1b3c06a2,643772d113ac0d3abc9086b1,2023-04-12_21h19.33.324,PRaM,2021.2.3,Win32,59.91252771,61b8f3437b89212fae0dfade
2,3.2655,space,1.6182,0,224,224,156,1,,,639b9ab341f4429b1b3c06a2,643772d113ac0d3abc9086b1,2023-04-12_21h19.33.324,PRaM,2021.2.3,Win32,59.91252771,61b8f3437b89212fae0dfade
3,2.5188,space,0.8429,0,225,225,372,1,,,639b9ab341f4429b1b3c06a2,643772d113ac0d3abc9086b1,2023-04-12_21h19.33.324,PRaM,2021.2.3,Win32,59.91252771,61b8f3437b89212fae0dfade
2,2.5997,space,0.9179,0,226,226,145,1,,,639b9ab341f4429b1b3c06a2,643772d113ac0d3abc9086b1,2023-04-12_21h19.33.324,PRaM,2021.2.3,Win32,59.91252771,61b8f3437b89212fae0dfade
2,1.9942,space,0.3012,0,227,227,360,1,,,639b9ab341f4429b1b3c06a2,643772d113ac0d3abc9086b1,2023-04-12_21h19.33.324,PRaM,2021.2.3,Win32,59.91252771,61b8f3437b89212fae0dfade
4,2.7005,space,0.9995,0,228,228,291,1,,,639b9ab341f4429b1b3c06a2,643772d113ac0d3abc9086b1,2023-04-12_21h19.33.324,PRaM,2021.2.3,Win32,59.91252771,61b8f3437b89212fae0dfade
6,3.3508,space,1.7692,0,229,229,16,1,,,639b9ab341f4429b1b3c06a2,643772d113ac0d3abc9086b1,2023-04-12_21h19.33.324,PRaM,2021.2.3,Win32,59.91252771,61b8f3437b89212fae0dfade
5,2.997,space,1.309,0,230,230,56,1,,,639b9ab341f4429b1b3c06a2,643772d113ac0d3abc9086b1,2023-04-12_21h19.33.324,PRaM,2021.2.3,Win32,59.91252771,61b8f3437b89212fae0dfade
4,6.4844,space,4.9559,0,231,231,208,1,,,639b9ab341f4429b1b3c06a2,643772d113ac0d3abc9086b1,2023-04-12_21h19.33.324,PRaM,2021.2.3,Win32,59.91252771,61b8f3437b89212fae0dfade
3,2.1492,space,0.4548,0,232,232,283,1,,,639b9ab341f4429b1b3c06a2,643772d113ac0d3abc9086b1,2023-04-12_21h19.33.324,PRaM,2021.2.3,Win32,59.91252771,61b8f3437b89212fae0dfade
2,2.1418,space,0.4176,0,233,233,22,1,,,639b9ab341f4429b1b3c06a2,643772d113ac0d3abc9086b1,2023-04-12_21h19.33.324,PRaM,2021.2.3,Win32,59.91252771,61b8f3437b89212fae0dfade
5,3.2871,space,1.8782,0,234,234,334,1,,,639b9ab341f4429b1b3c06a2,643772d113ac0d3abc9086b1,2023-04-12_21h19.33.324,PRaM,2021.2.3,Win32,59.91252771,61b8f3437b89212fae0dfade
4,2.443,space,0.656,0,235,235,351,1,,,639b9ab341f4429b1b3c06a2,643772d113ac0d3abc9086b1,2023-04-12_21h19.33.324,PRaM,2021.2.3,Win32,59.91252771,61b8f3437b89212fae0dfade
4,2.8321,space,1.151,0,236,236,105,1,,,639b9ab341f4429b1b3c06a2,643772d113ac0d3abc9086b1,2023-04-12_21h19.33.324,PRaM,2021.2.3,Win32,59.91252771,61b8f3437b89212fae0dfade
3,2.2528,space,0.8348,0,237,237,237,1,,,639b9ab341f4429b1b3c06a2,643772d113ac0d3abc9086b1,2023-04-12_21h19.33.324,PRaM,2021.2.3,Win32,59.91252771,61b8f3437b89212fae0dfade
2,2.0513,space,0.3174,0,238,238,96,1,,,639b9ab341f4429b1b3c06a2,643772d113ac0d3abc9086b1,2023-04-12_21h19.33.324,PRaM,2021.2.3,Win32,59.91252771,61b8f3437b89212fae0dfade
2,1.9179,space,0.3185,0,239,239,104,1,,,639b9ab341f4429b1b3c06a2,643772d113ac0d3abc9086b1,2023-04-12_21h19.33.324,PRaM,2021.2.3,Win32,59.91252771,61b8f3437b89212fae0dfade
2,1.6992,space,0.0901,0,240,240,203,1,,,639b9ab341f4429b1b3c06a2,643772d113ac0d3abc9086b1,2023-04-12_21h19.33.324,PRaM,2021.2.3,Win32,59.91252771,61b8f3437b89212fae0dfade
3,2.3597,space,0.6836,0,241,241,244,1,,,639b9ab341f4429b1b3c06a2,643772d113ac0d3abc9086b1,2023-04-12_21h19.33.324,PRaM,2021.2.3,Win32,59.91252771,61b8f3437b89212fae0dfade
2,2.191,space,0.4212,0,242,242,130,1,,,639b9ab341f4429b1b3c06a2,643772d113ac0d3abc9086b1,2023-04-12_21h19.33.324,PRaM,2021.2.3,Win32,59.91252771,61b8f3437b89212fae0dfade
2,2.6918,space,1.0474,0,243,243,335,1,,,639b9ab341f4429b1b3c06a2,643772d113ac0d3abc9086b1,2023-04-12_21h19.33.324,PRaM,2021.2.3,Win32,59.91252771,61b8f3437b89212fae0dfade
2,3.4111,space,1.7842,0,244,244,290,1,,,639b9ab341f4429b1b3c06a2,643772d113ac0d3abc9086b1,2023-04-12_21h19.33.324,PRaM,2021.2.3,Win32,59.91252771,61b8f3437b89212fae0dfade
2,3.2027,space,1.5595,0,245,245,284,1,,,639b9ab341f4429b1b3c06a2,643772d113ac0d3abc9086b1,2023-04-12_21h19.33.324,PRaM,2021.2.3,Win32,59.91252771,61b8f3437b89212fae0dfade
6,2.7992,space,1.1091,0,246,246,4,1,,,639b9ab341f4429b1b3c06a2,643772d113ac0d3abc9086b1,2023-04-12_21h19.33.324,PRaM,2021.2.3,Win32,59.91252771,61b8f3437b89212fae0dfade
3,2.5752,space,0.8054,0,247,247,348,1,,,639b9ab341f4429b1b3c06a2,643772d113ac0d3abc9086b1,2023-04-12_21h19.33.324,PRaM,2021.2.3,Win32,59.91252771,61b8f3437b89212fae0dfade
4,2.6487,space,1.0567,0,248,248,186,1,,,639b9ab341f4429b1b3c06a2,643772d113ac0d3abc9086b1,2023-04-12_21h19.33.324,PRaM,2021.2.3,Win32,59.91252771,61b8f3437b89212fae0dfade
2,2.2185,space,0.5381,0,249,249,266,1,,,639b9ab341f4429b1b3c06a2,643772d113ac0d3abc9086b1,2023-04-12_21h19.33.324,PRaM,2021.2.3,Win32,59.91252771,61b8f3437b89212fae0dfade
2,2.6818,space,1.118,0,250,250,169,1,,,639b9ab341f4429b1b3c06a2,643772d113ac0d3abc9086b1,2023-04-12_21h19.33.324,PRaM,2021.2.3,Win32,59.91252771,61b8f3437b89212fae0dfade
7,2.9594,space,1.4694,0,251,251,85,1,,,639b9ab341f4429b1b3c06a2,643772d113ac0d3abc9086b1,2023-04-12_21h19.33.324,PRaM,2021.2.3,Win32,59.91252771,61b8f3437b89212fae0dfade
4,3.0423,space,1.523,0,252,252,225,1,,,639b9ab341f4429b1b3c06a2,643772d113ac0d3abc9086b1,2023-04-12_21h19.33.324,PRaM,2021.2.3,Win32,59.91252771,61b8f3437b89212fae0dfade
3,3.1672,space,1.4736,0,253,253,355,1,,,639b9ab341f4429b1b3c06a2,643772d113ac0d3abc9086b1,2023-04-12_21h19.33.324,PRaM,2021.2.3,Win32,59.91252771,61b8f3437b89212fae0dfade
3,3.9724,space,2.2533,0,254,254,201,1,,,639b9ab341f4429b1b3c06a2,643772d113ac0d3abc9086b1,2023-04-12_21h19.33.324,PRaM,2021.2.3,Win32,59.91252771,61b8f3437b89212fae0dfade
2,2.0848,space,0.4179,0,255,255,365,1,,,639b9ab341f4429b1b3c06a2,643772d113ac0d3abc9086b1,2023-04-12_21h19.33.324,PRaM,2021.2.3,Win32,59.91252771,61b8f3437b89212fae0dfade
2,1.6482,space,0.7358,0,256,256,184,1,,,639b9ab341f4429b1b3c06a2,643772d113ac0d3abc9086b1,2023-04-12_21h19.33.324,PRaM,2021.2.3,Win32,59.91252771,61b8f3437b89212fae0dfade
2,1.9978,space,0.3833,0,257,257,250,1,,,639b9ab341f4429b1b3c06a2,643772d113ac0d3abc9086b1,2023-04-12_21h19.33.324,PRaM,2021.2.3,Win32,59.91252771,61b8f3437b89212fae0dfade
5,2.7578,space,1.1399,0,258,258,84,1,,,639b9ab341f4429b1b3c06a2,643772d113ac0d3abc9086b1,2023-04-12_21h19.33.324,PRaM,2021.2.3,Win32,59.91252771,61b8f3437b89212fae0dfade
2,2.7162,space,1.068,0,259,259,163,1,,,639b9ab341f4429b1b3c06a2,643772d113ac0d3abc9086b1,2023-04-12_21h19.33.324,PRaM,2021.2.3,Win32,59.91252771,61b8f3437b89212fae0dfade
2,1.6247,space,0.9556,0,260,260,161,1,,,639b9ab341f4429b1b3c06a2,643772d113ac0d3abc9086b1,2023-04-12_21h19.33.324,PRaM,2021.2.3,Win32,59.91252771,61b8f3437b89212fae0dfade
3,1.9772,space,0.2847,0,261,261,47,1,,,639b9ab341f4429b1b3c06a2,643772d113ac0d3abc9086b1,2023-04-12_21h19.33.324,PRaM,2021.2.3,Win32,59.91252771,61b8f3437b89212fae0dfade
1,2.9428,space,1.4192,0,262,262,107,1,,,639b9ab341f4429b1b3c06a2,643772d113ac0d3abc9086b1,2023-04-12_21h19.33.324,PRaM,2021.2.3,Win32,59.91252771,61b8f3437b89212fae0dfade
2,2.4218,space,0.7102,0,263,263,125,1,,,639b9ab341f4429b1b3c06a2,643772d113ac0d3abc9086b1,2023-04-12_21h19.33.324,PRaM,2021.2.3,Win32,59.91252771,61b8f3437b89212fae0dfade
2,1.8614,space,0.1529,0,264,264,100,1,,,639b9ab341f4429b1b3c06a2,643772d113ac0d3abc9086b1,2023-04-12_21h19.33.324,PRaM,2021.2.3,Win32,59.91252771,61b8f3437b89212fae0dfade
2,1.4935,space,0.325,0,265,265,322,1,,,639b9ab341f4429b1b3c06a2,643772d113ac0d3abc9086b1,2023-04-12_21h19.33.324,PRaM,2021.2.3,Win32,59.91252771,61b8f3437b89212fae0dfade
6,2.7589,space,1.1309,0,266,266,320,1,,,639b9ab341f4429b1b3c06a2,643772d113ac0d3abc9086b1,2023-04-12_21h19.33.324,PRaM,2021.2.3,Win32,59.91252771,61b8f3437b89212fae0dfade
2,1.7584,space,0.1362,0,267,267,343,1,,,639b9ab341f4429b1b3c06a2,643772d113ac0d3abc9086b1,2023-04-12_21h19.33.324,PRaM,2021.2.3,Win32,59.91252771,61b8f3437b89212fae0dfade
2,2.444,space,0.7682,0,268,268,274,1,,,639b9ab341f4429b1b3c06a2,643772d113ac0d3abc9086b1,2023-04-12_21h19.33.324,PRaM,2021.2.3,Win32,59.91252771,61b8f3437b89212fae0dfade
2,1.4165,space,0.2679,0,269,269,198,1,,,639b9ab341f4429b1b3c06a2,643772d113ac0d3abc9086b1,2023-04-12_21h19.33.324,PRaM,2021.2.3,Win32,59.91252771,61b8f3437b89212fae0dfade
1,3.9836,space,2.3196,0,270,270,68,1,,,639b9ab341f4429b1b3c06a2,643772d113ac0d3abc9086b1,2023-04-12_21h19.33.324,PRaM,2021.2.3,Win32,59.91252771,61b8f3437b89212fae0dfade
2,1.774,space,0.0097,0,271,271,103,1,,,639b9ab341f4429b1b3c06a2,643772d113ac0d3abc9086b1,2023-04-12_21h19.33.324,PRaM,2021.2.3,Win32,59.91252771,61b8f3437b89212fae0dfade
3,2.3436,space,0.606,0,272,272,150,1,,,639b9ab341f4429b1b3c06a2,643772d113ac0d3abc9086b1,2023-04-12_21h19.33.324,PRaM,2021.2.3,Win32,59.91252771,61b8f3437b89212fae0dfade
2,3.2985,space,1.7694,0,273,273,287,1,,,639b9ab341f4429b1b3c06a2,643772d113ac0d3abc9086b1,2023-04-12_21h19.33.324,PRaM,2021.2.3,Win32,59.91252771,61b8f3437b89212fae0dfade
2,1.524,space,0.4514,0,274,274,58,1,,,639b9ab341f4429b1b3c06a2,643772d113ac0d3abc9086b1,2023-04-12_21h19.33.324,PRaM,2021.2.3,Win32,59.91252771,61b8f3437b89212fae0dfade
3,2.9299,space,1.3686,0,275,275,321,1,,,639b9ab341f4429b1b3c06a2,643772d113ac0d3abc9086b1,2023-04-12_21h19.33.324,PRaM,2021.2.3,Win32,59.91252771,61b8f3437b89212fae0dfade
2,1.826,space,0.164,0,276,276,247,1,,,639b9ab341f4429b1b3c06a2,643772d113ac0d3abc9086b1,2023-04-12_21h19.33.324,PRaM,2021.2.3,Win32,59.91252771,61b8f3437b89212fae0dfade
2,1.3915,space,0.3183,0,277,277,338,1,,,639b9ab341f4429b1b3c06a2,643772d113ac0d3abc9086b1,2023-04-12_21h19.33.324,PRaM,2021.2.3,Win32,59.91252771,61b8f3437b89212fae0dfade
5,2.6588,space,1.0219,0,278,278,279,1,,,639b9ab341f4429b1b3c06a2,643772d113ac0d3abc9086b1,2023-04-12_21h19.33.324,PRaM,2021.2.3,Win32,59.91252771,61b8f3437b89212fae0dfade
2,3.0165,space,1.285,0,279,279,220,1,,,639b9ab341f4429b1b3c06a2,643772d113ac0d3abc9086b1,2023-04-12_21h19.33.324,PRaM,2021.2.3,Win32,59.91252771,61b8f3437b89212fae0dfade
4,2.5523,space,0.8536,0,280,280,177,1,,,639b9ab341f4429b1b3c06a2,643772d113ac0d3abc9086b1,2023-04-12_21h19.33.324,PRaM,2021.2.3,Win32,59.91252771,61b8f3437b89212fae0dfade
3,1.7327,space,0.0005,0,281,281,282,1,,,639b9ab341f4429b1b3c06a2,643772d113ac0d3abc9086b1,2023-04-12_21h19.33.324,PRaM,2021.2.3,Win32,59.91252771,61b8f3437b89212fae0dfade
2,1.9184,space,0.237,0,282,282,23,1,,,639b9ab341f4429b1b3c06a2,643772d113ac0d3abc9086b1,2023-04-12_21h19.33.324,PRaM,2021.2.3,Win32,59.91252771,61b8f3437b89212fae0dfade
2,2.6841,space,0.9732,0,283,283,377,1,,,639b9ab341f4429b1b3c06a2,643772d113ac0d3abc9086b1,2023-04-12_21h19.33.324,PRaM,2021.2.3,Win32,59.91252771,61b8f3437b89212fae0dfade
2,1.7575,space,0.0671,0,284,284,57,1,,,639b9ab341f4429b1b3c06a2,643772d113ac0d3abc9086b1,2023-04-12_21h19.33.324,PRaM,2021.2.3,Win32,59.91252771,61b8f3437b89212fae0dfade
3,3.1593,space,1.5641,0,285,285,310,1,,,639b9ab341f4429b1b3c06a2,643772d113ac0d3abc9086b1,2023-04-12_21h19.33.324,PRaM,2021.2.3,Win32,59.91252771,61b8f3437b89212fae0dfade
2,1.7686,space,0.2431,0,286,286,251,1,,,639b9ab341f4429b1b3c06a2,643772d113ac0d3abc9086b1,2023-04-12_21h19.33.324,PRaM,2021.2.3,Win32,59.91252771,61b8f3437b89212fae0dfade
2,1.6742,space,0.0172,0,287,287,367,1,,,639b9ab341f4429b1b3c06a2,643772d113ac0d3abc9086b1,2023-04-12_21h19.33.324,PRaM,2021.2.3,Win32,59.91252771,61b8f3437b89212fae0dfade
2,1.6434,space,0.4674,0,288,288,194,1,,,639b9ab341f4429b1b3c06a2,643772d113ac0d3abc9086b1,2023-04-12_21h19.33.324,PRaM,2021.2.3,Win32,59.91252771,61b8f3437b89212fae0dfade
3,2.4946,space,0.7734,0,289,289,159,1,,,639b9ab341f4429b1b3c06a2,643772d113ac0d3abc9086b1,2023-04-12_21h19.33.324,PRaM,2021.2.3,Win32,59.91252771,61b8f3437b89212fae0dfade
2,1.5476,space,0.3846,0,290,290,267,1,,,639b9ab341f4429b1b3c06a2,643772d113ac0d3abc9086b1,2023-04-12_21h19.33.324,PRaM,2021.2.3,Win32,59.91252771,61b8f3437b89212fae0dfade
2,1.6005,space,0.0168,0,291,291,30,1,,,639b9ab341f4429b1b3c06a2,643772d113ac0d3abc9086b1,2023-04-12_21h19.33.324,PRaM,2021.2.3,Win32,59.91252771,61b8f3437b89212fae0dfade
2,1.6417,space,0.1137,0,292,292,331,1,,,639b9ab341f4429b1b3c06a2,643772d113ac0d3abc9086b1,2023-04-12_21h19.33.324,PRaM,2021.2.3,Win32,59.91252771,61b8f3437b89212fae0dfade
2,1.1239,space,0.4938,0,293,293,134,1,,,639b9ab341f4429b1b3c06a2,643772d113ac0d3abc9086b1,2023-04-12_21h19.33.324,PRaM,2021.2.3,Win32,59.91252771,61b8f3437b89212fae0dfade
3,1.9258,space,0.2862,0,294,294,45,1,,,639b9ab341f4429b1b3c06a2,643772d113ac0d3abc9086b1,2023-04-12_21h19.33.324,PRaM,2021.2.3,Win32,59.91252771,61b8f3437b89212fae0dfade
2,0.8737,space,0.38,0,295,295,199,1,,,639b9ab341f4429b1b3c06a2,643772d113ac0d3abc9086b1,2023-04-12_21h19.33.324,PRaM,2021.2.3,Win32,59.91252771,61b8f3437b89212fae0dfade
3,0.876,space,0.305,0,296,296,307,1,,,639b9ab341f4429b1b3c06a2,643772d113ac0d3abc9086b1,2023-04-12_21h19.33.324,PRaM,2021.2.3,Win32,59.91252771,61b8f3437b89212fae0dfade
3,1.4454,space,0.2503,0,297,297,151,1,,,639b9ab341f4429b1b3c06a2,643772d113ac0d3abc9086b1,2023-04-12_21h19.33.324,PRaM,2021.2.3,Win32,59.91252771,61b8f3437b89212fae0dfade
2,0.9767,space,0.7538,0,298,298,19,1,,,639b9ab341f4429b1b3c06a2,643772d113ac0d3abc9086b1,2023-04-12_21h19.33.324,PRaM,2021.2.3,Win32,59.91252771,61b8f3437b89212fae0dfade
3,1.0235,space,0.4879,0,299,299,213,1,,,639b9ab341f4429b1b3c06a2,643772d113ac0d3abc9086b1,2023-04-12_21h19.33.324,PRaM,2021.2.3,Win32,59.91252771,61b8f3437b89212fae0dfade
2,0.8815,space,0.0675,0,300,300,178,1,,,639b9ab341f4429b1b3c06a2,643772d113ac0d3abc9086b1,2023-04-12_21h19.33.324,PRaM,2021.2.3,Win32,59.91252771,61b8f3437b89212fae0dfade
4,1.4117,space,0.2901,0,301,301,314,1,,,639b9ab341f4429b1b3c06a2,643772d113ac0d3abc9086b1,2023-04-12_21h19.33.324,PRaM,2021.2.3,Win32,59.91252771,61b8f3437b89212fae0dfade
2,0.858,space,0.1678,0,302,302,7,1,,,639b9ab341f4429b1b3c06a2,643772d113ac0d3abc9086b1,2023-04-12_21h19.33.324,PRaM,2021.2.3,Win32,59.91252771,61b8f3437b89212fae0dfade
3,0.8573,space,0.0739,0,303,303,138,1,,,639b9ab341f4429b1b3c06a2,643772d113ac0d3abc9086b1,2023-04-12_21h19.33.324,PRaM,2021.2.3,Win32,59.91252771,61b8f3437b89212fae0dfade
2,0.8431,space,0.5677,0,304,304,262,1,,,639b9ab341f4429b1b3c06a2,643772d113ac0d3abc9086b1,2023-04-12_21h19.33.324,PRaM,2021.2.3,Win32,59.91252771,61b8f3437b89212fae0dfade
3,0.915,space,0.3297,0,305,305,168,1,,,639b9ab341f4429b1b3c06a2,643772d113ac0d3abc9086b1,2023-04-12_21h19.33.324,PRaM,2021.2.3,Win32,59.91252771,61b8f3437b89212fae0dfade
2,0.5466,space,0.3702,0,306,306,330,1,,,639b9ab341f4429b1b3c06a2,643772d113ac0d3abc9086b1,2023-04-12_21h19.33.324,PRaM,2021.2.3,Win32,59.91252771,61b8f3437b89212fae0dfade
3,0.6233,space,0.1202,0,307,307,187,1,,,639b9ab341f4429b1b3c06a2,643772d113ac0d3abc9086b1,2023-04-12_21h19.33.324,PRaM,2021.2.3,Win32,59.91252771,61b8f3437b89212fae0dfade
3,2.6744,space,1.1005,0,308,308,263,1,,,639b9ab341f4429b1b3c06a2,643772d113ac0d3abc9086b1,2023-04-12_21h19.33.324,PRaM,2021.2.3,Win32,59.91252771,61b8f3437b89212fae0dfade
2,0.5876,space,0.0008,0,309,309,49,1,,,639b9ab341f4429b1b3c06a2,643772d113ac0d3abc9086b1,2023-04-12_21h19.33.324,PRaM,2021.2.3,Win32,59.91252771,61b8f3437b89212fae0dfade
4,1.319,space,0.0674,0,310,310,340,1,,,639b9ab341f4429b1b3c06a2,643772d113ac0d3abc9086b1,2023-04-12_21h19.33.324,PRaM,2021.2.3,Win32,59.91252771,61b8f3437b89212fae0dfade
3,2.1846,space,0.6846,0,311,311,97,1,,,639b9ab341f4429b1b3c06a2,643772d113ac0d3abc9086b1,2023-04-12_21h19.33.324,PRaM,2021.2.3,Win32,59.91252771,61b8f3437b89212fae0dfade
3,1.7875,space,0.1676,0,312,312,257,1,,,639b9ab341f4429b1b3c06a2,643772d113ac0d3abc9086b1,2023-04-12_21h19.33.324,PRaM,2021.2.3,Win32,59.91252771,61b8f3437b89212fae0dfade
3,2.0792,space,0.4512,0,313,313,51,1,,,639b9ab341f4429b1b3c06a2,643772d113ac0d3abc9086b1,2023-04-12_21h19.33.324,PRaM,2021.2.3,Win32,59.91252771,61b8f3437b89212fae0dfade
3,2.8296,space,1.1219,0,314,314,146,1,,,639b9ab341f4429b1b3c06a2,643772d113ac0d3abc9086b1,2023-04-12_21h19.33.324,PRaM,2021.2.3,Win32,59.91252771,61b8f3437b89212fae0dfade
3,2.5294,space,0.8683,0,315,315,132,1,,,639b9ab341f4429b1b3c06a2,643772d113ac0d3abc9086b1,2023-04-12_21h19.33.324,PRaM,2021.2.3,Win32,59.91252771,61b8f3437b89212fae0dfade
3,2.5561,space,0.9134,0,316,316,54,1,,,639b9ab341f4429b1b3c06a2,643772d113ac0d3abc9086b1,2023-04-12_21h19.33.324,PRaM,2021.2.3,Win32,59.91252771,61b8f3437b89212fae0dfade
3,2.869,space,1.1517,0,317,317,361,1,,,639b9ab341f4429b1b3c06a2,643772d113ac0d3abc9086b1,2023-04-12_21h19.33.324,PRaM,2021.2.3,Win32,59.91252771,61b8f3437b89212fae0dfade
2,0.7838,space,0.2673,0,318,318,188,1,,,639b9ab341f4429b1b3c06a2,643772d113ac0d3abc9086b1,2023-04-12_21h19.33.324,PRaM,2021.2.3,Win32,59.91252771,61b8f3437b89212fae0dfade
2,0.9248,space,0.1078,0,319,319,252,1,,,639b9ab341f4429b1b3c06a2,643772d113ac0d3abc9086b1,2023-04-12_21h19.33.324,PRaM,2021.2.3,Win32,59.91252771,61b8f3437b89212fae0dfade
3,1.0607,space,0.2039,0,320,320,41,1,,,639b9ab341f4429b1b3c06a2,643772d113ac0d3abc9086b1,2023-04-12_21h19.33.324,PRaM,2021.2.3,Win32,59.91252771,61b8f3437b89212fae0dfade
2,0.6815,space,0.3495,0,321,321,324,1,,,639b9ab341f4429b1b3c06a2,643772d113ac0d3abc9086b1,2023-04-12_21h19.33.324,PRaM,2021.2.3,Win32,59.91252771,61b8f3437b89212fae0dfade
2,2.6641,space,0.9925,0,322,322,329,1,,,639b9ab341f4429b1b3c06a2,643772d113ac0d3abc9086b1,2023-04-12_21h19.33.324,PRaM,2021.2.3,Win32,59.91252771,61b8f3437b89212fae0dfade
3,1.0407,space,0.1638,0,323,323,24,1,,,639b9ab341f4429b1b3c06a2,643772d113ac0d3abc9086b1,2023-04-12_21h19.33.324,PRaM,2021.2.3,Win32,59.91252771,61b8f3437b89212fae0dfade
2,1.824,space,0.1654,0,324,324,270,1,,,639b9ab341f4429b1b3c06a2,643772d113ac0d3abc9086b1,2023-04-12_21h19.33.324,PRaM,2021.2.3,Win32,59.91252771,61b8f3437b89212fae0dfade
3,2.7433,space,0.9848,0,325,325,0,1,,,639b9ab341f4429b1b3c06a2,643772d113ac0d3abc9086b1,2023-04-12_21h19.33.324,PRaM,2021.2.3,Win32,59.91252771,61b8f3437b89212fae0dfade
2,0.7051,space,0.1176,0,326,326,215,1,,,639b9ab341f4429b1b3c06a2,643772d113ac0d3abc9086b1,2023-04-12_21h19.33.324,PRaM,2021.2.3,Win32,59.91252771,61b8f3437b89212fae0dfade
3,0.7908,space,0.3504,0,327,327,29,1,,,639b9ab341f4429b1b3c06a2,643772d113ac0d3abc9086b1,2023-04-12_21h19.33.324,PRaM,2021.2.3,Win32,59.91252771,61b8f3437b89212fae0dfade
3,2.1096,space,0.4351,0,328,328,296,1,,,639b9ab341f4429b1b3c06a2,643772d113ac0d3abc9086b1,2023-04-12_21h19.33.324,PRaM,2021.2.3,Win32,59.91252771,61b8f3437b89212fae0dfade
3,2.819,space,1.5362,0,329,329,27,1,,,639b9ab341f4429b1b3c06a2,643772d113ac0d3abc9086b1,2023-04-12_21h19.33.324,PRaM,2021.2.3,Win32,59.91252771,61b8f3437b89212fae0dfade
4,2.5534,space,0.8878,0,330,330,336,1,,,639b9ab341f4429b1b3c06a2,643772d113ac0d3abc9086b1,2023-04-12_21h19.33.324,PRaM,2021.2.3,Win32,59.91252771,61b8f3437b89212fae0dfade
2,1.1586,space,0.4343,0,331,331,344,1,,,639b9ab341f4429b1b3c06a2,643772d113ac0d3abc9086b1,2023-04-12_21h19.33.324,PRaM,2021.2.3,Win32,59.91252771,61b8f3437b89212fae0dfade
4,2.4777,space,0.9344,0,332,332,94,1,,,639b9ab341f4429b1b3c06a2,643772d113ac0d3abc9086b1,2023-04-12_21h19.33.324,PRaM,2021.2.3,Win32,59.91252771,61b8f3437b89212fae0dfade
3,2.6692,space,1.0299,0,333,333,238,1,,,639b9ab341f4429b1b3c06a2,643772d113ac0d3abc9086b1,2023-04-12_21h19.33.324,PRaM,2021.2.3,Win32,59.91252771,61b8f3437b89212fae0dfade
2,0.7171,space,0.0833,0,334,334,265,1,,,639b9ab341f4429b1b3c06a2,643772d113ac0d3abc9086b1,2023-04-12_21h19.33.324,PRaM,2021.2.3,Win32,59.91252771,61b8f3437b89212fae0dfade
3,0.8737,space,0.1205,0,335,335,190,1,,,639b9ab341f4429b1b3c06a2,643772d113ac0d3abc9086b1,2023-04-12_21h19.33.324,PRaM,2021.2.3,Win32,59.91252771,61b8f3437b89212fae0dfade
2,0.8403,space,0.0844,0,336,336,149,1,,,639b9ab341f4429b1b3c06a2,643772d113ac0d3abc9086b1,2023-04-12_21h19.33.324,PRaM,2021.2.3,Win32,59.91252771,61b8f3437b89212fae0dfade
3,1.7426,space,0.063,0,337,337,349,1,,,639b9ab341f4429b1b3c06a2,643772d113ac0d3abc9086b1,2023-04-12_21h19.33.324,PRaM,2021.2.3,Win32,59.91252771,61b8f3437b89212fae0dfade
3,2.5415,space,0.816,0,338,338,308,1,,,639b9ab341f4429b1b3c06a2,643772d113ac0d3abc9086b1,2023-04-12_21h19.33.324,PRaM,2021.2.3,Win32,59.91252771,61b8f3437b89212fae0dfade
2,1.4862,space,0.376,0,339,339,275,1,,,639b9ab341f4429b1b3c06a2,643772d113ac0d3abc9086b1,2023-04-12_21h19.33.324,PRaM,2021.2.3,Win32,59.91252771,61b8f3437b89212fae0dfade
2,1.1907,space,0.0007,0,340,340,286,1,,,639b9ab341f4429b1b3c06a2,643772d113ac0d3abc9086b1,2023-04-12_21h19.33.324,PRaM,2021.2.3,Win32,59.91252771,61b8f3437b89212fae0dfade
2,2.2626,space,0.6233,0,341,341,358,1,,,639b9ab341f4429b1b3c06a2,643772d113ac0d3abc9086b1,2023-04-12_21h19.33.324,PRaM,2021.2.3,Win32,59.91252771,61b8f3437b89212fae0dfade
2,2.0622,space,0.3348,0,342,342,249,1,,,639b9ab341f4429b1b3c06a2,643772d113ac0d3abc9086b1,2023-04-12_21h19.33.324,PRaM,2021.2.3,Win32,59.91252771,61b8f3437b89212fae0dfade
1,1.0072,space,0.0005,0,343,343,31,1,,,639b9ab341f4429b1b3c06a2,643772d113ac0d3abc9086b1,2023-04-12_21h19.33.324,PRaM,2021.2.3,Win32,59.91252771,61b8f3437b89212fae0dfade
3,2.315,space,0.6593,0,344,344,62,1,,,639b9ab341f4429b1b3c06a2,643772d113ac0d3abc9086b1,2023-04-12_21h19.33.324,PRaM,2021.2.3,Win32,59.91252771,61b8f3437b89212fae0dfade
3,2.5493,space,0.9188,0,345,345,13,1,,,639b9ab341f4429b1b3c06a2,643772d113ac0d3abc9086b1,2023-04-12_21h19.33.324,PRaM,2021.2.3,Win32,59.91252771,61b8f3437b89212fae0dfade
2,0.7084,space,0.6798,0,346,346,277,1,,,639b9ab341f4429b1b3c06a2,643772d113ac0d3abc9086b1,2023-04-12_21h19.33.324,PRaM,2021.2.3,Win32,59.91252771,61b8f3437b89212fae0dfade
3,1.6408,space,0.2227,0,347,347,181,1,,,639b9ab341f4429b1b3c06a2,643772d113ac0d3abc9086b1,2023-04-12_21h19.33.324,PRaM,2021.2.3,Win32,59.91252771,61b8f3437b89212fae0dfade
3,1.4752,space,0.2751,0,348,348,315,1,,,639b9ab341f4429b1b3c06a2,643772d113ac0d3abc9086b1,2023-04-12_21h19.33.324,PRaM,2021.2.3,Win32,59.91252771,61b8f3437b89212fae0dfade
3,0.9578,space,0.0219,0,349,349,295,1,,,639b9ab341f4429b1b3c06a2,643772d113ac0d3abc9086b1,2023-04-12_21h19.33.324,PRaM,2021.2.3,Win32,59.91252771,61b8f3437b89212fae0dfade
2,1.4824,space,0.2175,0,350,350,61,1,,,639b9ab341f4429b1b3c06a2,643772d113ac0d3abc9086b1,2023-04-12_21h19.33.324,PRaM,2021.2.3,Win32,59.91252771,61b8f3437b89212fae0dfade
3,1.5982,space,0.3343,0,351,351,210,1,,,639b9ab341f4429b1b3c06a2,643772d113ac0d3abc9086b1,2023-04-12_21h19.33.324,PRaM,2021.2.3,Win32,59.91252771,61b8f3437b89212fae0dfade
2,1.0226,space,0.5535,0,352,352,345,1,,,639b9ab341f4429b1b3c06a2,643772d113ac0d3abc9086b1,2023-04-12_21h19.33.324,PRaM,2021.2.3,Win32,59.91252771,61b8f3437b89212fae0dfade
4,3.2934,space,1.6215,0,353,353,325,1,,,639b9ab341f4429b1b3c06a2,643772d113ac0d3abc9086b1,2023-04-12_21h19.33.324,PRaM,2021.2.3,Win32,59.91252771,61b8f3437b89212fae0dfade
3,3.0521,space,1.5355,0,354,354,211,1,,,639b9ab341f4429b1b3c06a2,643772d113ac0d3abc9086b1,2023-04-12_21h19.33.324,PRaM,2021.2.3,Win32,59.91252771,61b8f3437b89212fae0dfade
3,2.6599,space,1.0178,0,355,355,15,1,,,639b9ab341f4429b1b3c06a2,643772d113ac0d3abc9086b1,2023-04-12_21h19.33.324,PRaM,2021.2.3,Win32,59.91252771,61b8f3437b89212fae0dfade
3,2.2184,space,0.6644,0,356,356,136,1,,,639b9ab341f4429b1b3c06a2,643772d113ac0d3abc9086b1,2023-04-12_21h19.33.324,PRaM,2021.2.3,Win32,59.91252771,61b8f3437b89212fae0dfade
3,1.1067,space,0.251,0,357,357,241,1,,,639b9ab341f4429b1b3c06a2,643772d113ac0d3abc9086b1,2023-04-12_21h19.33.324,PRaM,2021.2.3,Win32,59.91252771,61b8f3437b89212fae0dfade
2,0.8901,space,0.0533,0,358,358,2,1,,,639b9ab341f4429b1b3c06a2,643772d113ac0d3abc9086b1,2023-04-12_21h19.33.324,PRaM,2021.2.3,Win32,59.91252771,61b8f3437b89212fae0dfade
3,0.8568,space,0.4035,0,359,359,122,1,,,639b9ab341f4429b1b3c06a2,643772d113ac0d3abc9086b1,2023-04-12_21h19.33.324,PRaM,2021.2.3,Win32,59.91252771,61b8f3437b89212fae0dfade
3,2.4228,space,0.7839,0,360,360,327,1,,,639b9ab341f4429b1b3c06a2,643772d113ac0d3abc9086b1,2023-04-12_21h19.33.324,PRaM,2021.2.3,Win32,59.91252771,61b8f3437b89212fae0dfade
4,0.7836,space,0.2048,0,361,361,175,1,,,639b9ab341f4429b1b3c06a2,643772d113ac0d3abc9086b1,2023-04-12_21h19.33.324,PRaM,2021.2.3,Win32,59.91252771,61b8f3437b89212fae0dfade
3,0.7403,space,0.1575,0,362,362,318,1,,,639b9ab341f4429b1b3c06a2,643772d113ac0d3abc9086b1,2023-04-12_21h19.33.324,PRaM,2021.2.3,Win32,59.91252771,61b8f3437b89212fae0dfade
6,2.3323,space,0.8341,0,363,363,109,1,,,639b9ab341f4429b1b3c06a2,643772d113ac0d3abc9086b1,2023-04-12_21h19.33.324,PRaM,2021.2.3,Win32,59.91252771,61b8f3437b89212fae0dfade
4,0.7842,space,0.1629,0,364,364,113,1,,,639b9ab341f4429b1b3c06a2,643772d113ac0d3abc9086b1,2023-04-12_21h19.33.324,PRaM,2021.2.3,Win32,59.91252771,61b8f3437b89212fae0dfade
2,2.6024,space,0.9346,0,365,365,236,1,,,639b9ab341f4429b1b3c06a2,643772d113ac0d3abc9086b1,2023-04-12_21h19.33.324,PRaM,2021.2.3,Win32,59.91252771,61b8f3437b89212fae0dfade
3,0.9344,space,0.3101,0,366,366,70,1,,,639b9ab341f4429b1b3c06a2,643772d113ac0d3abc9086b1,2023-04-12_21h19.33.324,PRaM,2021.2.3,Win32,59.91252771,61b8f3437b89212fae0dfade
4,0.7074,space,0.2388,0,367,367,312,1,,,639b9ab341f4429b1b3c06a2,643772d113ac0d3abc9086b1,2023-04-12_21h19.33.324,PRaM,2021.2.3,Win32,59.91252771,61b8f3437b89212fae0dfade
5,0.7908,space,0.134,0,368,368,119,1,,,639b9ab341f4429b1b3c06a2,643772d113ac0d3abc9086b1,2023-04-12_21h19.33.324,PRaM,2021.2.3,Win32,59.91252771,61b8f3437b89212fae0dfade
5,1.0759,space,0.0317,0,369,369,140,1,,,639b9ab341f4429b1b3c06a2,643772d113ac0d3abc9086b1,2023-04-12_21h19.33.324,PRaM,2021.2.3,Win32,59.91252771,61b8f3437b89212fae0dfade
3,2.1915,space,0.5017,0,370,370,14,1,,,639b9ab341f4429b1b3c06a2,643772d113ac0d3abc9086b1,2023-04-12_21h19.33.324,PRaM,2021.2.3,Win32,59.91252771,61b8f3437b89212fae0dfade
2,1.374,space,0.1669,0,371,371,214,1,,,639b9ab341f4429b1b3c06a2,643772d113ac0d3abc9086b1,2023-04-12_21h19.33.324,PRaM,2021.2.3,Win32,59.91252771,61b8f3437b89212fae0dfade
4,1.6704,space,0.1007,0,372,372,285,1,,,639b9ab341f4429b1b3c06a2,643772d113ac0d3abc9086b1,2023-04-12_21h19.33.324,PRaM,2021.2.3,Win32,59.91252771,61b8f3437b89212fae0dfade
3,0.8574,space,0.0495,0,373,373,305,1,,,639b9ab341f4429b1b3c06a2,643772d113ac0d3abc9086b1,2023-04-12_21h19.33.324,PRaM,2021.2.3,Win32,59.91252771,61b8f3437b89212fae0dfade
4,2.1751,space,0.4208,0,374,374,112,1,,,639b9ab341f4429b1b3c06a2,643772d113ac0d3abc9086b1,2023-04-12_21h19.33.324,PRaM,2021.2.3,Win32,59.91252771,61b8f3437b89212fae0dfade
2,1.1574,space,0.0382,0,375,375,350,1,,,639b9ab341f4429b1b3c06a2,643772d113ac0d3abc9086b1,2023-04-12_21h19.33.324,PRaM,2021.2.3,Win32,59.91252771,61b8f3437b89212fae0dfade
3,0.9419,space,0.1461,0,376,376,92,1,,,639b9ab341f4429b1b3c06a2,643772d113ac0d3abc9086b1,2023-04-12_21h19.33.324,PRaM,2021.2.3,Win32,59.91252771,61b8f3437b89212fae0dfade
3,2.6581,space,1.0694,0,377,377,28,1,,,639b9ab341f4429b1b3c06a2,643772d113ac0d3abc9086b1,2023-04-12_21h19.33.324,PRaM,2021.2.3,Win32,59.91252771,61b8f3437b89212fae0dfade
