Rating.response,Rating.rt,EndTrial.keys,EndTrial.rt,trials.thisRepN,trials.thisTrialN,trials.thisN,trials.thisIndex,trials.ran,Pos1,Pos2,participant,session,date,expName,psychopyVersion,OS,frameRate,study_id
2,10.328,space,9.6752,0,0,0,6,1,,,63b80a8b220f924d975670bc,64391f817045fb37d001ec58,2023-04-14_10h43.54.796,PRaM,2021.2.3,Win32,61.85056903,61b8f3437b89212fae0dfadf
2,3.8955,space,2.2558,0,1,1,121,1,,,63b80a8b220f924d975670bc,64391f817045fb37d001ec58,2023-04-14_10h43.54.796,PRaM,2021.2.3,Win32,61.85056903,61b8f3437b89212fae0dfadf
1,3.2497,space,1.6901,0,2,2,35,1,,,63b80a8b220f924d975670bc,64391f817045fb37d001ec58,2023-04-14_10h43.54.796,PRaM,2021.2.3,Win32,61.85056903,61b8f3437b89212fae0dfadf
1,2.6354,space,1.0007,0,3,3,266,1,,,63b80a8b220f924d975670bc,64391f817045fb37d001ec58,2023-04-14_10h43.54.796,PRaM,2021.2.3,Win32,61.85056903,61b8f3437b89212fae0dfadf
4,3.1773,space,1.5918,0,4,4,30,1,,,63b80a8b220f924d975670bc,64391f817045fb37d001ec58,2023-04-14_10h43.54.796,PRaM,2021.2.3,Win32,61.85056903,61b8f3437b89212fae0dfadf
8,3.227,space,1.5929,0,5,5,276,1,,,63b80a8b220f924d975670bc,64391f817045fb37d001ec58,2023-04-14_10h43.54.796,PRaM,2021.2.3,Win32,61.85056903,61b8f3437b89212fae0dfadf
5,3.8392,space,2.1776,0,6,6,332,1,,,63b80a8b220f924d975670bc,64391f817045fb37d001ec58,2023-04-14_10h43.54.796,PRaM,2021.2.3,Win32,61.85056903,61b8f3437b89212fae0dfadf
3,3.0644,space,1.253,0,7,7,95,1,,,63b80a8b220f924d975670bc,64391f817045fb37d001ec58,2023-04-14_10h43.54.796,PRaM,2021.2.3,Win32,61.85056903,61b8f3437b89212fae0dfadf
6,2.892,space,1.2644,0,8,8,51,1,,,63b80a8b220f924d975670bc,64391f817045fb37d001ec58,2023-04-14_10h43.54.796,PRaM,2021.2.3,Win32,61.85056903,61b8f3437b89212fae0dfadf
8,3.5605,space,2.0009,0,9,9,279,1,,,63b80a8b220f924d975670bc,64391f817045fb37d001ec58,2023-04-14_10h43.54.796,PRaM,2021.2.3,Win32,61.85056903,61b8f3437b89212fae0dfadf
4,4.0374,space,2.3934,0,10,10,253,1,,,63b80a8b220f924d975670bc,64391f817045fb37d001ec58,2023-04-14_10h43.54.796,PRaM,2021.2.3,Win32,61.85056903,61b8f3437b89212fae0dfadf
5,5.5824,space,3.935,0,11,11,341,1,,,63b80a8b220f924d975670bc,64391f817045fb37d001ec58,2023-04-14_10h43.54.796,PRaM,2021.2.3,Win32,61.85056903,61b8f3437b89212fae0dfadf
3,3.3332,space,1.6673,0,12,12,133,1,,,63b80a8b220f924d975670bc,64391f817045fb37d001ec58,2023-04-14_10h43.54.796,PRaM,2021.2.3,Win32,61.85056903,61b8f3437b89212fae0dfadf
4,4.6613,space,3.0253,0,13,13,184,1,,,63b80a8b220f924d975670bc,64391f817045fb37d001ec58,2023-04-14_10h43.54.796,PRaM,2021.2.3,Win32,61.85056903,61b8f3437b89212fae0dfadf
1,2.7434,space,1.1506,0,14,14,330,1,,,63b80a8b220f924d975670bc,64391f817045fb37d001ec58,2023-04-14_10h43.54.796,PRaM,2021.2.3,Win32,61.85056903,61b8f3437b89212fae0dfadf
2,3.8934,space,2.8744,0,15,15,315,1,,,63b80a8b220f924d975670bc,64391f817045fb37d001ec58,2023-04-14_10h43.54.796,PRaM,2021.2.3,Win32,61.85056903,61b8f3437b89212fae0dfadf
6,6.6886,space,5.0993,0,16,16,288,1,,,63b80a8b220f924d975670bc,64391f817045fb37d001ec58,2023-04-14_10h43.54.796,PRaM,2021.2.3,Win32,61.85056903,61b8f3437b89212fae0dfadf
7,3.3491,space,1.7795,0,17,17,61,1,,,63b80a8b220f924d975670bc,64391f817045fb37d001ec58,2023-04-14_10h43.54.796,PRaM,2021.2.3,Win32,61.85056903,61b8f3437b89212fae0dfadf
3,3.5922,space,1.9265,0,18,18,268,1,,,63b80a8b220f924d975670bc,64391f817045fb37d001ec58,2023-04-14_10h43.54.796,PRaM,2021.2.3,Win32,61.85056903,61b8f3437b89212fae0dfadf
2,3.2915,space,2.1675,0,19,19,65,1,,,63b80a8b220f924d975670bc,64391f817045fb37d001ec58,2023-04-14_10h43.54.796,PRaM,2021.2.3,Win32,61.85056903,61b8f3437b89212fae0dfadf
2,3.0239,space,1.2352,0,20,20,195,1,,,63b80a8b220f924d975670bc,64391f817045fb37d001ec58,2023-04-14_10h43.54.796,PRaM,2021.2.3,Win32,61.85056903,61b8f3437b89212fae0dfadf
4,3.4164,space,1.7961,0,21,21,69,1,,,63b80a8b220f924d975670bc,64391f817045fb37d001ec58,2023-04-14_10h43.54.796,PRaM,2021.2.3,Win32,61.85056903,61b8f3437b89212fae0dfadf
3,4.8423,space,3.1104,0,22,22,161,1,,,63b80a8b220f924d975670bc,64391f817045fb37d001ec58,2023-04-14_10h43.54.796,PRaM,2021.2.3,Win32,61.85056903,61b8f3437b89212fae0dfadf
7,3.9806,space,2.3476,0,23,23,105,1,,,63b80a8b220f924d975670bc,64391f817045fb37d001ec58,2023-04-14_10h43.54.796,PRaM,2021.2.3,Win32,61.85056903,61b8f3437b89212fae0dfadf
3,3.648,space,1.9954,0,24,24,342,1,,,63b80a8b220f924d975670bc,64391f817045fb37d001ec58,2023-04-14_10h43.54.796,PRaM,2021.2.3,Win32,61.85056903,61b8f3437b89212fae0dfadf
5,4.5114,space,2.8433,0,25,25,297,1,,,63b80a8b220f924d975670bc,64391f817045fb37d001ec58,2023-04-14_10h43.54.796,PRaM,2021.2.3,Win32,61.85056903,61b8f3437b89212fae0dfadf
6,4.0512,space,3.7203,0,26,26,242,1,,,63b80a8b220f924d975670bc,64391f817045fb37d001ec58,2023-04-14_10h43.54.796,PRaM,2021.2.3,Win32,61.85056903,61b8f3437b89212fae0dfadf
8,2.7187,space,1.0649,0,27,27,264,1,,,63b80a8b220f924d975670bc,64391f817045fb37d001ec58,2023-04-14_10h43.54.796,PRaM,2021.2.3,Win32,61.85056903,61b8f3437b89212fae0dfadf
6,3.2555,space,1.631,0,28,28,46,1,,,63b80a8b220f924d975670bc,64391f817045fb37d001ec58,2023-04-14_10h43.54.796,PRaM,2021.2.3,Win32,61.85056903,61b8f3437b89212fae0dfadf
2,3.5471,space,1.9328,0,29,29,41,1,,,63b80a8b220f924d975670bc,64391f817045fb37d001ec58,2023-04-14_10h43.54.796,PRaM,2021.2.3,Win32,61.85056903,61b8f3437b89212fae0dfadf
2,5.5376,space,4.0852,0,30,30,252,1,,,63b80a8b220f924d975670bc,64391f817045fb37d001ec58,2023-04-14_10h43.54.796,PRaM,2021.2.3,Win32,61.85056903,61b8f3437b89212fae0dfadf
1,6.9013,space,5.2964,0,31,31,68,1,,,63b80a8b220f924d975670bc,64391f817045fb37d001ec58,2023-04-14_10h43.54.796,PRaM,2021.2.3,Win32,61.85056903,61b8f3437b89212fae0dfadf
2,3.8961,space,2.5743,0,32,32,49,1,,,63b80a8b220f924d975670bc,64391f817045fb37d001ec58,2023-04-14_10h43.54.796,PRaM,2021.2.3,Win32,61.85056903,61b8f3437b89212fae0dfadf
7,2.4275,space,0.7948,0,33,33,102,1,,,63b80a8b220f924d975670bc,64391f817045fb37d001ec58,2023-04-14_10h43.54.796,PRaM,2021.2.3,Win32,61.85056903,61b8f3437b89212fae0dfadf
5,6.0871,space,4.4157,0,34,34,361,1,,,63b80a8b220f924d975670bc,64391f817045fb37d001ec58,2023-04-14_10h43.54.796,PRaM,2021.2.3,Win32,61.85056903,61b8f3437b89212fae0dfadf
1,2.7827,space,1.1123,0,35,35,284,1,,,63b80a8b220f924d975670bc,64391f817045fb37d001ec58,2023-04-14_10h43.54.796,PRaM,2021.2.3,Win32,61.85056903,61b8f3437b89212fae0dfadf
6,4.8078,space,3.1854,0,36,36,226,1,,,63b80a8b220f924d975670bc,64391f817045fb37d001ec58,2023-04-14_10h43.54.796,PRaM,2021.2.3,Win32,61.85056903,61b8f3437b89212fae0dfadf
4,6.0483,space,4.3976,0,37,37,257,1,,,63b80a8b220f924d975670bc,64391f817045fb37d001ec58,2023-04-14_10h43.54.796,PRaM,2021.2.3,Win32,61.85056903,61b8f3437b89212fae0dfadf
3,6.1822,space,4.5435,0,38,38,295,1,,,63b80a8b220f924d975670bc,64391f817045fb37d001ec58,2023-04-14_10h43.54.796,PRaM,2021.2.3,Win32,61.85056903,61b8f3437b89212fae0dfadf
3,3.8861,space,2.1859,0,39,39,191,1,,,63b80a8b220f924d975670bc,64391f817045fb37d001ec58,2023-04-14_10h43.54.796,PRaM,2021.2.3,Win32,61.85056903,61b8f3437b89212fae0dfadf
7,2.6981,space,1.0643,0,40,40,310,1,,,63b80a8b220f924d975670bc,64391f817045fb37d001ec58,2023-04-14_10h43.54.796,PRaM,2021.2.3,Win32,61.85056903,61b8f3437b89212fae0dfadf
8,3.362,space,1.9204,0,41,41,186,1,,,63b80a8b220f924d975670bc,64391f817045fb37d001ec58,2023-04-14_10h43.54.796,PRaM,2021.2.3,Win32,61.85056903,61b8f3437b89212fae0dfadf
5,4.9424,space,3.2753,0,42,42,311,1,,,63b80a8b220f924d975670bc,64391f817045fb37d001ec58,2023-04-14_10h43.54.796,PRaM,2021.2.3,Win32,61.85056903,61b8f3437b89212fae0dfadf
5,2.5111,space,0.8495,0,43,43,12,1,,,63b80a8b220f924d975670bc,64391f817045fb37d001ec58,2023-04-14_10h43.54.796,PRaM,2021.2.3,Win32,61.85056903,61b8f3437b89212fae0dfadf
3,2.6234,space,1.1668,0,44,44,343,1,,,63b80a8b220f924d975670bc,64391f817045fb37d001ec58,2023-04-14_10h43.54.796,PRaM,2021.2.3,Win32,61.85056903,61b8f3437b89212fae0dfadf
2,2.6567,space,0.9726,0,45,45,70,1,,,63b80a8b220f924d975670bc,64391f817045fb37d001ec58,2023-04-14_10h43.54.796,PRaM,2021.2.3,Win32,61.85056903,61b8f3437b89212fae0dfadf
7,4.3502,space,2.7508,0,46,46,197,1,,,63b80a8b220f924d975670bc,64391f817045fb37d001ec58,2023-04-14_10h43.54.796,PRaM,2021.2.3,Win32,61.85056903,61b8f3437b89212fae0dfadf
7,4.7345,space,3.1122,0,47,47,164,1,,,63b80a8b220f924d975670bc,64391f817045fb37d001ec58,2023-04-14_10h43.54.796,PRaM,2021.2.3,Win32,61.85056903,61b8f3437b89212fae0dfadf
5,3.4262,space,1.8278,0,48,48,357,1,,,63b80a8b220f924d975670bc,64391f817045fb37d001ec58,2023-04-14_10h43.54.796,PRaM,2021.2.3,Win32,61.85056903,61b8f3437b89212fae0dfadf
3,3.2413,space,1.6167,0,49,49,193,1,,,63b80a8b220f924d975670bc,64391f817045fb37d001ec58,2023-04-14_10h43.54.796,PRaM,2021.2.3,Win32,61.85056903,61b8f3437b89212fae0dfadf
7,4.0003,space,2.3562,0,50,50,165,1,,,63b80a8b220f924d975670bc,64391f817045fb37d001ec58,2023-04-14_10h43.54.796,PRaM,2021.2.3,Win32,61.85056903,61b8f3437b89212fae0dfadf
5,4.2969,space,2.663,0,51,51,77,1,,,63b80a8b220f924d975670bc,64391f817045fb37d001ec58,2023-04-14_10h43.54.796,PRaM,2021.2.3,Win32,61.85056903,61b8f3437b89212fae0dfadf
7,2.6284,space,0.9696,0,52,52,355,1,,,63b80a8b220f924d975670bc,64391f817045fb37d001ec58,2023-04-14_10h43.54.796,PRaM,2021.2.3,Win32,61.85056903,61b8f3437b89212fae0dfadf
3,8.4528,space,6.8402,0,53,53,44,1,,,63b80a8b220f924d975670bc,64391f817045fb37d001ec58,2023-04-14_10h43.54.796,PRaM,2021.2.3,Win32,61.85056903,61b8f3437b89212fae0dfadf
8,3.5458,space,1.8855,0,54,54,372,1,,,63b80a8b220f924d975670bc,64391f817045fb37d001ec58,2023-04-14_10h43.54.796,PRaM,2021.2.3,Win32,61.85056903,61b8f3437b89212fae0dfadf
2,2.744,space,1.1119,0,55,55,210,1,,,63b80a8b220f924d975670bc,64391f817045fb37d001ec58,2023-04-14_10h43.54.796,PRaM,2021.2.3,Win32,61.85056903,61b8f3437b89212fae0dfadf
3,5.2093,space,3.56,0,56,56,183,1,,,63b80a8b220f924d975670bc,64391f817045fb37d001ec58,2023-04-14_10h43.54.796,PRaM,2021.2.3,Win32,61.85056903,61b8f3437b89212fae0dfadf
3,5.3233,space,3.9808,0,57,57,172,1,,,63b80a8b220f924d975670bc,64391f817045fb37d001ec58,2023-04-14_10h43.54.796,PRaM,2021.2.3,Win32,61.85056903,61b8f3437b89212fae0dfadf
6,3.3815,space,1.7256,0,58,58,259,1,,,63b80a8b220f924d975670bc,64391f817045fb37d001ec58,2023-04-14_10h43.54.796,PRaM,2021.2.3,Win32,61.85056903,61b8f3437b89212fae0dfadf
3,7.84,space,6.4014,0,59,59,39,1,,,63b80a8b220f924d975670bc,64391f817045fb37d001ec58,2023-04-14_10h43.54.796,PRaM,2021.2.3,Win32,61.85056903,61b8f3437b89212fae0dfadf
5,5.124,space,3.4855,0,60,60,162,1,,,63b80a8b220f924d975670bc,64391f817045fb37d001ec58,2023-04-14_10h43.54.796,PRaM,2021.2.3,Win32,61.85056903,61b8f3437b89212fae0dfadf
4,5.9821,space,4.3483,0,61,61,296,1,,,63b80a8b220f924d975670bc,64391f817045fb37d001ec58,2023-04-14_10h43.54.796,PRaM,2021.2.3,Win32,61.85056903,61b8f3437b89212fae0dfadf
3,3.2656,space,1.6771,0,62,62,34,1,,,63b80a8b220f924d975670bc,64391f817045fb37d001ec58,2023-04-14_10h43.54.796,PRaM,2021.2.3,Win32,61.85056903,61b8f3437b89212fae0dfadf
6,2.8287,space,1.1612,0,63,63,25,1,,,63b80a8b220f924d975670bc,64391f817045fb37d001ec58,2023-04-14_10h43.54.796,PRaM,2021.2.3,Win32,61.85056903,61b8f3437b89212fae0dfadf
8,2.5544,space,0.9044,0,64,64,117,1,,,63b80a8b220f924d975670bc,64391f817045fb37d001ec58,2023-04-14_10h43.54.796,PRaM,2021.2.3,Win32,61.85056903,61b8f3437b89212fae0dfadf
5,3.0822,space,1.4315,0,65,65,313,1,,,63b80a8b220f924d975670bc,64391f817045fb37d001ec58,2023-04-14_10h43.54.796,PRaM,2021.2.3,Win32,61.85056903,61b8f3437b89212fae0dfadf
7,3.4527,space,1.8289,0,66,66,348,1,,,63b80a8b220f924d975670bc,64391f817045fb37d001ec58,2023-04-14_10h43.54.796,PRaM,2021.2.3,Win32,61.85056903,61b8f3437b89212fae0dfadf
7,2.204,space,0.5932,0,67,67,21,1,,,63b80a8b220f924d975670bc,64391f817045fb37d001ec58,2023-04-14_10h43.54.796,PRaM,2021.2.3,Win32,61.85056903,61b8f3437b89212fae0dfadf
5,3.0091,space,1.3707,0,68,68,11,1,,,63b80a8b220f924d975670bc,64391f817045fb37d001ec58,2023-04-14_10h43.54.796,PRaM,2021.2.3,Win32,61.85056903,61b8f3437b89212fae0dfadf
3,5.6034,space,4.0011,0,69,69,73,1,,,63b80a8b220f924d975670bc,64391f817045fb37d001ec58,2023-04-14_10h43.54.796,PRaM,2021.2.3,Win32,61.85056903,61b8f3437b89212fae0dfadf
7,2.789,space,1.1357,0,70,70,302,1,,,63b80a8b220f924d975670bc,64391f817045fb37d001ec58,2023-04-14_10h43.54.796,PRaM,2021.2.3,Win32,61.85056903,61b8f3437b89212fae0dfadf
2,4.2094,space,2.5878,0,71,71,235,1,,,63b80a8b220f924d975670bc,64391f817045fb37d001ec58,2023-04-14_10h43.54.796,PRaM,2021.2.3,Win32,61.85056903,61b8f3437b89212fae0dfadf
7,2.927,space,1.2505,0,72,72,345,1,,,63b80a8b220f924d975670bc,64391f817045fb37d001ec58,2023-04-14_10h43.54.796,PRaM,2021.2.3,Win32,61.85056903,61b8f3437b89212fae0dfadf
7,2.906,space,1.2453,0,73,73,228,1,,,63b80a8b220f924d975670bc,64391f817045fb37d001ec58,2023-04-14_10h43.54.796,PRaM,2021.2.3,Win32,61.85056903,61b8f3437b89212fae0dfadf
8,4.1177,space,2.5306,0,74,74,137,1,,,63b80a8b220f924d975670bc,64391f817045fb37d001ec58,2023-04-14_10h43.54.796,PRaM,2021.2.3,Win32,61.85056903,61b8f3437b89212fae0dfadf
8,2.082,space,0.4857,0,75,75,115,1,,,63b80a8b220f924d975670bc,64391f817045fb37d001ec58,2023-04-14_10h43.54.796,PRaM,2021.2.3,Win32,61.85056903,61b8f3437b89212fae0dfadf
5,3.0202,space,1.4048,0,76,76,108,1,,,63b80a8b220f924d975670bc,64391f817045fb37d001ec58,2023-04-14_10h43.54.796,PRaM,2021.2.3,Win32,61.85056903,61b8f3437b89212fae0dfadf
7,2.5484,space,0.9502,0,77,77,301,1,,,63b80a8b220f924d975670bc,64391f817045fb37d001ec58,2023-04-14_10h43.54.796,PRaM,2021.2.3,Win32,61.85056903,61b8f3437b89212fae0dfadf
6,4.7812,space,3.0912,0,78,78,182,1,,,63b80a8b220f924d975670bc,64391f817045fb37d001ec58,2023-04-14_10h43.54.796,PRaM,2021.2.3,Win32,61.85056903,61b8f3437b89212fae0dfadf
3,2.8881,space,1.1797,0,79,79,213,1,,,63b80a8b220f924d975670bc,64391f817045fb37d001ec58,2023-04-14_10h43.54.796,PRaM,2021.2.3,Win32,61.85056903,61b8f3437b89212fae0dfadf
8,3.2361,space,1.5787,0,80,80,60,1,,,63b80a8b220f924d975670bc,64391f817045fb37d001ec58,2023-04-14_10h43.54.796,PRaM,2021.2.3,Win32,61.85056903,61b8f3437b89212fae0dfadf
2,4.6303,space,4.0788,0,81,81,218,1,,,63b80a8b220f924d975670bc,64391f817045fb37d001ec58,2023-04-14_10h43.54.796,PRaM,2021.2.3,Win32,61.85056903,61b8f3437b89212fae0dfadf
3,4.6531,space,3.052,0,82,82,158,1,,,63b80a8b220f924d975670bc,64391f817045fb37d001ec58,2023-04-14_10h43.54.796,PRaM,2021.2.3,Win32,61.85056903,61b8f3437b89212fae0dfadf
5,2.8896,space,1.3116,0,83,83,52,1,,,63b80a8b220f924d975670bc,64391f817045fb37d001ec58,2023-04-14_10h43.54.796,PRaM,2021.2.3,Win32,61.85056903,61b8f3437b89212fae0dfadf
7,3.6464,space,2.0906,0,84,84,16,1,,,63b80a8b220f924d975670bc,64391f817045fb37d001ec58,2023-04-14_10h43.54.796,PRaM,2021.2.3,Win32,61.85056903,61b8f3437b89212fae0dfadf
5,3.8458,space,2.236,0,85,85,364,1,,,63b80a8b220f924d975670bc,64391f817045fb37d001ec58,2023-04-14_10h43.54.796,PRaM,2021.2.3,Win32,61.85056903,61b8f3437b89212fae0dfadf
5,1.9263,space,0.5635,0,86,86,231,1,,,63b80a8b220f924d975670bc,64391f817045fb37d001ec58,2023-04-14_10h43.54.796,PRaM,2021.2.3,Win32,61.85056903,61b8f3437b89212fae0dfadf
3,3.4696,space,1.8508,0,87,87,91,1,,,63b80a8b220f924d975670bc,64391f817045fb37d001ec58,2023-04-14_10h43.54.796,PRaM,2021.2.3,Win32,61.85056903,61b8f3437b89212fae0dfadf
6,4.108,space,2.4988,0,88,88,81,1,,,63b80a8b220f924d975670bc,64391f817045fb37d001ec58,2023-04-14_10h43.54.796,PRaM,2021.2.3,Win32,61.85056903,61b8f3437b89212fae0dfadf
3,3.8188,space,2.2421,0,89,89,324,1,,,63b80a8b220f924d975670bc,64391f817045fb37d001ec58,2023-04-14_10h43.54.796,PRaM,2021.2.3,Win32,61.85056903,61b8f3437b89212fae0dfadf
7,3.1366,space,1.5447,0,90,90,98,1,,,63b80a8b220f924d975670bc,64391f817045fb37d001ec58,2023-04-14_10h43.54.796,PRaM,2021.2.3,Win32,61.85056903,61b8f3437b89212fae0dfadf
7,1.4235,space,1.3624,0,91,91,93,1,,,63b80a8b220f924d975670bc,64391f817045fb37d001ec58,2023-04-14_10h43.54.796,PRaM,2021.2.3,Win32,61.85056903,61b8f3437b89212fae0dfadf
7,2.0268,space,0.4982,0,92,92,305,1,,,63b80a8b220f924d975670bc,64391f817045fb37d001ec58,2023-04-14_10h43.54.796,PRaM,2021.2.3,Win32,61.85056903,61b8f3437b89212fae0dfadf
1,5.1263,space,3.6887,0,93,93,217,1,,,63b80a8b220f924d975670bc,64391f817045fb37d001ec58,2023-04-14_10h43.54.796,PRaM,2021.2.3,Win32,61.85056903,61b8f3437b89212fae0dfadf
9,3.0144,space,1.3619,0,94,94,4,1,,,63b80a8b220f924d975670bc,64391f817045fb37d001ec58,2023-04-14_10h43.54.796,PRaM,2021.2.3,Win32,61.85056903,61b8f3437b89212fae0dfadf
1,3.1761,space,1.7662,0,95,95,223,1,,,63b80a8b220f924d975670bc,64391f817045fb37d001ec58,2023-04-14_10h43.54.796,PRaM,2021.2.3,Win32,61.85056903,61b8f3437b89212fae0dfadf
1,5.6056,space,4.0014,0,96,96,312,1,,,63b80a8b220f924d975670bc,64391f817045fb37d001ec58,2023-04-14_10h43.54.796,PRaM,2021.2.3,Win32,61.85056903,61b8f3437b89212fae0dfadf
1,1.9588,space,0.4458,0,97,97,163,1,,,63b80a8b220f924d975670bc,64391f817045fb37d001ec58,2023-04-14_10h43.54.796,PRaM,2021.2.3,Win32,61.85056903,61b8f3437b89212fae0dfadf
1,2.3736,space,1.0258,0,98,98,106,1,,,63b80a8b220f924d975670bc,64391f817045fb37d001ec58,2023-04-14_10h43.54.796,PRaM,2021.2.3,Win32,61.85056903,61b8f3437b89212fae0dfadf
8,2.6026,space,1.0262,0,99,99,139,1,,,63b80a8b220f924d975670bc,64391f817045fb37d001ec58,2023-04-14_10h43.54.796,PRaM,2021.2.3,Win32,61.85056903,61b8f3437b89212fae0dfadf
2,2.782,space,1.1776,0,100,100,125,1,,,63b80a8b220f924d975670bc,64391f817045fb37d001ec58,2023-04-14_10h43.54.796,PRaM,2021.2.3,Win32,61.85056903,61b8f3437b89212fae0dfadf
8,2.6553,space,1.0479,0,101,101,280,1,,,63b80a8b220f924d975670bc,64391f817045fb37d001ec58,2023-04-14_10h43.54.796,PRaM,2021.2.3,Win32,61.85056903,61b8f3437b89212fae0dfadf
3,3.9559,space,2.4023,0,102,102,169,1,,,63b80a8b220f924d975670bc,64391f817045fb37d001ec58,2023-04-14_10h43.54.796,PRaM,2021.2.3,Win32,61.85056903,61b8f3437b89212fae0dfadf
3,2.9502,space,147.1215,0,103,103,190,1,,,63b80a8b220f924d975670bc,64391f817045fb37d001ec58,2023-04-14_10h43.54.796,PRaM,2021.2.3,Win32,61.85056903,61b8f3437b89212fae0dfadf
2,3.0652,space,1.4971,0,104,104,50,1,,,63b80a8b220f924d975670bc,64391f817045fb37d001ec58,2023-04-14_10h43.54.796,PRaM,2021.2.3,Win32,61.85056903,61b8f3437b89212fae0dfadf
7,2.6388,space,1.0009,0,105,105,74,1,,,63b80a8b220f924d975670bc,64391f817045fb37d001ec58,2023-04-14_10h43.54.796,PRaM,2021.2.3,Win32,61.85056903,61b8f3437b89212fae0dfadf
8,3.0341,space,1.3858,0,106,106,366,1,,,63b80a8b220f924d975670bc,64391f817045fb37d001ec58,2023-04-14_10h43.54.796,PRaM,2021.2.3,Win32,61.85056903,61b8f3437b89212fae0dfadf
8,3.1068,space,1.4114,0,107,107,85,1,,,63b80a8b220f924d975670bc,64391f817045fb37d001ec58,2023-04-14_10h43.54.796,PRaM,2021.2.3,Win32,61.85056903,61b8f3437b89212fae0dfadf
5,2.8931,space,1.3115,0,108,108,353,1,,,63b80a8b220f924d975670bc,64391f817045fb37d001ec58,2023-04-14_10h43.54.796,PRaM,2021.2.3,Win32,61.85056903,61b8f3437b89212fae0dfadf
6,3.0418,space,1.3682,0,109,109,346,1,,,63b80a8b220f924d975670bc,64391f817045fb37d001ec58,2023-04-14_10h43.54.796,PRaM,2021.2.3,Win32,61.85056903,61b8f3437b89212fae0dfadf
7,2.612,space,0.9662,0,110,110,337,1,,,63b80a8b220f924d975670bc,64391f817045fb37d001ec58,2023-04-14_10h43.54.796,PRaM,2021.2.3,Win32,61.85056903,61b8f3437b89212fae0dfadf
7,3.8126,space,2.1635,0,111,111,90,1,,,63b80a8b220f924d975670bc,64391f817045fb37d001ec58,2023-04-14_10h43.54.796,PRaM,2021.2.3,Win32,61.85056903,61b8f3437b89212fae0dfadf
7,3.0141,space,1.4738,0,112,112,216,1,,,63b80a8b220f924d975670bc,64391f817045fb37d001ec58,2023-04-14_10h43.54.796,PRaM,2021.2.3,Win32,61.85056903,61b8f3437b89212fae0dfadf
4,3.4923,space,1.8256,0,113,113,333,1,,,63b80a8b220f924d975670bc,64391f817045fb37d001ec58,2023-04-14_10h43.54.796,PRaM,2021.2.3,Win32,61.85056903,61b8f3437b89212fae0dfadf
7,2.6593,space,1.0301,0,114,114,141,1,,,63b80a8b220f924d975670bc,64391f817045fb37d001ec58,2023-04-14_10h43.54.796,PRaM,2021.2.3,Win32,61.85056903,61b8f3437b89212fae0dfadf
8,4.2378,space,2.793,0,115,115,118,1,,,63b80a8b220f924d975670bc,64391f817045fb37d001ec58,2023-04-14_10h43.54.796,PRaM,2021.2.3,Win32,61.85056903,61b8f3437b89212fae0dfadf
2,5.4152,space,4.0975,0,116,116,78,1,,,63b80a8b220f924d975670bc,64391f817045fb37d001ec58,2023-04-14_10h43.54.796,PRaM,2021.2.3,Win32,61.85056903,61b8f3437b89212fae0dfadf
2,4.2809,space,2.638,0,117,117,113,1,,,63b80a8b220f924d975670bc,64391f817045fb37d001ec58,2023-04-14_10h43.54.796,PRaM,2021.2.3,Win32,61.85056903,61b8f3437b89212fae0dfadf
5,2.5345,space,0.9345,0,118,118,356,1,,,63b80a8b220f924d975670bc,64391f817045fb37d001ec58,2023-04-14_10h43.54.796,PRaM,2021.2.3,Win32,61.85056903,61b8f3437b89212fae0dfadf
8,2.5911,space,1.3687,0,119,119,7,1,,,63b80a8b220f924d975670bc,64391f817045fb37d001ec58,2023-04-14_10h43.54.796,PRaM,2021.2.3,Win32,61.85056903,61b8f3437b89212fae0dfadf
6,3.8773,space,2.2083,0,120,120,358,1,,,63b80a8b220f924d975670bc,64391f817045fb37d001ec58,2023-04-14_10h43.54.796,PRaM,2021.2.3,Win32,61.85056903,61b8f3437b89212fae0dfadf
8,93.8713,space,92.7455,0,121,121,20,1,,,63b80a8b220f924d975670bc,64391f817045fb37d001ec58,2023-04-14_10h43.54.796,PRaM,2021.2.3,Win32,61.85056903,61b8f3437b89212fae0dfadf
3,3.0999,space,1.4933,0,122,122,181,1,,,63b80a8b220f924d975670bc,64391f817045fb37d001ec58,2023-04-14_10h43.54.796,PRaM,2021.2.3,Win32,61.85056903,61b8f3437b89212fae0dfadf
8,2.8124,space,1.1782,0,123,123,239,1,,,63b80a8b220f924d975670bc,64391f817045fb37d001ec58,2023-04-14_10h43.54.796,PRaM,2021.2.3,Win32,61.85056903,61b8f3437b89212fae0dfadf
2,3.5235,space,1.8945,0,124,124,13,1,,,63b80a8b220f924d975670bc,64391f817045fb37d001ec58,2023-04-14_10h43.54.796,PRaM,2021.2.3,Win32,61.85056903,61b8f3437b89212fae0dfadf
2,6.5387,space,4.8807,0,125,125,220,1,,,63b80a8b220f924d975670bc,64391f817045fb37d001ec58,2023-04-14_10h43.54.796,PRaM,2021.2.3,Win32,61.85056903,61b8f3437b89212fae0dfadf
2,2.6852,space,1.0334,0,126,126,87,1,,,63b80a8b220f924d975670bc,64391f817045fb37d001ec58,2023-04-14_10h43.54.796,PRaM,2021.2.3,Win32,61.85056903,61b8f3437b89212fae0dfadf
5,3.4046,space,1.7949,0,127,127,271,1,,,63b80a8b220f924d975670bc,64391f817045fb37d001ec58,2023-04-14_10h43.54.796,PRaM,2021.2.3,Win32,61.85056903,61b8f3437b89212fae0dfadf
2,3.2254,space,1.6099,0,128,128,339,1,,,63b80a8b220f924d975670bc,64391f817045fb37d001ec58,2023-04-14_10h43.54.796,PRaM,2021.2.3,Win32,61.85056903,61b8f3437b89212fae0dfadf
3,2.8031,space,1.1624,0,129,129,321,1,,,63b80a8b220f924d975670bc,64391f817045fb37d001ec58,2023-04-14_10h43.54.796,PRaM,2021.2.3,Win32,61.85056903,61b8f3437b89212fae0dfadf
7,2.8666,space,1.1859,0,130,130,33,1,,,63b80a8b220f924d975670bc,64391f817045fb37d001ec58,2023-04-14_10h43.54.796,PRaM,2021.2.3,Win32,61.85056903,61b8f3437b89212fae0dfadf
3,2.6584,space,1.0331,0,131,131,128,1,,,63b80a8b220f924d975670bc,64391f817045fb37d001ec58,2023-04-14_10h43.54.796,PRaM,2021.2.3,Win32,61.85056903,61b8f3437b89212fae0dfadf
8,2.827,space,1.3454,0,132,132,304,1,,,63b80a8b220f924d975670bc,64391f817045fb37d001ec58,2023-04-14_10h43.54.796,PRaM,2021.2.3,Win32,61.85056903,61b8f3437b89212fae0dfadf
8,1.7564,space,0.166,0,133,133,119,1,,,63b80a8b220f924d975670bc,64391f817045fb37d001ec58,2023-04-14_10h43.54.796,PRaM,2021.2.3,Win32,61.85056903,61b8f3437b89212fae0dfadf
5,2.7821,space,1.1474,0,134,134,286,1,,,63b80a8b220f924d975670bc,64391f817045fb37d001ec58,2023-04-14_10h43.54.796,PRaM,2021.2.3,Win32,61.85056903,61b8f3437b89212fae0dfadf
5,2.0052,space,0.3744,0,135,135,206,1,,,63b80a8b220f924d975670bc,64391f817045fb37d001ec58,2023-04-14_10h43.54.796,PRaM,2021.2.3,Win32,61.85056903,61b8f3437b89212fae0dfadf
5,1.0397,space,0.0844,0,136,136,187,1,,,63b80a8b220f924d975670bc,64391f817045fb37d001ec58,2023-04-14_10h43.54.796,PRaM,2021.2.3,Win32,61.85056903,61b8f3437b89212fae0dfadf
8,4.6107,space,2.9899,0,137,137,66,1,,,63b80a8b220f924d975670bc,64391f817045fb37d001ec58,2023-04-14_10h43.54.796,PRaM,2021.2.3,Win32,61.85056903,61b8f3437b89212fae0dfadf
8,2.0434,space,0.4477,0,138,138,62,1,,,63b80a8b220f924d975670bc,64391f817045fb37d001ec58,2023-04-14_10h43.54.796,PRaM,2021.2.3,Win32,61.85056903,61b8f3437b89212fae0dfadf
7,3.9898,space,2.3296,0,139,139,269,1,,,63b80a8b220f924d975670bc,64391f817045fb37d001ec58,2023-04-14_10h43.54.796,PRaM,2021.2.3,Win32,61.85056903,61b8f3437b89212fae0dfadf
3,3.3533,space,1.9437,0,140,140,300,1,,,63b80a8b220f924d975670bc,64391f817045fb37d001ec58,2023-04-14_10h43.54.796,PRaM,2021.2.3,Win32,61.85056903,61b8f3437b89212fae0dfadf
6,3.6892,space,2.0181,0,141,141,88,1,,,63b80a8b220f924d975670bc,64391f817045fb37d001ec58,2023-04-14_10h43.54.796,PRaM,2021.2.3,Win32,61.85056903,61b8f3437b89212fae0dfadf
5,2.4583,space,0.7677,0,142,142,116,1,,,63b80a8b220f924d975670bc,64391f817045fb37d001ec58,2023-04-14_10h43.54.796,PRaM,2021.2.3,Win32,61.85056903,61b8f3437b89212fae0dfadf
8,2.3108,space,0.6229,0,143,143,196,1,,,63b80a8b220f924d975670bc,64391f817045fb37d001ec58,2023-04-14_10h43.54.796,PRaM,2021.2.3,Win32,61.85056903,61b8f3437b89212fae0dfadf
8,1.8939,space,0.2755,0,144,144,209,1,,,63b80a8b220f924d975670bc,64391f817045fb37d001ec58,2023-04-14_10h43.54.796,PRaM,2021.2.3,Win32,61.85056903,61b8f3437b89212fae0dfadf
8,1.5914,space,0.9451,0,145,145,80,1,,,63b80a8b220f924d975670bc,64391f817045fb37d001ec58,2023-04-14_10h43.54.796,PRaM,2021.2.3,Win32,61.85056903,61b8f3437b89212fae0dfadf
4,3.5744,space,1.9305,0,146,146,54,1,,,63b80a8b220f924d975670bc,64391f817045fb37d001ec58,2023-04-14_10h43.54.796,PRaM,2021.2.3,Win32,61.85056903,61b8f3437b89212fae0dfadf
6,4.156,space,2.5121,0,147,147,211,1,,,63b80a8b220f924d975670bc,64391f817045fb37d001ec58,2023-04-14_10h43.54.796,PRaM,2021.2.3,Win32,61.85056903,61b8f3437b89212fae0dfadf
3,3.2623,space,1.5946,0,148,148,71,1,,,63b80a8b220f924d975670bc,64391f817045fb37d001ec58,2023-04-14_10h43.54.796,PRaM,2021.2.3,Win32,61.85056903,61b8f3437b89212fae0dfadf
8,2.8971,space,2.2703,0,149,149,221,1,,,63b80a8b220f924d975670bc,64391f817045fb37d001ec58,2023-04-14_10h43.54.796,PRaM,2021.2.3,Win32,61.85056903,61b8f3437b89212fae0dfadf
5,2.9448,space,1.2983,0,150,150,170,1,,,63b80a8b220f924d975670bc,64391f817045fb37d001ec58,2023-04-14_10h43.54.796,PRaM,2021.2.3,Win32,61.85056903,61b8f3437b89212fae0dfadf
3,3.695,space,2.0797,0,151,151,262,1,,,63b80a8b220f924d975670bc,64391f817045fb37d001ec58,2023-04-14_10h43.54.796,PRaM,2021.2.3,Win32,61.85056903,61b8f3437b89212fae0dfadf
4,2.7087,space,1.7919,0,152,152,185,1,,,63b80a8b220f924d975670bc,64391f817045fb37d001ec58,2023-04-14_10h43.54.796,PRaM,2021.2.3,Win32,61.85056903,61b8f3437b89212fae0dfadf
3,2.5406,space,0.8885,0,153,153,5,1,,,63b80a8b220f924d975670bc,64391f817045fb37d001ec58,2023-04-14_10h43.54.796,PRaM,2021.2.3,Win32,61.85056903,61b8f3437b89212fae0dfadf
6,2.591,space,0.9983,0,154,154,173,1,,,63b80a8b220f924d975670bc,64391f817045fb37d001ec58,2023-04-14_10h43.54.796,PRaM,2021.2.3,Win32,61.85056903,61b8f3437b89212fae0dfadf
6,3.171,space,1.6209,0,155,155,237,1,,,63b80a8b220f924d975670bc,64391f817045fb37d001ec58,2023-04-14_10h43.54.796,PRaM,2021.2.3,Win32,61.85056903,61b8f3437b89212fae0dfadf
6,2.7279,space,1.1008,0,156,156,150,1,,,63b80a8b220f924d975670bc,64391f817045fb37d001ec58,2023-04-14_10h43.54.796,PRaM,2021.2.3,Win32,61.85056903,61b8f3437b89212fae0dfadf
6,4.0953,space,2.4722,0,157,157,177,1,,,63b80a8b220f924d975670bc,64391f817045fb37d001ec58,2023-04-14_10h43.54.796,PRaM,2021.2.3,Win32,61.85056903,61b8f3437b89212fae0dfadf
8,2.3387,space,0.7327,0,158,158,323,1,,,63b80a8b220f924d975670bc,64391f817045fb37d001ec58,2023-04-14_10h43.54.796,PRaM,2021.2.3,Win32,61.85056903,61b8f3437b89212fae0dfadf
6,2.602,space,1.1958,0,159,159,270,1,,,63b80a8b220f924d975670bc,64391f817045fb37d001ec58,2023-04-14_10h43.54.796,PRaM,2021.2.3,Win32,61.85056903,61b8f3437b89212fae0dfadf
5,2.2374,space,0.5503,0,160,160,287,1,,,63b80a8b220f924d975670bc,64391f817045fb37d001ec58,2023-04-14_10h43.54.796,PRaM,2021.2.3,Win32,61.85056903,61b8f3437b89212fae0dfadf
8,2.7175,space,1.0802,0,161,161,42,1,,,63b80a8b220f924d975670bc,64391f817045fb37d001ec58,2023-04-14_10h43.54.796,PRaM,2021.2.3,Win32,61.85056903,61b8f3437b89212fae0dfadf
8,2.6127,space,1.08,0,162,162,200,1,,,63b80a8b220f924d975670bc,64391f817045fb37d001ec58,2023-04-14_10h43.54.796,PRaM,2021.2.3,Win32,61.85056903,61b8f3437b89212fae0dfadf
4,4.2557,space,2.6038,0,163,163,160,1,,,63b80a8b220f924d975670bc,64391f817045fb37d001ec58,2023-04-14_10h43.54.796,PRaM,2021.2.3,Win32,61.85056903,61b8f3437b89212fae0dfadf
5,2.1572,space,0.4674,0,164,164,362,1,,,63b80a8b220f924d975670bc,64391f817045fb37d001ec58,2023-04-14_10h43.54.796,PRaM,2021.2.3,Win32,61.85056903,61b8f3437b89212fae0dfadf
5,6.6779,space,4.8525,0,165,165,294,1,,,63b80a8b220f924d975670bc,64391f817045fb37d001ec58,2023-04-14_10h43.54.796,PRaM,2021.2.3,Win32,61.85056903,61b8f3437b89212fae0dfadf
7,2.1403,space,0.3843,0,166,166,43,1,,,63b80a8b220f924d975670bc,64391f817045fb37d001ec58,2023-04-14_10h43.54.796,PRaM,2021.2.3,Win32,61.85056903,61b8f3437b89212fae0dfadf
8,3.0215,space,1.3282,0,167,167,278,1,,,63b80a8b220f924d975670bc,64391f817045fb37d001ec58,2023-04-14_10h43.54.796,PRaM,2021.2.3,Win32,61.85056903,61b8f3437b89212fae0dfadf
5,3.2478,space,1.5491,0,168,168,309,1,,,63b80a8b220f924d975670bc,64391f817045fb37d001ec58,2023-04-14_10h43.54.796,PRaM,2021.2.3,Win32,61.85056903,61b8f3437b89212fae0dfadf
4,2.6412,space,0.9801,0,169,169,188,1,,,63b80a8b220f924d975670bc,64391f817045fb37d001ec58,2023-04-14_10h43.54.796,PRaM,2021.2.3,Win32,61.85056903,61b8f3437b89212fae0dfadf
8,2.9433,space,1.3391,0,170,170,319,1,,,63b80a8b220f924d975670bc,64391f817045fb37d001ec58,2023-04-14_10h43.54.796,PRaM,2021.2.3,Win32,61.85056903,61b8f3437b89212fae0dfadf
8,2.2598,space,0.589,0,171,171,351,1,,,63b80a8b220f924d975670bc,64391f817045fb37d001ec58,2023-04-14_10h43.54.796,PRaM,2021.2.3,Win32,61.85056903,61b8f3437b89212fae0dfadf
8,2.0263,space,0.5929,0,172,172,255,1,,,63b80a8b220f924d975670bc,64391f817045fb37d001ec58,2023-04-14_10h43.54.796,PRaM,2021.2.3,Win32,61.85056903,61b8f3437b89212fae0dfadf
3,108.9789,space,107.5353,0,173,173,354,1,,,63b80a8b220f924d975670bc,64391f817045fb37d001ec58,2023-04-14_10h43.54.796,PRaM,2021.2.3,Win32,61.85056903,61b8f3437b89212fae0dfadf
6,2.4268,space,0.702,0,174,174,86,1,,,63b80a8b220f924d975670bc,64391f817045fb37d001ec58,2023-04-14_10h43.54.796,PRaM,2021.2.3,Win32,61.85056903,61b8f3437b89212fae0dfadf
7,3.4633,space,1.652,0,175,175,166,1,,,63b80a8b220f924d975670bc,64391f817045fb37d001ec58,2023-04-14_10h43.54.796,PRaM,2021.2.3,Win32,61.85056903,61b8f3437b89212fae0dfadf
4,3.9117,space,2.2231,0,176,176,82,1,,,63b80a8b220f924d975670bc,64391f817045fb37d001ec58,2023-04-14_10h43.54.796,PRaM,2021.2.3,Win32,61.85056903,61b8f3437b89212fae0dfadf
5,2.7563,space,1.1454,0,177,177,236,1,,,63b80a8b220f924d975670bc,64391f817045fb37d001ec58,2023-04-14_10h43.54.796,PRaM,2021.2.3,Win32,61.85056903,61b8f3437b89212fae0dfadf
7,2.3356,space,0.6965,0,178,178,110,1,,,63b80a8b220f924d975670bc,64391f817045fb37d001ec58,2023-04-14_10h43.54.796,PRaM,2021.2.3,Win32,61.85056903,61b8f3437b89212fae0dfadf
7,2.3372,space,0.6754,0,179,179,159,1,,,63b80a8b220f924d975670bc,64391f817045fb37d001ec58,2023-04-14_10h43.54.796,PRaM,2021.2.3,Win32,61.85056903,61b8f3437b89212fae0dfadf
2,3.0269,space,1.3459,0,180,180,215,1,,,63b80a8b220f924d975670bc,64391f817045fb37d001ec58,2023-04-14_10h43.54.796,PRaM,2021.2.3,Win32,61.85056903,61b8f3437b89212fae0dfadf
8,2.6142,space,1.0311,0,181,181,38,1,,,63b80a8b220f924d975670bc,64391f817045fb37d001ec58,2023-04-14_10h43.54.796,PRaM,2021.2.3,Win32,61.85056903,61b8f3437b89212fae0dfadf
8,2.408,space,0.73,0,182,182,45,1,,,63b80a8b220f924d975670bc,64391f817045fb37d001ec58,2023-04-14_10h43.54.796,PRaM,2021.2.3,Win32,61.85056903,61b8f3437b89212fae0dfadf
8,1.882,space,0.2986,0,183,183,154,1,,,63b80a8b220f924d975670bc,64391f817045fb37d001ec58,2023-04-14_10h43.54.796,PRaM,2021.2.3,Win32,61.85056903,61b8f3437b89212fae0dfadf
8,2.3862,space,0.6996,0,184,184,307,1,,,63b80a8b220f924d975670bc,64391f817045fb37d001ec58,2023-04-14_10h43.54.796,PRaM,2021.2.3,Win32,61.85056903,61b8f3437b89212fae0dfadf
7,2.4663,space,0.7845,0,185,185,134,1,,,63b80a8b220f924d975670bc,64391f817045fb37d001ec58,2023-04-14_10h43.54.796,PRaM,2021.2.3,Win32,61.85056903,61b8f3437b89212fae0dfadf
3,2.126,space,0.4257,0,186,186,212,1,,,63b80a8b220f924d975670bc,64391f817045fb37d001ec58,2023-04-14_10h43.54.796,PRaM,2021.2.3,Win32,61.85056903,61b8f3437b89212fae0dfadf
6,2.2411,space,0.6307,0,187,187,340,1,,,63b80a8b220f924d975670bc,64391f817045fb37d001ec58,2023-04-14_10h43.54.796,PRaM,2021.2.3,Win32,61.85056903,61b8f3437b89212fae0dfadf
7,2.4329,space,0.7391,0,188,188,199,1,,,63b80a8b220f924d975670bc,64391f817045fb37d001ec58,2023-04-14_10h43.54.796,PRaM,2021.2.3,Win32,61.85056903,61b8f3437b89212fae0dfadf
7,2.7737,space,1.0673,0,189,189,59,1,,,63b80a8b220f924d975670bc,64391f817045fb37d001ec58,2023-04-14_10h43.54.796,PRaM,2021.2.3,Win32,61.85056903,61b8f3437b89212fae0dfadf
3,3.281,space,1.6512,0,190,190,329,1,,,63b80a8b220f924d975670bc,64391f817045fb37d001ec58,2023-04-14_10h43.54.796,PRaM,2021.2.3,Win32,61.85056903,61b8f3437b89212fae0dfadf
8,2.309,space,0.6346,0,191,191,325,1,,,63b80a8b220f924d975670bc,64391f817045fb37d001ec58,2023-04-14_10h43.54.796,PRaM,2021.2.3,Win32,61.85056903,61b8f3437b89212fae0dfadf
6,3.0811,space,1.382,0,192,192,126,1,,,63b80a8b220f924d975670bc,64391f817045fb37d001ec58,2023-04-14_10h43.54.796,PRaM,2021.2.3,Win32,61.85056903,61b8f3437b89212fae0dfadf
2,4.3766,space,2.8148,0,193,193,275,1,,,63b80a8b220f924d975670bc,64391f817045fb37d001ec58,2023-04-14_10h43.54.796,PRaM,2021.2.3,Win32,61.85056903,61b8f3437b89212fae0dfadf
,,space,2.0063,0,194,194,168,1,,,63b80a8b220f924d975670bc,64391f817045fb37d001ec58,2023-04-14_10h43.54.796,PRaM,2021.2.3,Win32,61.85056903,61b8f3437b89212fae0dfadf
6,1.8196,space,3.2891,0,195,195,175,1,,,63b80a8b220f924d975670bc,64391f817045fb37d001ec58,2023-04-14_10h43.54.796,PRaM,2021.2.3,Win32,61.85056903,61b8f3437b89212fae0dfadf
2,2.7901,space,1.2385,0,196,196,36,1,,,63b80a8b220f924d975670bc,64391f817045fb37d001ec58,2023-04-14_10h43.54.796,PRaM,2021.2.3,Win32,61.85056903,61b8f3437b89212fae0dfadf
8,3.5647,space,1.9161,0,197,197,149,1,,,63b80a8b220f924d975670bc,64391f817045fb37d001ec58,2023-04-14_10h43.54.796,PRaM,2021.2.3,Win32,61.85056903,61b8f3437b89212fae0dfadf
8,1.6814,space,0.0927,0,198,198,246,1,,,63b80a8b220f924d975670bc,64391f817045fb37d001ec58,2023-04-14_10h43.54.796,PRaM,2021.2.3,Win32,61.85056903,61b8f3437b89212fae0dfadf
8,3.4893,space,1.8267,0,199,199,3,1,,,63b80a8b220f924d975670bc,64391f817045fb37d001ec58,2023-04-14_10h43.54.796,PRaM,2021.2.3,Win32,61.85056903,61b8f3437b89212fae0dfadf
2,2.5565,space,0.98,0,200,200,55,1,,,63b80a8b220f924d975670bc,64391f817045fb37d001ec58,2023-04-14_10h43.54.796,PRaM,2021.2.3,Win32,61.85056903,61b8f3437b89212fae0dfadf
8,2.7328,space,1.0969,0,201,201,225,1,,,63b80a8b220f924d975670bc,64391f817045fb37d001ec58,2023-04-14_10h43.54.796,PRaM,2021.2.3,Win32,61.85056903,61b8f3437b89212fae0dfadf
2,2.9129,space,1.2607,0,202,202,94,1,,,63b80a8b220f924d975670bc,64391f817045fb37d001ec58,2023-04-14_10h43.54.796,PRaM,2021.2.3,Win32,61.85056903,61b8f3437b89212fae0dfadf
6,2.3352,space,0.668,0,203,203,194,1,,,63b80a8b220f924d975670bc,64391f817045fb37d001ec58,2023-04-14_10h43.54.796,PRaM,2021.2.3,Win32,61.85056903,61b8f3437b89212fae0dfadf
4,3.5742,space,1.9287,0,204,204,233,1,,,63b80a8b220f924d975670bc,64391f817045fb37d001ec58,2023-04-14_10h43.54.796,PRaM,2021.2.3,Win32,61.85056903,61b8f3437b89212fae0dfadf
5,2.2518,space,0.5865,0,205,205,322,1,,,63b80a8b220f924d975670bc,64391f817045fb37d001ec58,2023-04-14_10h43.54.796,PRaM,2021.2.3,Win32,61.85056903,61b8f3437b89212fae0dfadf
3,4.1289,space,2.502,0,206,206,250,1,,,63b80a8b220f924d975670bc,64391f817045fb37d001ec58,2023-04-14_10h43.54.796,PRaM,2021.2.3,Win32,61.85056903,61b8f3437b89212fae0dfadf
5,2.3122,space,0.6357,0,207,207,167,1,,,63b80a8b220f924d975670bc,64391f817045fb37d001ec58,2023-04-14_10h43.54.796,PRaM,2021.2.3,Win32,61.85056903,61b8f3437b89212fae0dfadf
7,4.579,space,2.9591,0,208,208,0,1,,,63b80a8b220f924d975670bc,64391f817045fb37d001ec58,2023-04-14_10h43.54.796,PRaM,2021.2.3,Win32,61.85056903,61b8f3437b89212fae0dfadf
6,2.4927,space,0.9051,0,209,209,145,1,,,63b80a8b220f924d975670bc,64391f817045fb37d001ec58,2023-04-14_10h43.54.796,PRaM,2021.2.3,Win32,61.85056903,61b8f3437b89212fae0dfadf
7,2.3511,space,0.692,0,210,210,142,1,,,63b80a8b220f924d975670bc,64391f817045fb37d001ec58,2023-04-14_10h43.54.796,PRaM,2021.2.3,Win32,61.85056903,61b8f3437b89212fae0dfadf
3,5.0094,space,3.4892,0,211,211,189,1,,,63b80a8b220f924d975670bc,64391f817045fb37d001ec58,2023-04-14_10h43.54.796,PRaM,2021.2.3,Win32,61.85056903,61b8f3437b89212fae0dfadf
7,3.493,space,1.7979,0,212,212,112,1,,,63b80a8b220f924d975670bc,64391f817045fb37d001ec58,2023-04-14_10h43.54.796,PRaM,2021.2.3,Win32,61.85056903,61b8f3437b89212fae0dfadf
6,2.8766,space,1.2146,0,213,213,205,1,,,63b80a8b220f924d975670bc,64391f817045fb37d001ec58,2023-04-14_10h43.54.796,PRaM,2021.2.3,Win32,61.85056903,61b8f3437b89212fae0dfadf
3,2.8248,space,1.1624,0,214,214,15,1,,,63b80a8b220f924d975670bc,64391f817045fb37d001ec58,2023-04-14_10h43.54.796,PRaM,2021.2.3,Win32,61.85056903,61b8f3437b89212fae0dfadf
5,2.409,space,0.7809,0,215,215,377,1,,,63b80a8b220f924d975670bc,64391f817045fb37d001ec58,2023-04-14_10h43.54.796,PRaM,2021.2.3,Win32,61.85056903,61b8f3437b89212fae0dfadf
6,3.9521,space,5.4687,0,216,216,48,1,,,63b80a8b220f924d975670bc,64391f817045fb37d001ec58,2023-04-14_10h43.54.796,PRaM,2021.2.3,Win32,61.85056903,61b8f3437b89212fae0dfadf
3,2.7554,space,1.3974,0,217,217,290,1,,,63b80a8b220f924d975670bc,64391f817045fb37d001ec58,2023-04-14_10h43.54.796,PRaM,2021.2.3,Win32,61.85056903,61b8f3437b89212fae0dfadf
2,3.5078,space,1.8353,0,218,218,318,1,,,63b80a8b220f924d975670bc,64391f817045fb37d001ec58,2023-04-14_10h43.54.796,PRaM,2021.2.3,Win32,61.85056903,61b8f3437b89212fae0dfadf
2,2.8954,space,1.1878,0,219,219,293,1,,,63b80a8b220f924d975670bc,64391f817045fb37d001ec58,2023-04-14_10h43.54.796,PRaM,2021.2.3,Win32,61.85056903,61b8f3437b89212fae0dfadf
3,3.6053,space,1.9444,0,220,220,157,1,,,63b80a8b220f924d975670bc,64391f817045fb37d001ec58,2023-04-14_10h43.54.796,PRaM,2021.2.3,Win32,61.85056903,61b8f3437b89212fae0dfadf
6,2.1333,space,0.4246,0,221,221,114,1,,,63b80a8b220f924d975670bc,64391f817045fb37d001ec58,2023-04-14_10h43.54.796,PRaM,2021.2.3,Win32,61.85056903,61b8f3437b89212fae0dfadf
3,2.6686,space,0.9622,0,222,222,92,1,,,63b80a8b220f924d975670bc,64391f817045fb37d001ec58,2023-04-14_10h43.54.796,PRaM,2021.2.3,Win32,61.85056903,61b8f3437b89212fae0dfadf
8,2.9099,space,1.1794,0,223,223,320,1,,,63b80a8b220f924d975670bc,64391f817045fb37d001ec58,2023-04-14_10h43.54.796,PRaM,2021.2.3,Win32,61.85056903,61b8f3437b89212fae0dfadf
3,3.452,space,1.7842,0,224,224,103,1,,,63b80a8b220f924d975670bc,64391f817045fb37d001ec58,2023-04-14_10h43.54.796,PRaM,2021.2.3,Win32,61.85056903,61b8f3437b89212fae0dfadf
3,1.8512,space,0.867,0,225,225,155,1,,,63b80a8b220f924d975670bc,64391f817045fb37d001ec58,2023-04-14_10h43.54.796,PRaM,2021.2.3,Win32,61.85056903,61b8f3437b89212fae0dfadf
7,3.9458,space,2.2937,0,226,226,207,1,,,63b80a8b220f924d975670bc,64391f817045fb37d001ec58,2023-04-14_10h43.54.796,PRaM,2021.2.3,Win32,61.85056903,61b8f3437b89212fae0dfadf
7,2.0045,space,0.3036,0,227,227,244,1,,,63b80a8b220f924d975670bc,64391f817045fb37d001ec58,2023-04-14_10h43.54.796,PRaM,2021.2.3,Win32,61.85056903,61b8f3437b89212fae0dfadf
4,3.3827,space,1.7154,0,228,228,261,1,,,63b80a8b220f924d975670bc,64391f817045fb37d001ec58,2023-04-14_10h43.54.796,PRaM,2021.2.3,Win32,61.85056903,61b8f3437b89212fae0dfadf
3,3.484,space,1.7861,0,229,229,314,1,,,63b80a8b220f924d975670bc,64391f817045fb37d001ec58,2023-04-14_10h43.54.796,PRaM,2021.2.3,Win32,61.85056903,61b8f3437b89212fae0dfadf
6,3.5736,space,1.7304,0,230,230,180,1,,,63b80a8b220f924d975670bc,64391f817045fb37d001ec58,2023-04-14_10h43.54.796,PRaM,2021.2.3,Win32,61.85056903,61b8f3437b89212fae0dfadf
2,4.3288,space,2.6251,0,231,231,1,1,,,63b80a8b220f924d975670bc,64391f817045fb37d001ec58,2023-04-14_10h43.54.796,PRaM,2021.2.3,Win32,61.85056903,61b8f3437b89212fae0dfadf
6,2.6313,space,0.9143,0,232,232,352,1,,,63b80a8b220f924d975670bc,64391f817045fb37d001ec58,2023-04-14_10h43.54.796,PRaM,2021.2.3,Win32,61.85056903,61b8f3437b89212fae0dfadf
3,3.1577,space,1.4662,0,233,233,203,1,,,63b80a8b220f924d975670bc,64391f817045fb37d001ec58,2023-04-14_10h43.54.796,PRaM,2021.2.3,Win32,61.85056903,61b8f3437b89212fae0dfadf
6,3.5722,space,1.8926,0,234,234,256,1,,,63b80a8b220f924d975670bc,64391f817045fb37d001ec58,2023-04-14_10h43.54.796,PRaM,2021.2.3,Win32,61.85056903,61b8f3437b89212fae0dfadf
2,3.1829,space,1.5821,0,235,235,316,1,,,63b80a8b220f924d975670bc,64391f817045fb37d001ec58,2023-04-14_10h43.54.796,PRaM,2021.2.3,Win32,61.85056903,61b8f3437b89212fae0dfadf
7,3.8458,space,2.1949,0,236,236,273,1,,,63b80a8b220f924d975670bc,64391f817045fb37d001ec58,2023-04-14_10h43.54.796,PRaM,2021.2.3,Win32,61.85056903,61b8f3437b89212fae0dfadf
8,3.0025,space,1.3321,0,237,237,84,1,,,63b80a8b220f924d975670bc,64391f817045fb37d001ec58,2023-04-14_10h43.54.796,PRaM,2021.2.3,Win32,61.85056903,61b8f3437b89212fae0dfadf
6,2.9072,space,1.2791,0,238,238,258,1,,,63b80a8b220f924d975670bc,64391f817045fb37d001ec58,2023-04-14_10h43.54.796,PRaM,2021.2.3,Win32,61.85056903,61b8f3437b89212fae0dfadf
4,2.6469,space,1.1951,0,239,239,122,1,,,63b80a8b220f924d975670bc,64391f817045fb37d001ec58,2023-04-14_10h43.54.796,PRaM,2021.2.3,Win32,61.85056903,61b8f3437b89212fae0dfadf
6,2.2423,space,0.6609,0,240,240,99,1,,,63b80a8b220f924d975670bc,64391f817045fb37d001ec58,2023-04-14_10h43.54.796,PRaM,2021.2.3,Win32,61.85056903,61b8f3437b89212fae0dfadf
6,2.5558,space,1.1559,0,241,241,72,1,,,63b80a8b220f924d975670bc,64391f817045fb37d001ec58,2023-04-14_10h43.54.796,PRaM,2021.2.3,Win32,61.85056903,61b8f3437b89212fae0dfadf
7,3.6019,space,1.9155,0,242,242,156,1,,,63b80a8b220f924d975670bc,64391f817045fb37d001ec58,2023-04-14_10h43.54.796,PRaM,2021.2.3,Win32,61.85056903,61b8f3437b89212fae0dfadf
8,2.0135,space,0.3849,0,243,243,326,1,,,63b80a8b220f924d975670bc,64391f817045fb37d001ec58,2023-04-14_10h43.54.796,PRaM,2021.2.3,Win32,61.85056903,61b8f3437b89212fae0dfadf
3,2.8319,space,1.2345,0,244,244,27,1,,,63b80a8b220f924d975670bc,64391f817045fb37d001ec58,2023-04-14_10h43.54.796,PRaM,2021.2.3,Win32,61.85056903,61b8f3437b89212fae0dfadf
6,2.6757,space,1.0824,0,245,245,57,1,,,63b80a8b220f924d975670bc,64391f817045fb37d001ec58,2023-04-14_10h43.54.796,PRaM,2021.2.3,Win32,61.85056903,61b8f3437b89212fae0dfadf
6,2.1259,space,0.4796,0,246,246,143,1,,,63b80a8b220f924d975670bc,64391f817045fb37d001ec58,2023-04-14_10h43.54.796,PRaM,2021.2.3,Win32,61.85056903,61b8f3437b89212fae0dfadf
4,4.9066,space,3.2029,0,247,247,240,1,,,63b80a8b220f924d975670bc,64391f817045fb37d001ec58,2023-04-14_10h43.54.796,PRaM,2021.2.3,Win32,61.85056903,61b8f3437b89212fae0dfadf
4,2.6557,space,0.994,0,248,248,303,1,,,63b80a8b220f924d975670bc,64391f817045fb37d001ec58,2023-04-14_10h43.54.796,PRaM,2021.2.3,Win32,61.85056903,61b8f3437b89212fae0dfadf
6,3.285,space,1.644,0,249,249,249,1,,,63b80a8b220f924d975670bc,64391f817045fb37d001ec58,2023-04-14_10h43.54.796,PRaM,2021.2.3,Win32,61.85056903,61b8f3437b89212fae0dfadf
4,2.5788,space,0.8901,0,250,250,2,1,,,63b80a8b220f924d975670bc,64391f817045fb37d001ec58,2023-04-14_10h43.54.796,PRaM,2021.2.3,Win32,61.85056903,61b8f3437b89212fae0dfadf
3,3.1744,space,1.4913,0,251,251,214,1,,,63b80a8b220f924d975670bc,64391f817045fb37d001ec58,2023-04-14_10h43.54.796,PRaM,2021.2.3,Win32,61.85056903,61b8f3437b89212fae0dfadf
6,5.1419,space,3.5015,0,252,252,147,1,,,63b80a8b220f924d975670bc,64391f817045fb37d001ec58,2023-04-14_10h43.54.796,PRaM,2021.2.3,Win32,61.85056903,61b8f3437b89212fae0dfadf
4,4.8682,space,3.182,0,253,253,344,1,,,63b80a8b220f924d975670bc,64391f817045fb37d001ec58,2023-04-14_10h43.54.796,PRaM,2021.2.3,Win32,61.85056903,61b8f3437b89212fae0dfadf
5,2.0416,space,0.3652,0,254,254,299,1,,,63b80a8b220f924d975670bc,64391f817045fb37d001ec58,2023-04-14_10h43.54.796,PRaM,2021.2.3,Win32,61.85056903,61b8f3437b89212fae0dfadf
7,2.4662,space,0.7988,0,255,255,83,1,,,63b80a8b220f924d975670bc,64391f817045fb37d001ec58,2023-04-14_10h43.54.796,PRaM,2021.2.3,Win32,61.85056903,61b8f3437b89212fae0dfadf
3,2.9668,space,1.2995,0,256,256,204,1,,,63b80a8b220f924d975670bc,64391f817045fb37d001ec58,2023-04-14_10h43.54.796,PRaM,2021.2.3,Win32,61.85056903,61b8f3437b89212fae0dfadf
2,2.325,space,1.4098,0,257,257,263,1,,,63b80a8b220f924d975670bc,64391f817045fb37d001ec58,2023-04-14_10h43.54.796,PRaM,2021.2.3,Win32,61.85056903,61b8f3437b89212fae0dfadf
3,2.6039,space,0.8829,0,258,258,148,1,,,63b80a8b220f924d975670bc,64391f817045fb37d001ec58,2023-04-14_10h43.54.796,PRaM,2021.2.3,Win32,61.85056903,61b8f3437b89212fae0dfadf
2,2.6668,space,1.0389,0,259,259,292,1,,,63b80a8b220f924d975670bc,64391f817045fb37d001ec58,2023-04-14_10h43.54.796,PRaM,2021.2.3,Win32,61.85056903,61b8f3437b89212fae0dfadf
8,3.9453,space,2.2459,0,260,260,17,1,,,63b80a8b220f924d975670bc,64391f817045fb37d001ec58,2023-04-14_10h43.54.796,PRaM,2021.2.3,Win32,61.85056903,61b8f3437b89212fae0dfadf
5,2.1864,space,0.5473,0,261,261,349,1,,,63b80a8b220f924d975670bc,64391f817045fb37d001ec58,2023-04-14_10h43.54.796,PRaM,2021.2.3,Win32,61.85056903,61b8f3437b89212fae0dfadf
3,2.5461,space,0.8802,0,262,262,97,1,,,63b80a8b220f924d975670bc,64391f817045fb37d001ec58,2023-04-14_10h43.54.796,PRaM,2021.2.3,Win32,61.85056903,61b8f3437b89212fae0dfadf
2,2.4232,space,0.8132,0,263,263,289,1,,,63b80a8b220f924d975670bc,64391f817045fb37d001ec58,2023-04-14_10h43.54.796,PRaM,2021.2.3,Win32,61.85056903,61b8f3437b89212fae0dfadf
2,2.6831,space,1.0245,0,264,264,281,1,,,63b80a8b220f924d975670bc,64391f817045fb37d001ec58,2023-04-14_10h43.54.796,PRaM,2021.2.3,Win32,61.85056903,61b8f3437b89212fae0dfadf
5,2.355,space,0.7309,0,265,265,371,1,,,63b80a8b220f924d975670bc,64391f817045fb37d001ec58,2023-04-14_10h43.54.796,PRaM,2021.2.3,Win32,61.85056903,61b8f3437b89212fae0dfadf
3,3.5815,space,1.7588,0,266,266,131,1,,,63b80a8b220f924d975670bc,64391f817045fb37d001ec58,2023-04-14_10h43.54.796,PRaM,2021.2.3,Win32,61.85056903,61b8f3437b89212fae0dfadf
6,2.4746,space,0.7846,0,267,267,123,1,,,63b80a8b220f924d975670bc,64391f817045fb37d001ec58,2023-04-14_10h43.54.796,PRaM,2021.2.3,Win32,61.85056903,61b8f3437b89212fae0dfadf
3,2.4283,space,0.7552,0,268,268,171,1,,,63b80a8b220f924d975670bc,64391f817045fb37d001ec58,2023-04-14_10h43.54.796,PRaM,2021.2.3,Win32,61.85056903,61b8f3437b89212fae0dfadf
3,3.1942,space,1.5306,0,269,269,31,1,,,63b80a8b220f924d975670bc,64391f817045fb37d001ec58,2023-04-14_10h43.54.796,PRaM,2021.2.3,Win32,61.85056903,61b8f3437b89212fae0dfadf
6,2.351,space,0.6745,0,270,270,29,1,,,63b80a8b220f924d975670bc,64391f817045fb37d001ec58,2023-04-14_10h43.54.796,PRaM,2021.2.3,Win32,61.85056903,61b8f3437b89212fae0dfadf
2,5.1274,space,3.3893,0,271,271,9,1,,,63b80a8b220f924d975670bc,64391f817045fb37d001ec58,2023-04-14_10h43.54.796,PRaM,2021.2.3,Win32,61.85056903,61b8f3437b89212fae0dfadf
4,2.9384,space,1.2626,0,272,272,274,1,,,63b80a8b220f924d975670bc,64391f817045fb37d001ec58,2023-04-14_10h43.54.796,PRaM,2021.2.3,Win32,61.85056903,61b8f3437b89212fae0dfadf
8,3.0422,space,1.3528,0,273,273,363,1,,,63b80a8b220f924d975670bc,64391f817045fb37d001ec58,2023-04-14_10h43.54.796,PRaM,2021.2.3,Win32,61.85056903,61b8f3437b89212fae0dfadf
6,3.0345,space,1.3789,0,274,274,22,1,,,63b80a8b220f924d975670bc,64391f817045fb37d001ec58,2023-04-14_10h43.54.796,PRaM,2021.2.3,Win32,61.85056903,61b8f3437b89212fae0dfadf
8,2.2535,space,0.5792,0,275,275,335,1,,,63b80a8b220f924d975670bc,64391f817045fb37d001ec58,2023-04-14_10h43.54.796,PRaM,2021.2.3,Win32,61.85056903,61b8f3437b89212fae0dfadf
5,2.1285,space,0.5157,0,276,276,374,1,,,63b80a8b220f924d975670bc,64391f817045fb37d001ec58,2023-04-14_10h43.54.796,PRaM,2021.2.3,Win32,61.85056903,61b8f3437b89212fae0dfadf
6,2.7074,space,1.0508,0,277,277,53,1,,,63b80a8b220f924d975670bc,64391f817045fb37d001ec58,2023-04-14_10h43.54.796,PRaM,2021.2.3,Win32,61.85056903,61b8f3437b89212fae0dfadf
3,3.2718,space,1.6055,0,278,278,24,1,,,63b80a8b220f924d975670bc,64391f817045fb37d001ec58,2023-04-14_10h43.54.796,PRaM,2021.2.3,Win32,61.85056903,61b8f3437b89212fae0dfadf
7,4.2273,space,2.7157,0,279,279,192,1,,,63b80a8b220f924d975670bc,64391f817045fb37d001ec58,2023-04-14_10h43.54.796,PRaM,2021.2.3,Win32,61.85056903,61b8f3437b89212fae0dfadf
6,2.8322,space,1.1697,0,280,280,100,1,,,63b80a8b220f924d975670bc,64391f817045fb37d001ec58,2023-04-14_10h43.54.796,PRaM,2021.2.3,Win32,61.85056903,61b8f3437b89212fae0dfadf
4,98.3338,space,97.6558,0,281,281,23,1,,,63b80a8b220f924d975670bc,64391f817045fb37d001ec58,2023-04-14_10h43.54.796,PRaM,2021.2.3,Win32,61.85056903,61b8f3437b89212fae0dfadf
5,3.0821,space,2.5577,0,282,282,376,1,,,63b80a8b220f924d975670bc,64391f817045fb37d001ec58,2023-04-14_10h43.54.796,PRaM,2021.2.3,Win32,61.85056903,61b8f3437b89212fae0dfadf
6,2.3199,space,0.7228,0,283,283,127,1,,,63b80a8b220f924d975670bc,64391f817045fb37d001ec58,2023-04-14_10h43.54.796,PRaM,2021.2.3,Win32,61.85056903,61b8f3437b89212fae0dfadf
3,4.7363,space,3.0282,0,284,284,8,1,,,63b80a8b220f924d975670bc,64391f817045fb37d001ec58,2023-04-14_10h43.54.796,PRaM,2021.2.3,Win32,61.85056903,61b8f3437b89212fae0dfadf
6,3.1171,space,1.4433,0,285,285,120,1,,,63b80a8b220f924d975670bc,64391f817045fb37d001ec58,2023-04-14_10h43.54.796,PRaM,2021.2.3,Win32,61.85056903,61b8f3437b89212fae0dfadf
8,2.1006,space,0.4009,0,286,286,331,1,,,63b80a8b220f924d975670bc,64391f817045fb37d001ec58,2023-04-14_10h43.54.796,PRaM,2021.2.3,Win32,61.85056903,61b8f3437b89212fae0dfadf
7,1.9219,space,4.5482,0,287,287,327,1,,,63b80a8b220f924d975670bc,64391f817045fb37d001ec58,2023-04-14_10h43.54.796,PRaM,2021.2.3,Win32,61.85056903,61b8f3437b89212fae0dfadf
7,4.2575,space,2.5616,0,288,288,254,1,,,63b80a8b220f924d975670bc,64391f817045fb37d001ec58,2023-04-14_10h43.54.796,PRaM,2021.2.3,Win32,61.85056903,61b8f3437b89212fae0dfadf
3,5.7359,space,4.1849,0,289,289,227,1,,,63b80a8b220f924d975670bc,64391f817045fb37d001ec58,2023-04-14_10h43.54.796,PRaM,2021.2.3,Win32,61.85056903,61b8f3437b89212fae0dfadf
7,2.7091,space,1.1303,0,290,290,47,1,,,63b80a8b220f924d975670bc,64391f817045fb37d001ec58,2023-04-14_10h43.54.796,PRaM,2021.2.3,Win32,61.85056903,61b8f3437b89212fae0dfadf
6,2.8261,space,1.1241,0,291,291,230,1,,,63b80a8b220f924d975670bc,64391f817045fb37d001ec58,2023-04-14_10h43.54.796,PRaM,2021.2.3,Win32,61.85056903,61b8f3437b89212fae0dfadf
8,3.4814,space,2.183,0,292,292,277,1,,,63b80a8b220f924d975670bc,64391f817045fb37d001ec58,2023-04-14_10h43.54.796,PRaM,2021.2.3,Win32,61.85056903,61b8f3437b89212fae0dfadf
7,4.993,space,3.3682,0,293,293,201,1,,,63b80a8b220f924d975670bc,64391f817045fb37d001ec58,2023-04-14_10h43.54.796,PRaM,2021.2.3,Win32,61.85056903,61b8f3437b89212fae0dfadf
8,3.8196,space,2.1764,0,294,294,179,1,,,63b80a8b220f924d975670bc,64391f817045fb37d001ec58,2023-04-14_10h43.54.796,PRaM,2021.2.3,Win32,61.85056903,61b8f3437b89212fae0dfadf
5,2.2736,space,0.6531,0,295,295,124,1,,,63b80a8b220f924d975670bc,64391f817045fb37d001ec58,2023-04-14_10h43.54.796,PRaM,2021.2.3,Win32,61.85056903,61b8f3437b89212fae0dfadf
3,5.0139,space,3.3697,0,296,296,308,1,,,63b80a8b220f924d975670bc,64391f817045fb37d001ec58,2023-04-14_10h43.54.796,PRaM,2021.2.3,Win32,61.85056903,61b8f3437b89212fae0dfadf
3,2.8401,space,1.2655,0,297,297,18,1,,,63b80a8b220f924d975670bc,64391f817045fb37d001ec58,2023-04-14_10h43.54.796,PRaM,2021.2.3,Win32,61.85056903,61b8f3437b89212fae0dfadf
7,3.1568,space,1.4956,0,298,298,56,1,,,63b80a8b220f924d975670bc,64391f817045fb37d001ec58,2023-04-14_10h43.54.796,PRaM,2021.2.3,Win32,61.85056903,61b8f3437b89212fae0dfadf
5,2.8511,space,1.2479,0,299,299,272,1,,,63b80a8b220f924d975670bc,64391f817045fb37d001ec58,2023-04-14_10h43.54.796,PRaM,2021.2.3,Win32,61.85056903,61b8f3437b89212fae0dfadf
7,4.3059,space,2.6739,0,300,300,14,1,,,63b80a8b220f924d975670bc,64391f817045fb37d001ec58,2023-04-14_10h43.54.796,PRaM,2021.2.3,Win32,61.85056903,61b8f3437b89212fae0dfadf
3,3.1161,space,1.5934,0,301,301,10,1,,,63b80a8b220f924d975670bc,64391f817045fb37d001ec58,2023-04-14_10h43.54.796,PRaM,2021.2.3,Win32,61.85056903,61b8f3437b89212fae0dfadf
4,3.3934,space,1.7933,0,302,302,260,1,,,63b80a8b220f924d975670bc,64391f817045fb37d001ec58,2023-04-14_10h43.54.796,PRaM,2021.2.3,Win32,61.85056903,61b8f3437b89212fae0dfadf
6,2.3534,space,0.6923,0,303,303,40,1,,,63b80a8b220f924d975670bc,64391f817045fb37d001ec58,2023-04-14_10h43.54.796,PRaM,2021.2.3,Win32,61.85056903,61b8f3437b89212fae0dfadf
,,space,1.0119,0,304,304,248,1,,,63b80a8b220f924d975670bc,64391f817045fb37d001ec58,2023-04-14_10h43.54.796,PRaM,2021.2.3,Win32,61.85056903,61b8f3437b89212fae0dfadf
3,4.2427,space,2.6487,0,305,305,219,1,,,63b80a8b220f924d975670bc,64391f817045fb37d001ec58,2023-04-14_10h43.54.796,PRaM,2021.2.3,Win32,61.85056903,61b8f3437b89212fae0dfadf
6,6.4611,space,4.801,0,306,306,104,1,,,63b80a8b220f924d975670bc,64391f817045fb37d001ec58,2023-04-14_10h43.54.796,PRaM,2021.2.3,Win32,61.85056903,61b8f3437b89212fae0dfadf
4,3.4077,space,1.8342,0,307,307,109,1,,,63b80a8b220f924d975670bc,64391f817045fb37d001ec58,2023-04-14_10h43.54.796,PRaM,2021.2.3,Win32,61.85056903,61b8f3437b89212fae0dfadf
8,2.5511,space,1.1659,0,308,308,350,1,,,63b80a8b220f924d975670bc,64391f817045fb37d001ec58,2023-04-14_10h43.54.796,PRaM,2021.2.3,Win32,61.85056903,61b8f3437b89212fae0dfadf
5,3.0568,space,1.6327,0,309,309,241,1,,,63b80a8b220f924d975670bc,64391f817045fb37d001ec58,2023-04-14_10h43.54.796,PRaM,2021.2.3,Win32,61.85056903,61b8f3437b89212fae0dfadf
7,4.3966,space,2.7599,0,310,310,306,1,,,63b80a8b220f924d975670bc,64391f817045fb37d001ec58,2023-04-14_10h43.54.796,PRaM,2021.2.3,Win32,61.85056903,61b8f3437b89212fae0dfadf
3,2.7697,space,1.1141,0,311,311,317,1,,,63b80a8b220f924d975670bc,64391f817045fb37d001ec58,2023-04-14_10h43.54.796,PRaM,2021.2.3,Win32,61.85056903,61b8f3437b89212fae0dfadf
4,5.0532,space,3.416,0,312,312,135,1,,,63b80a8b220f924d975670bc,64391f817045fb37d001ec58,2023-04-14_10h43.54.796,PRaM,2021.2.3,Win32,61.85056903,61b8f3437b89212fae0dfadf
8,3.4578,space,1.8806,0,313,313,282,1,,,63b80a8b220f924d975670bc,64391f817045fb37d001ec58,2023-04-14_10h43.54.796,PRaM,2021.2.3,Win32,61.85056903,61b8f3437b89212fae0dfadf
3,3.0231,space,1.3988,0,314,314,229,1,,,63b80a8b220f924d975670bc,64391f817045fb37d001ec58,2023-04-14_10h43.54.796,PRaM,2021.2.3,Win32,61.85056903,61b8f3437b89212fae0dfadf
6,3.7169,space,2.1112,0,315,315,347,1,,,63b80a8b220f924d975670bc,64391f817045fb37d001ec58,2023-04-14_10h43.54.796,PRaM,2021.2.3,Win32,61.85056903,61b8f3437b89212fae0dfadf
6,3.4478,space,2.0317,0,316,316,64,1,,,63b80a8b220f924d975670bc,64391f817045fb37d001ec58,2023-04-14_10h43.54.796,PRaM,2021.2.3,Win32,61.85056903,61b8f3437b89212fae0dfadf
7,2.719,space,1.1958,0,317,317,136,1,,,63b80a8b220f924d975670bc,64391f817045fb37d001ec58,2023-04-14_10h43.54.796,PRaM,2021.2.3,Win32,61.85056903,61b8f3437b89212fae0dfadf
6,2.5303,space,1.0374,0,318,318,174,1,,,63b80a8b220f924d975670bc,64391f817045fb37d001ec58,2023-04-14_10h43.54.796,PRaM,2021.2.3,Win32,61.85056903,61b8f3437b89212fae0dfadf
7,2.9714,space,1.3104,0,319,319,208,1,,,63b80a8b220f924d975670bc,64391f817045fb37d001ec58,2023-04-14_10h43.54.796,PRaM,2021.2.3,Win32,61.85056903,61b8f3437b89212fae0dfadf
5,5.9722,space,4.3194,0,320,320,76,1,,,63b80a8b220f924d975670bc,64391f817045fb37d001ec58,2023-04-14_10h43.54.796,PRaM,2021.2.3,Win32,61.85056903,61b8f3437b89212fae0dfadf
4,2.5943,space,0.9676,0,321,321,283,1,,,63b80a8b220f924d975670bc,64391f817045fb37d001ec58,2023-04-14_10h43.54.796,PRaM,2021.2.3,Win32,61.85056903,61b8f3437b89212fae0dfadf
4,4.2206,space,2.5916,0,322,322,365,1,,,63b80a8b220f924d975670bc,64391f817045fb37d001ec58,2023-04-14_10h43.54.796,PRaM,2021.2.3,Win32,61.85056903,61b8f3437b89212fae0dfadf
2,3.0503,space,1.3982,0,323,323,67,1,,,63b80a8b220f924d975670bc,64391f817045fb37d001ec58,2023-04-14_10h43.54.796,PRaM,2021.2.3,Win32,61.85056903,61b8f3437b89212fae0dfadf
5,2.7577,space,1.2164,0,324,324,367,1,,,63b80a8b220f924d975670bc,64391f817045fb37d001ec58,2023-04-14_10h43.54.796,PRaM,2021.2.3,Win32,61.85056903,61b8f3437b89212fae0dfadf
6,2.4686,space,0.9013,0,325,325,32,1,,,63b80a8b220f924d975670bc,64391f817045fb37d001ec58,2023-04-14_10h43.54.796,PRaM,2021.2.3,Win32,61.85056903,61b8f3437b89212fae0dfadf
6,3.3617,space,1.5154,0,326,326,178,1,,,63b80a8b220f924d975670bc,64391f817045fb37d001ec58,2023-04-14_10h43.54.796,PRaM,2021.2.3,Win32,61.85056903,61b8f3437b89212fae0dfadf
5,5.4912,space,3.9117,0,327,327,370,1,,,63b80a8b220f924d975670bc,64391f817045fb37d001ec58,2023-04-14_10h43.54.796,PRaM,2021.2.3,Win32,61.85056903,61b8f3437b89212fae0dfadf
6,2.5113,space,0.9714,0,328,328,328,1,,,63b80a8b220f924d975670bc,64391f817045fb37d001ec58,2023-04-14_10h43.54.796,PRaM,2021.2.3,Win32,61.85056903,61b8f3437b89212fae0dfadf
2,4.3119,space,2.6896,0,329,329,107,1,,,63b80a8b220f924d975670bc,64391f817045fb37d001ec58,2023-04-14_10h43.54.796,PRaM,2021.2.3,Win32,61.85056903,61b8f3437b89212fae0dfadf
2,2.5522,space,0.9292,0,330,330,232,1,,,63b80a8b220f924d975670bc,64391f817045fb37d001ec58,2023-04-14_10h43.54.796,PRaM,2021.2.3,Win32,61.85056903,61b8f3437b89212fae0dfadf
5,2.6734,space,1.0808,0,331,331,336,1,,,63b80a8b220f924d975670bc,64391f817045fb37d001ec58,2023-04-14_10h43.54.796,PRaM,2021.2.3,Win32,61.85056903,61b8f3437b89212fae0dfadf
4,2.3663,space,0.7643,0,332,332,79,1,,,63b80a8b220f924d975670bc,64391f817045fb37d001ec58,2023-04-14_10h43.54.796,PRaM,2021.2.3,Win32,61.85056903,61b8f3437b89212fae0dfadf
6,3.9698,space,2.364,0,333,333,369,1,,,63b80a8b220f924d975670bc,64391f817045fb37d001ec58,2023-04-14_10h43.54.796,PRaM,2021.2.3,Win32,61.85056903,61b8f3437b89212fae0dfadf
4,3.589,space,2.1136,0,334,334,89,1,,,63b80a8b220f924d975670bc,64391f817045fb37d001ec58,2023-04-14_10h43.54.796,PRaM,2021.2.3,Win32,61.85056903,61b8f3437b89212fae0dfadf
5,7.986,space,6.4496,0,335,335,146,1,,,63b80a8b220f924d975670bc,64391f817045fb37d001ec58,2023-04-14_10h43.54.796,PRaM,2021.2.3,Win32,61.85056903,61b8f3437b89212fae0dfadf
5,2.9704,space,1.2975,0,336,336,234,1,,,63b80a8b220f924d975670bc,64391f817045fb37d001ec58,2023-04-14_10h43.54.796,PRaM,2021.2.3,Win32,61.85056903,61b8f3437b89212fae0dfadf
6,3.391,space,1.7172,0,337,337,202,1,,,63b80a8b220f924d975670bc,64391f817045fb37d001ec58,2023-04-14_10h43.54.796,PRaM,2021.2.3,Win32,61.85056903,61b8f3437b89212fae0dfadf
4,3.0432,space,1.4267,0,338,338,360,1,,,63b80a8b220f924d975670bc,64391f817045fb37d001ec58,2023-04-14_10h43.54.796,PRaM,2021.2.3,Win32,61.85056903,61b8f3437b89212fae0dfadf
2,3.8562,space,2.206,0,339,339,130,1,,,63b80a8b220f924d975670bc,64391f817045fb37d001ec58,2023-04-14_10h43.54.796,PRaM,2021.2.3,Win32,61.85056903,61b8f3437b89212fae0dfadf
8,3.5028,space,1.9925,0,340,340,222,1,,,63b80a8b220f924d975670bc,64391f817045fb37d001ec58,2023-04-14_10h43.54.796,PRaM,2021.2.3,Win32,61.85056903,61b8f3437b89212fae0dfadf
5,3.1156,space,1.4786,0,341,341,101,1,,,63b80a8b220f924d975670bc,64391f817045fb37d001ec58,2023-04-14_10h43.54.796,PRaM,2021.2.3,Win32,61.85056903,61b8f3437b89212fae0dfadf
2,3.5461,space,1.8995,0,342,342,375,1,,,63b80a8b220f924d975670bc,64391f817045fb37d001ec58,2023-04-14_10h43.54.796,PRaM,2021.2.3,Win32,61.85056903,61b8f3437b89212fae0dfadf
7,3.951,space,2.3904,0,343,343,238,1,,,63b80a8b220f924d975670bc,64391f817045fb37d001ec58,2023-04-14_10h43.54.796,PRaM,2021.2.3,Win32,61.85056903,61b8f3437b89212fae0dfadf
2,3.7769,space,2.2075,0,344,344,58,1,,,63b80a8b220f924d975670bc,64391f817045fb37d001ec58,2023-04-14_10h43.54.796,PRaM,2021.2.3,Win32,61.85056903,61b8f3437b89212fae0dfadf
5,2.5208,space,0.857,0,345,345,224,1,,,63b80a8b220f924d975670bc,64391f817045fb37d001ec58,2023-04-14_10h43.54.796,PRaM,2021.2.3,Win32,61.85056903,61b8f3437b89212fae0dfadf
3,3.5139,space,1.8436,0,346,346,243,1,,,63b80a8b220f924d975670bc,64391f817045fb37d001ec58,2023-04-14_10h43.54.796,PRaM,2021.2.3,Win32,61.85056903,61b8f3437b89212fae0dfadf
6,2.639,space,1.0313,0,347,347,75,1,,,63b80a8b220f924d975670bc,64391f817045fb37d001ec58,2023-04-14_10h43.54.796,PRaM,2021.2.3,Win32,61.85056903,61b8f3437b89212fae0dfadf
3,4.0068,space,2.5033,0,348,348,176,1,,,63b80a8b220f924d975670bc,64391f817045fb37d001ec58,2023-04-14_10h43.54.796,PRaM,2021.2.3,Win32,61.85056903,61b8f3437b89212fae0dfadf
7,2.8054,space,1.1855,0,349,349,291,1,,,63b80a8b220f924d975670bc,64391f817045fb37d001ec58,2023-04-14_10h43.54.796,PRaM,2021.2.3,Win32,61.85056903,61b8f3437b89212fae0dfadf
4,3.6023,space,1.9452,0,350,350,63,1,,,63b80a8b220f924d975670bc,64391f817045fb37d001ec58,2023-04-14_10h43.54.796,PRaM,2021.2.3,Win32,61.85056903,61b8f3437b89212fae0dfadf
3,2.4573,space,0.8965,0,351,351,247,1,,,63b80a8b220f924d975670bc,64391f817045fb37d001ec58,2023-04-14_10h43.54.796,PRaM,2021.2.3,Win32,61.85056903,61b8f3437b89212fae0dfadf
6,2.83,space,1.6442,0,352,352,132,1,,,63b80a8b220f924d975670bc,64391f817045fb37d001ec58,2023-04-14_10h43.54.796,PRaM,2021.2.3,Win32,61.85056903,61b8f3437b89212fae0dfadf
5,2.0396,space,0.497,0,353,353,26,1,,,63b80a8b220f924d975670bc,64391f817045fb37d001ec58,2023-04-14_10h43.54.796,PRaM,2021.2.3,Win32,61.85056903,61b8f3437b89212fae0dfadf
4,3.8257,space,2.265,0,354,354,144,1,,,63b80a8b220f924d975670bc,64391f817045fb37d001ec58,2023-04-14_10h43.54.796,PRaM,2021.2.3,Win32,61.85056903,61b8f3437b89212fae0dfadf
3,3.2135,space,1.598,0,355,355,373,1,,,63b80a8b220f924d975670bc,64391f817045fb37d001ec58,2023-04-14_10h43.54.796,PRaM,2021.2.3,Win32,61.85056903,61b8f3437b89212fae0dfadf
5,9.1141,space,7.5031,0,356,356,267,1,,,63b80a8b220f924d975670bc,64391f817045fb37d001ec58,2023-04-14_10h43.54.796,PRaM,2021.2.3,Win32,61.85056903,61b8f3437b89212fae0dfadf
8,2.1657,space,0.6133,0,357,357,285,1,,,63b80a8b220f924d975670bc,64391f817045fb37d001ec58,2023-04-14_10h43.54.796,PRaM,2021.2.3,Win32,61.85056903,61b8f3437b89212fae0dfadf
8,3.4922,space,1.8536,0,358,358,152,1,,,63b80a8b220f924d975670bc,64391f817045fb37d001ec58,2023-04-14_10h43.54.796,PRaM,2021.2.3,Win32,61.85056903,61b8f3437b89212fae0dfadf
6,4.2231,space,2.5657,0,359,359,153,1,,,63b80a8b220f924d975670bc,64391f817045fb37d001ec58,2023-04-14_10h43.54.796,PRaM,2021.2.3,Win32,61.85056903,61b8f3437b89212fae0dfadf
4,4.0507,space,2.4426,0,360,360,198,1,,,63b80a8b220f924d975670bc,64391f817045fb37d001ec58,2023-04-14_10h43.54.796,PRaM,2021.2.3,Win32,61.85056903,61b8f3437b89212fae0dfadf
7,2.5652,space,0.9818,0,361,361,19,1,,,63b80a8b220f924d975670bc,64391f817045fb37d001ec58,2023-04-14_10h43.54.796,PRaM,2021.2.3,Win32,61.85056903,61b8f3437b89212fae0dfadf
3,3.0498,space,1.4283,0,362,362,37,1,,,63b80a8b220f924d975670bc,64391f817045fb37d001ec58,2023-04-14_10h43.54.796,PRaM,2021.2.3,Win32,61.85056903,61b8f3437b89212fae0dfadf
2,3.366,space,1.7363,0,363,363,359,1,,,63b80a8b220f924d975670bc,64391f817045fb37d001ec58,2023-04-14_10h43.54.796,PRaM,2021.2.3,Win32,61.85056903,61b8f3437b89212fae0dfadf
2,3.048,space,1.5617,0,364,364,265,1,,,63b80a8b220f924d975670bc,64391f817045fb37d001ec58,2023-04-14_10h43.54.796,PRaM,2021.2.3,Win32,61.85056903,61b8f3437b89212fae0dfadf
4,2.5742,space,0.9624,0,365,365,151,1,,,63b80a8b220f924d975670bc,64391f817045fb37d001ec58,2023-04-14_10h43.54.796,PRaM,2021.2.3,Win32,61.85056903,61b8f3437b89212fae0dfadf
6,2.8375,space,1.1976,0,366,366,334,1,,,63b80a8b220f924d975670bc,64391f817045fb37d001ec58,2023-04-14_10h43.54.796,PRaM,2021.2.3,Win32,61.85056903,61b8f3437b89212fae0dfadf
3,5.537,space,3.9052,0,367,367,245,1,,,63b80a8b220f924d975670bc,64391f817045fb37d001ec58,2023-04-14_10h43.54.796,PRaM,2021.2.3,Win32,61.85056903,61b8f3437b89212fae0dfadf
3,3.1306,space,1.6094,0,368,368,138,1,,,63b80a8b220f924d975670bc,64391f817045fb37d001ec58,2023-04-14_10h43.54.796,PRaM,2021.2.3,Win32,61.85056903,61b8f3437b89212fae0dfadf
7,3.0273,space,1.462,0,369,369,298,1,,,63b80a8b220f924d975670bc,64391f817045fb37d001ec58,2023-04-14_10h43.54.796,PRaM,2021.2.3,Win32,61.85056903,61b8f3437b89212fae0dfadf
2,4.7108,space,3.0718,0,370,370,129,1,,,63b80a8b220f924d975670bc,64391f817045fb37d001ec58,2023-04-14_10h43.54.796,PRaM,2021.2.3,Win32,61.85056903,61b8f3437b89212fae0dfadf
2,2.8862,space,1.1617,0,371,371,111,1,,,63b80a8b220f924d975670bc,64391f817045fb37d001ec58,2023-04-14_10h43.54.796,PRaM,2021.2.3,Win32,61.85056903,61b8f3437b89212fae0dfadf
2,3.4623,space,1.8271,0,372,372,28,1,,,63b80a8b220f924d975670bc,64391f817045fb37d001ec58,2023-04-14_10h43.54.796,PRaM,2021.2.3,Win32,61.85056903,61b8f3437b89212fae0dfadf
3,4.438,space,2.779,0,373,373,368,1,,,63b80a8b220f924d975670bc,64391f817045fb37d001ec58,2023-04-14_10h43.54.796,PRaM,2021.2.3,Win32,61.85056903,61b8f3437b89212fae0dfadf
3,2.3299,space,0.6846,0,374,374,96,1,,,63b80a8b220f924d975670bc,64391f817045fb37d001ec58,2023-04-14_10h43.54.796,PRaM,2021.2.3,Win32,61.85056903,61b8f3437b89212fae0dfadf
2,3.2895,space,1.6278,0,375,375,338,1,,,63b80a8b220f924d975670bc,64391f817045fb37d001ec58,2023-04-14_10h43.54.796,PRaM,2021.2.3,Win32,61.85056903,61b8f3437b89212fae0dfadf
7,3.4157,space,1.794,0,376,376,140,1,,,63b80a8b220f924d975670bc,64391f817045fb37d001ec58,2023-04-14_10h43.54.796,PRaM,2021.2.3,Win32,61.85056903,61b8f3437b89212fae0dfadf
3,2.7982,space,1.1609,0,377,377,251,1,,,63b80a8b220f924d975670bc,64391f817045fb37d001ec58,2023-04-14_10h43.54.796,PRaM,2021.2.3,Win32,61.85056903,61b8f3437b89212fae0dfadf
