Rating.response,Rating.rt,EndTrial.keys,EndTrial.rt,trials.thisRepN,trials.thisTrialN,trials.thisN,trials.thisIndex,trials.ran,Pos1,Pos2,participant,session,date,expName,psychopyVersion,OS,frameRate,study_id
2,11.0399,space,14.2688,0,0,0,113,1,,,63d048f601a299dd2bac725e,64377316f229ad1a17a41828,2023-04-13_13h15.07.419,PRaM,2021.2.3,Win32,59.99880002,61b8f3437b89212fae0dfadf
3,529.7114,space,528.5315,0,1,1,48,1,,,63d048f601a299dd2bac725e,64377316f229ad1a17a41828,2023-04-13_13h15.07.419,PRaM,2021.2.3,Win32,59.99880002,61b8f3437b89212fae0dfadf
1,5.6623,space,4.6218,0,2,2,195,1,,,63d048f601a299dd2bac725e,64377316f229ad1a17a41828,2023-04-13_13h15.07.419,PRaM,2021.2.3,Win32,59.99880002,61b8f3437b89212fae0dfadf
5,3.7421,space,2.7057,0,3,3,199,1,,,63d048f601a299dd2bac725e,64377316f229ad1a17a41828,2023-04-13_13h15.07.419,PRaM,2021.2.3,Win32,59.99880002,61b8f3437b89212fae0dfadf
5,3.4786,space,2.1008,0,4,4,178,1,,,63d048f601a299dd2bac725e,64377316f229ad1a17a41828,2023-04-13_13h15.07.419,PRaM,2021.2.3,Win32,59.99880002,61b8f3437b89212fae0dfadf
6,3.7797,space,2.2727,0,5,5,62,1,,,63d048f601a299dd2bac725e,64377316f229ad1a17a41828,2023-04-13_13h15.07.419,PRaM,2021.2.3,Win32,59.99880002,61b8f3437b89212fae0dfadf
2,4.0665,space,2.8467,0,6,6,54,1,,,63d048f601a299dd2bac725e,64377316f229ad1a17a41828,2023-04-13_13h15.07.419,PRaM,2021.2.3,Win32,59.99880002,61b8f3437b89212fae0dfadf
2,7.1488,space,5.6969,0,7,7,55,1,,,63d048f601a299dd2bac725e,64377316f229ad1a17a41828,2023-04-13_13h15.07.419,PRaM,2021.2.3,Win32,59.99880002,61b8f3437b89212fae0dfadf
4,5.6499,space,4.4348,0,8,8,103,1,,,63d048f601a299dd2bac725e,64377316f229ad1a17a41828,2023-04-13_13h15.07.419,PRaM,2021.2.3,Win32,59.99880002,61b8f3437b89212fae0dfadf
7,3.0288,space,2.0826,0,9,9,30,1,,,63d048f601a299dd2bac725e,64377316f229ad1a17a41828,2023-04-13_13h15.07.419,PRaM,2021.2.3,Win32,59.99880002,61b8f3437b89212fae0dfadf
5,5.9491,space,4.784,0,10,10,270,1,,,63d048f601a299dd2bac725e,64377316f229ad1a17a41828,2023-04-13_13h15.07.419,PRaM,2021.2.3,Win32,59.99880002,61b8f3437b89212fae0dfadf
3,4.9084,space,3.748,0,11,11,82,1,,,63d048f601a299dd2bac725e,64377316f229ad1a17a41828,2023-04-13_13h15.07.419,PRaM,2021.2.3,Win32,59.99880002,61b8f3437b89212fae0dfadf
2,3.1522,space,1.7867,0,12,12,49,1,,,63d048f601a299dd2bac725e,64377316f229ad1a17a41828,2023-04-13_13h15.07.419,PRaM,2021.2.3,Win32,59.99880002,61b8f3437b89212fae0dfadf
6,6.0749,space,24.8911,0,13,13,88,1,,,63d048f601a299dd2bac725e,64377316f229ad1a17a41828,2023-04-13_13h15.07.419,PRaM,2021.2.3,Win32,59.99880002,61b8f3437b89212fae0dfadf
3,3.9677,space,3.0719,0,14,14,374,1,,,63d048f601a299dd2bac725e,64377316f229ad1a17a41828,2023-04-13_13h15.07.419,PRaM,2021.2.3,Win32,59.99880002,61b8f3437b89212fae0dfadf
5,3.8225,space,2.5112,0,15,15,165,1,,,63d048f601a299dd2bac725e,64377316f229ad1a17a41828,2023-04-13_13h15.07.419,PRaM,2021.2.3,Win32,59.99880002,61b8f3437b89212fae0dfadf
6,3.34,space,1.8177,0,16,16,194,1,,,63d048f601a299dd2bac725e,64377316f229ad1a17a41828,2023-04-13_13h15.07.419,PRaM,2021.2.3,Win32,59.99880002,61b8f3437b89212fae0dfadf
3,6.6172,space,5.0845,0,17,17,215,1,,,63d048f601a299dd2bac725e,64377316f229ad1a17a41828,2023-04-13_13h15.07.419,PRaM,2021.2.3,Win32,59.99880002,61b8f3437b89212fae0dfadf
5,3.6927,space,2.2707,0,18,18,206,1,,,63d048f601a299dd2bac725e,64377316f229ad1a17a41828,2023-04-13_13h15.07.419,PRaM,2021.2.3,Win32,59.99880002,61b8f3437b89212fae0dfadf
7,16.5686,space,15.4182,0,19,19,61,1,,,63d048f601a299dd2bac725e,64377316f229ad1a17a41828,2023-04-13_13h15.07.419,PRaM,2021.2.3,Win32,59.99880002,61b8f3437b89212fae0dfadf
5,3.3272,space,2.2855,0,20,20,286,1,,,63d048f601a299dd2bac725e,64377316f229ad1a17a41828,2023-04-13_13h15.07.419,PRaM,2021.2.3,Win32,59.99880002,61b8f3437b89212fae0dfadf
7,3.6984,space,2.2171,0,21,21,105,1,,,63d048f601a299dd2bac725e,64377316f229ad1a17a41828,2023-04-13_13h15.07.419,PRaM,2021.2.3,Win32,59.99880002,61b8f3437b89212fae0dfadf
4,6.088,space,4.8521,0,22,22,68,1,,,63d048f601a299dd2bac725e,64377316f229ad1a17a41828,2023-04-13_13h15.07.419,PRaM,2021.2.3,Win32,59.99880002,61b8f3437b89212fae0dfadf
5,2.6644,space,1.5392,0,23,23,311,1,,,63d048f601a299dd2bac725e,64377316f229ad1a17a41828,2023-04-13_13h15.07.419,PRaM,2021.2.3,Win32,59.99880002,61b8f3437b89212fae0dfadf
3,9.8802,space,8.3011,0,24,24,174,1,,,63d048f601a299dd2bac725e,64377316f229ad1a17a41828,2023-04-13_13h15.07.419,PRaM,2021.2.3,Win32,59.99880002,61b8f3437b89212fae0dfadf
6,3.6099,space,2.0716,0,25,25,205,1,,,63d048f601a299dd2bac725e,64377316f229ad1a17a41828,2023-04-13_13h15.07.419,PRaM,2021.2.3,Win32,59.99880002,61b8f3437b89212fae0dfadf
8,3.5333,space,2.0004,0,26,26,38,1,,,63d048f601a299dd2bac725e,64377316f229ad1a17a41828,2023-04-13_13h15.07.419,PRaM,2021.2.3,Win32,59.99880002,61b8f3437b89212fae0dfadf
9,2.9087,space,1.7507,0,27,27,323,1,,,63d048f601a299dd2bac725e,64377316f229ad1a17a41828,2023-04-13_13h15.07.419,PRaM,2021.2.3,Win32,59.99880002,61b8f3437b89212fae0dfadf
4,3.824,space,2.4742,0,28,28,164,1,,,63d048f601a299dd2bac725e,64377316f229ad1a17a41828,2023-04-13_13h15.07.419,PRaM,2021.2.3,Win32,59.99880002,61b8f3437b89212fae0dfadf
4,2.8153,space,1.2706,0,29,29,157,1,,,63d048f601a299dd2bac725e,64377316f229ad1a17a41828,2023-04-13_13h15.07.419,PRaM,2021.2.3,Win32,59.99880002,61b8f3437b89212fae0dfadf
7,2.823,space,1.3728,0,30,30,335,1,,,63d048f601a299dd2bac725e,64377316f229ad1a17a41828,2023-04-13_13h15.07.419,PRaM,2021.2.3,Win32,59.99880002,61b8f3437b89212fae0dfadf
3,3.1132,space,1.4986,0,31,31,133,1,,,63d048f601a299dd2bac725e,64377316f229ad1a17a41828,2023-04-13_13h15.07.419,PRaM,2021.2.3,Win32,59.99880002,61b8f3437b89212fae0dfadf
6,7.3242,space,6.3338,0,32,32,32,1,,,63d048f601a299dd2bac725e,64377316f229ad1a17a41828,2023-04-13_13h15.07.419,PRaM,2021.2.3,Win32,59.99880002,61b8f3437b89212fae0dfadf
5,2.4952,space,0.9887,0,33,33,332,1,,,63d048f601a299dd2bac725e,64377316f229ad1a17a41828,2023-04-13_13h15.07.419,PRaM,2021.2.3,Win32,59.99880002,61b8f3437b89212fae0dfadf
7,6.863,space,5.4705,0,34,34,340,1,,,63d048f601a299dd2bac725e,64377316f229ad1a17a41828,2023-04-13_13h15.07.419,PRaM,2021.2.3,Win32,59.99880002,61b8f3437b89212fae0dfadf
7,2.2511,space,0.7702,0,35,35,331,1,,,63d048f601a299dd2bac725e,64377316f229ad1a17a41828,2023-04-13_13h15.07.419,PRaM,2021.2.3,Win32,59.99880002,61b8f3437b89212fae0dfadf
4,3.2922,space,2.0343,0,36,36,246,1,,,63d048f601a299dd2bac725e,64377316f229ad1a17a41828,2023-04-13_13h15.07.419,PRaM,2021.2.3,Win32,59.99880002,61b8f3437b89212fae0dfadf
5,3.1588,space,1.5536,0,37,37,154,1,,,63d048f601a299dd2bac725e,64377316f229ad1a17a41828,2023-04-13_13h15.07.419,PRaM,2021.2.3,Win32,59.99880002,61b8f3437b89212fae0dfadf
4,7.8002,space,6.2841,0,38,38,249,1,,,63d048f601a299dd2bac725e,64377316f229ad1a17a41828,2023-04-13_13h15.07.419,PRaM,2021.2.3,Win32,59.99880002,61b8f3437b89212fae0dfadf
5,4.479,space,2.9045,0,39,39,352,1,,,63d048f601a299dd2bac725e,64377316f229ad1a17a41828,2023-04-13_13h15.07.419,PRaM,2021.2.3,Win32,59.99880002,61b8f3437b89212fae0dfadf
4,6.8816,space,5.3873,0,40,40,75,1,,,63d048f601a299dd2bac725e,64377316f229ad1a17a41828,2023-04-13_13h15.07.419,PRaM,2021.2.3,Win32,59.99880002,61b8f3437b89212fae0dfadf
5,2.7581,space,1.1684,0,41,41,349,1,,,63d048f601a299dd2bac725e,64377316f229ad1a17a41828,2023-04-13_13h15.07.419,PRaM,2021.2.3,Win32,59.99880002,61b8f3437b89212fae0dfadf
6,3.4257,space,2.0381,0,42,42,307,1,,,63d048f601a299dd2bac725e,64377316f229ad1a17a41828,2023-04-13_13h15.07.419,PRaM,2021.2.3,Win32,59.99880002,61b8f3437b89212fae0dfadf
4,2.9113,space,1.3029,0,43,43,100,1,,,63d048f601a299dd2bac725e,64377316f229ad1a17a41828,2023-04-13_13h15.07.419,PRaM,2021.2.3,Win32,59.99880002,61b8f3437b89212fae0dfadf
6,3.2989,space,1.7168,0,44,44,120,1,,,63d048f601a299dd2bac725e,64377316f229ad1a17a41828,2023-04-13_13h15.07.419,PRaM,2021.2.3,Win32,59.99880002,61b8f3437b89212fae0dfadf
4,3.3503,space,2.3173,0,45,45,338,1,,,63d048f601a299dd2bac725e,64377316f229ad1a17a41828,2023-04-13_13h15.07.419,PRaM,2021.2.3,Win32,59.99880002,61b8f3437b89212fae0dfadf
6,6.4923,space,4.9714,0,46,46,180,1,,,63d048f601a299dd2bac725e,64377316f229ad1a17a41828,2023-04-13_13h15.07.419,PRaM,2021.2.3,Win32,59.99880002,61b8f3437b89212fae0dfadf
4,3.8458,space,2.2081,0,47,47,121,1,,,63d048f601a299dd2bac725e,64377316f229ad1a17a41828,2023-04-13_13h15.07.419,PRaM,2021.2.3,Win32,59.99880002,61b8f3437b89212fae0dfadf
5,7.3478,space,6.0035,0,48,48,152,1,,,63d048f601a299dd2bac725e,64377316f229ad1a17a41828,2023-04-13_13h15.07.419,PRaM,2021.2.3,Win32,59.99880002,61b8f3437b89212fae0dfadf
5,2.8748,space,1.1892,0,49,49,71,1,,,63d048f601a299dd2bac725e,64377316f229ad1a17a41828,2023-04-13_13h15.07.419,PRaM,2021.2.3,Win32,59.99880002,61b8f3437b89212fae0dfadf
6,4.1055,space,2.803,0,50,50,25,1,,,63d048f601a299dd2bac725e,64377316f229ad1a17a41828,2023-04-13_13h15.07.419,PRaM,2021.2.3,Win32,59.99880002,61b8f3437b89212fae0dfadf
7,2.8758,space,1.3667,0,51,51,29,1,,,63d048f601a299dd2bac725e,64377316f229ad1a17a41828,2023-04-13_13h15.07.419,PRaM,2021.2.3,Win32,59.99880002,61b8f3437b89212fae0dfadf
4,3.7824,space,2.5035,0,52,52,295,1,,,63d048f601a299dd2bac725e,64377316f229ad1a17a41828,2023-04-13_13h15.07.419,PRaM,2021.2.3,Win32,59.99880002,61b8f3437b89212fae0dfadf
5,2.9224,space,2.8012,0,53,53,367,1,,,63d048f601a299dd2bac725e,64377316f229ad1a17a41828,2023-04-13_13h15.07.419,PRaM,2021.2.3,Win32,59.99880002,61b8f3437b89212fae0dfadf
6,4.4466,space,2.9508,0,54,54,126,1,,,63d048f601a299dd2bac725e,64377316f229ad1a17a41828,2023-04-13_13h15.07.419,PRaM,2021.2.3,Win32,59.99880002,61b8f3437b89212fae0dfadf
5,4.4755,space,2.934,0,55,55,15,1,,,63d048f601a299dd2bac725e,64377316f229ad1a17a41828,2023-04-13_13h15.07.419,PRaM,2021.2.3,Win32,59.99880002,61b8f3437b89212fae0dfadf
4,2.846,space,1.3535,0,56,56,94,1,,,63d048f601a299dd2bac725e,64377316f229ad1a17a41828,2023-04-13_13h15.07.419,PRaM,2021.2.3,Win32,59.99880002,61b8f3437b89212fae0dfadf
6,11.75,space,10.4375,0,57,57,44,1,,,63d048f601a299dd2bac725e,64377316f229ad1a17a41828,2023-04-13_13h15.07.419,PRaM,2021.2.3,Win32,59.99880002,61b8f3437b89212fae0dfadf
8,4.0484,space,2.5508,0,58,58,207,1,,,63d048f601a299dd2bac725e,64377316f229ad1a17a41828,2023-04-13_13h15.07.419,PRaM,2021.2.3,Win32,59.99880002,61b8f3437b89212fae0dfadf
5,4.2151,space,3.1387,0,59,59,172,1,,,63d048f601a299dd2bac725e,64377316f229ad1a17a41828,2023-04-13_13h15.07.419,PRaM,2021.2.3,Win32,59.99880002,61b8f3437b89212fae0dfadf
9,5.6398,space,4.3012,0,60,60,291,1,,,63d048f601a299dd2bac725e,64377316f229ad1a17a41828,2023-04-13_13h15.07.419,PRaM,2021.2.3,Win32,59.99880002,61b8f3437b89212fae0dfadf
5,3.6219,space,2.0861,0,61,61,324,1,,,63d048f601a299dd2bac725e,64377316f229ad1a17a41828,2023-04-13_13h15.07.419,PRaM,2021.2.3,Win32,59.99880002,61b8f3437b89212fae0dfadf
4,4.4664,space,2.8842,0,62,62,263,1,,,63d048f601a299dd2bac725e,64377316f229ad1a17a41828,2023-04-13_13h15.07.419,PRaM,2021.2.3,Win32,59.99880002,61b8f3437b89212fae0dfadf
6,3.1993,space,1.5702,0,63,63,183,1,,,63d048f601a299dd2bac725e,64377316f229ad1a17a41828,2023-04-13_13h15.07.419,PRaM,2021.2.3,Win32,59.99880002,61b8f3437b89212fae0dfadf
7,4.7547,space,3.3677,0,64,64,159,1,,,63d048f601a299dd2bac725e,64377316f229ad1a17a41828,2023-04-13_13h15.07.419,PRaM,2021.2.3,Win32,59.99880002,61b8f3437b89212fae0dfadf
3,3.6151,space,2.401,0,65,65,91,1,,,63d048f601a299dd2bac725e,64377316f229ad1a17a41828,2023-04-13_13h15.07.419,PRaM,2021.2.3,Win32,59.99880002,61b8f3437b89212fae0dfadf
2,2.7795,space,1.2841,0,66,66,171,1,,,63d048f601a299dd2bac725e,64377316f229ad1a17a41828,2023-04-13_13h15.07.419,PRaM,2021.2.3,Win32,59.99880002,61b8f3437b89212fae0dfadf
3,3.143,space,1.5846,0,67,67,28,1,,,63d048f601a299dd2bac725e,64377316f229ad1a17a41828,2023-04-13_13h15.07.419,PRaM,2021.2.3,Win32,59.99880002,61b8f3437b89212fae0dfadf
5,3.2157,space,1.934,0,68,68,257,1,,,63d048f601a299dd2bac725e,64377316f229ad1a17a41828,2023-04-13_13h15.07.419,PRaM,2021.2.3,Win32,59.99880002,61b8f3437b89212fae0dfadf
3,3.2997,space,2.2946,0,69,69,160,1,,,63d048f601a299dd2bac725e,64377316f229ad1a17a41828,2023-04-13_13h15.07.419,PRaM,2021.2.3,Win32,59.99880002,61b8f3437b89212fae0dfadf
5,2.9914,space,1.4514,0,70,70,377,1,,,63d048f601a299dd2bac725e,64377316f229ad1a17a41828,2023-04-13_13h15.07.419,PRaM,2021.2.3,Win32,59.99880002,61b8f3437b89212fae0dfadf
4,4.9579,space,3.6095,0,71,71,66,1,,,63d048f601a299dd2bac725e,64377316f229ad1a17a41828,2023-04-13_13h15.07.419,PRaM,2021.2.3,Win32,59.99880002,61b8f3437b89212fae0dfadf
6,3.277,space,2.1907,0,72,72,298,1,,,63d048f601a299dd2bac725e,64377316f229ad1a17a41828,2023-04-13_13h15.07.419,PRaM,2021.2.3,Win32,59.99880002,61b8f3437b89212fae0dfadf
5,4.2083,space,2.6636,0,73,73,97,1,,,63d048f601a299dd2bac725e,64377316f229ad1a17a41828,2023-04-13_13h15.07.419,PRaM,2021.2.3,Win32,59.99880002,61b8f3437b89212fae0dfadf
6,5.1327,space,3.8976,0,74,74,12,1,,,63d048f601a299dd2bac725e,64377316f229ad1a17a41828,2023-04-13_13h15.07.419,PRaM,2021.2.3,Win32,59.99880002,61b8f3437b89212fae0dfadf
4,5.1272,space,3.9343,0,75,75,169,1,,,63d048f601a299dd2bac725e,64377316f229ad1a17a41828,2023-04-13_13h15.07.419,PRaM,2021.2.3,Win32,59.99880002,61b8f3437b89212fae0dfadf
3,2.7496,space,1.2174,0,76,76,309,1,,,63d048f601a299dd2bac725e,64377316f229ad1a17a41828,2023-04-13_13h15.07.419,PRaM,2021.2.3,Win32,59.99880002,61b8f3437b89212fae0dfadf
4,5.4148,space,4.0172,0,77,77,158,1,,,63d048f601a299dd2bac725e,64377316f229ad1a17a41828,2023-04-13_13h15.07.419,PRaM,2021.2.3,Win32,59.99880002,61b8f3437b89212fae0dfadf
2,3.1999,space,1.8338,0,78,78,212,1,,,63d048f601a299dd2bac725e,64377316f229ad1a17a41828,2023-04-13_13h15.07.419,PRaM,2021.2.3,Win32,59.99880002,61b8f3437b89212fae0dfadf
7,4.7084,space,3.3007,0,79,79,221,1,,,63d048f601a299dd2bac725e,64377316f229ad1a17a41828,2023-04-13_13h15.07.419,PRaM,2021.2.3,Win32,59.99880002,61b8f3437b89212fae0dfadf
2,3.5655,space,2.0147,0,80,80,78,1,,,63d048f601a299dd2bac725e,64377316f229ad1a17a41828,2023-04-13_13h15.07.419,PRaM,2021.2.3,Win32,59.99880002,61b8f3437b89212fae0dfadf
6,4.2259,space,2.6837,0,81,81,135,1,,,63d048f601a299dd2bac725e,64377316f229ad1a17a41828,2023-04-13_13h15.07.419,PRaM,2021.2.3,Win32,59.99880002,61b8f3437b89212fae0dfadf
7,4.8412,space,3.5328,0,82,82,264,1,,,63d048f601a299dd2bac725e,64377316f229ad1a17a41828,2023-04-13_13h15.07.419,PRaM,2021.2.3,Win32,59.99880002,61b8f3437b89212fae0dfadf
2,36.5416,space,34.95,0,83,83,34,1,,,63d048f601a299dd2bac725e,64377316f229ad1a17a41828,2023-04-13_13h15.07.419,PRaM,2021.2.3,Win32,59.99880002,61b8f3437b89212fae0dfadf
7,5.3161,space,3.7553,0,84,84,313,1,,,63d048f601a299dd2bac725e,64377316f229ad1a17a41828,2023-04-13_13h15.07.419,PRaM,2021.2.3,Win32,59.99880002,61b8f3437b89212fae0dfadf
4,3.7898,space,2.1921,0,85,85,260,1,,,63d048f601a299dd2bac725e,64377316f229ad1a17a41828,2023-04-13_13h15.07.419,PRaM,2021.2.3,Win32,59.99880002,61b8f3437b89212fae0dfadf
9,8.9137,space,7.3992,0,86,86,225,1,,,63d048f601a299dd2bac725e,64377316f229ad1a17a41828,2023-04-13_13h15.07.419,PRaM,2021.2.3,Win32,59.99880002,61b8f3437b89212fae0dfadf
6,4.7588,space,3.1553,0,87,87,20,1,,,63d048f601a299dd2bac725e,64377316f229ad1a17a41828,2023-04-13_13h15.07.419,PRaM,2021.2.3,Win32,59.99880002,61b8f3437b89212fae0dfadf
4,3.6053,space,2.0642,0,88,88,343,1,,,63d048f601a299dd2bac725e,64377316f229ad1a17a41828,2023-04-13_13h15.07.419,PRaM,2021.2.3,Win32,59.99880002,61b8f3437b89212fae0dfadf
1,20.624,space,19.3518,0,89,89,106,1,,,63d048f601a299dd2bac725e,64377316f229ad1a17a41828,2023-04-13_13h15.07.419,PRaM,2021.2.3,Win32,59.99880002,61b8f3437b89212fae0dfadf
3,7.1004,space,5.6148,0,90,90,342,1,,,63d048f601a299dd2bac725e,64377316f229ad1a17a41828,2023-04-13_13h15.07.419,PRaM,2021.2.3,Win32,59.99880002,61b8f3437b89212fae0dfadf
6,3.6054,space,2.0214,0,91,91,358,1,,,63d048f601a299dd2bac725e,64377316f229ad1a17a41828,2023-04-13_13h15.07.419,PRaM,2021.2.3,Win32,59.99880002,61b8f3437b89212fae0dfadf
2,4.7583,space,3.2141,0,92,92,223,1,,,63d048f601a299dd2bac725e,64377316f229ad1a17a41828,2023-04-13_13h15.07.419,PRaM,2021.2.3,Win32,59.99880002,61b8f3437b89212fae0dfadf
7,3.3392,space,1.7217,0,93,93,326,1,,,63d048f601a299dd2bac725e,64377316f229ad1a17a41828,2023-04-13_13h15.07.419,PRaM,2021.2.3,Win32,59.99880002,61b8f3437b89212fae0dfadf
8,2.9296,space,1.514,0,94,94,325,1,,,63d048f601a299dd2bac725e,64377316f229ad1a17a41828,2023-04-13_13h15.07.419,PRaM,2021.2.3,Win32,59.99880002,61b8f3437b89212fae0dfadf
4,4.7285,space,3.1528,0,95,95,219,1,,,63d048f601a299dd2bac725e,64377316f229ad1a17a41828,2023-04-13_13h15.07.419,PRaM,2021.2.3,Win32,59.99880002,61b8f3437b89212fae0dfadf
7,4.3554,space,2.7858,0,96,96,45,1,,,63d048f601a299dd2bac725e,64377316f229ad1a17a41828,2023-04-13_13h15.07.419,PRaM,2021.2.3,Win32,59.99880002,61b8f3437b89212fae0dfadf
5,4.4586,space,2.8343,0,97,97,376,1,,,63d048f601a299dd2bac725e,64377316f229ad1a17a41828,2023-04-13_13h15.07.419,PRaM,2021.2.3,Win32,59.99880002,61b8f3437b89212fae0dfadf
4,5.0326,space,3.5072,0,98,98,93,1,,,63d048f601a299dd2bac725e,64377316f229ad1a17a41828,2023-04-13_13h15.07.419,PRaM,2021.2.3,Win32,59.99880002,61b8f3437b89212fae0dfadf
6,3.6666,space,3.6709,0,99,99,273,1,,,63d048f601a299dd2bac725e,64377316f229ad1a17a41828,2023-04-13_13h15.07.419,PRaM,2021.2.3,Win32,59.99880002,61b8f3437b89212fae0dfadf
8,4.1494,space,2.8404,0,100,100,84,1,,,63d048f601a299dd2bac725e,64377316f229ad1a17a41828,2023-04-13_13h15.07.419,PRaM,2021.2.3,Win32,59.99880002,61b8f3437b89212fae0dfadf
2,7.1342,space,5.9509,0,101,101,275,1,,,63d048f601a299dd2bac725e,64377316f229ad1a17a41828,2023-04-13_13h15.07.419,PRaM,2021.2.3,Win32,59.99880002,61b8f3437b89212fae0dfadf
8,2.85,space,1.5702,0,102,102,137,1,,,63d048f601a299dd2bac725e,64377316f229ad1a17a41828,2023-04-13_13h15.07.419,PRaM,2021.2.3,Win32,59.99880002,61b8f3437b89212fae0dfadf
4,3.4661,space,2.7229,0,103,103,99,1,,,63d048f601a299dd2bac725e,64377316f229ad1a17a41828,2023-04-13_13h15.07.419,PRaM,2021.2.3,Win32,59.99880002,61b8f3437b89212fae0dfadf
4,3.1314,space,1.537,0,104,104,76,1,,,63d048f601a299dd2bac725e,64377316f229ad1a17a41828,2023-04-13_13h15.07.419,PRaM,2021.2.3,Win32,59.99880002,61b8f3437b89212fae0dfadf
7,2.7167,space,1.3142,0,105,105,173,1,,,63d048f601a299dd2bac725e,64377316f229ad1a17a41828,2023-04-13_13h15.07.419,PRaM,2021.2.3,Win32,59.99880002,61b8f3437b89212fae0dfadf
5,3.7754,space,2.2707,0,106,106,119,1,,,63d048f601a299dd2bac725e,64377316f229ad1a17a41828,2023-04-13_13h15.07.419,PRaM,2021.2.3,Win32,59.99880002,61b8f3437b89212fae0dfadf
2,6.8803,space,5.336,0,107,107,109,1,,,63d048f601a299dd2bac725e,64377316f229ad1a17a41828,2023-04-13_13h15.07.419,PRaM,2021.2.3,Win32,59.99880002,61b8f3437b89212fae0dfadf
7,3.3551,space,1.7869,0,108,108,112,1,,,63d048f601a299dd2bac725e,64377316f229ad1a17a41828,2023-04-13_13h15.07.419,PRaM,2021.2.3,Win32,59.99880002,61b8f3437b89212fae0dfadf
5,2.8768,space,1.3642,0,109,109,299,1,,,63d048f601a299dd2bac725e,64377316f229ad1a17a41828,2023-04-13_13h15.07.419,PRaM,2021.2.3,Win32,59.99880002,61b8f3437b89212fae0dfadf
5,4.7256,space,3.3664,0,110,110,26,1,,,63d048f601a299dd2bac725e,64377316f229ad1a17a41828,2023-04-13_13h15.07.419,PRaM,2021.2.3,Win32,59.99880002,61b8f3437b89212fae0dfadf
6,2.6966,space,1.1033,0,111,111,327,1,,,63d048f601a299dd2bac725e,64377316f229ad1a17a41828,2023-04-13_13h15.07.419,PRaM,2021.2.3,Win32,59.99880002,61b8f3437b89212fae0dfadf
1,3.2148,space,1.7686,0,112,112,227,1,,,63d048f601a299dd2bac725e,64377316f229ad1a17a41828,2023-04-13_13h15.07.419,PRaM,2021.2.3,Win32,59.99880002,61b8f3437b89212fae0dfadf
4,3.7303,space,2.1204,0,113,113,261,1,,,63d048f601a299dd2bac725e,64377316f229ad1a17a41828,2023-04-13_13h15.07.419,PRaM,2021.2.3,Win32,59.99880002,61b8f3437b89212fae0dfadf
7,3.313,space,1.7021,0,114,114,4,1,,,63d048f601a299dd2bac725e,64377316f229ad1a17a41828,2023-04-13_13h15.07.419,PRaM,2021.2.3,Win32,59.99880002,61b8f3437b89212fae0dfadf
2,4.6324,space,3.1523,0,115,115,184,1,,,63d048f601a299dd2bac725e,64377316f229ad1a17a41828,2023-04-13_13h15.07.419,PRaM,2021.2.3,Win32,59.99880002,61b8f3437b89212fae0dfadf
6,4.2215,space,2.6372,0,116,116,6,1,,,63d048f601a299dd2bac725e,64377316f229ad1a17a41828,2023-04-13_13h15.07.419,PRaM,2021.2.3,Win32,59.99880002,61b8f3437b89212fae0dfadf
6,6.8338,space,5.3173,0,117,117,80,1,,,63d048f601a299dd2bac725e,64377316f229ad1a17a41828,2023-04-13_13h15.07.419,PRaM,2021.2.3,Win32,59.99880002,61b8f3437b89212fae0dfadf
5,3.525,space,1.943,0,118,118,57,1,,,63d048f601a299dd2bac725e,64377316f229ad1a17a41828,2023-04-13_13h15.07.419,PRaM,2021.2.3,Win32,59.99880002,61b8f3437b89212fae0dfadf
3,24.6218,space,23.2691,0,119,119,148,1,,,63d048f601a299dd2bac725e,64377316f229ad1a17a41828,2023-04-13_13h15.07.419,PRaM,2021.2.3,Win32,59.99880002,61b8f3437b89212fae0dfadf
5,2.3577,space,0.8484,0,120,120,187,1,,,63d048f601a299dd2bac725e,64377316f229ad1a17a41828,2023-04-13_13h15.07.419,PRaM,2021.2.3,Win32,59.99880002,61b8f3437b89212fae0dfadf
2,4.8206,space,3.5542,0,121,121,1,1,,,63d048f601a299dd2bac725e,64377316f229ad1a17a41828,2023-04-13_13h15.07.419,PRaM,2021.2.3,Win32,59.99880002,61b8f3437b89212fae0dfadf
4,9.5961,space,7.9709,0,122,122,226,1,,,63d048f601a299dd2bac725e,64377316f229ad1a17a41828,2023-04-13_13h15.07.419,PRaM,2021.2.3,Win32,59.99880002,61b8f3437b89212fae0dfadf
4,3.1008,space,1.4504,0,123,123,267,1,,,63d048f601a299dd2bac725e,64377316f229ad1a17a41828,2023-04-13_13h15.07.419,PRaM,2021.2.3,Win32,59.99880002,61b8f3437b89212fae0dfadf
2,3.8161,space,2.2639,0,124,124,73,1,,,63d048f601a299dd2bac725e,64377316f229ad1a17a41828,2023-04-13_13h15.07.419,PRaM,2021.2.3,Win32,59.99880002,61b8f3437b89212fae0dfadf
5,20.9441,space,19.6392,0,125,125,144,1,,,63d048f601a299dd2bac725e,64377316f229ad1a17a41828,2023-04-13_13h15.07.419,PRaM,2021.2.3,Win32,59.99880002,61b8f3437b89212fae0dfadf
2,3.6315,space,2.0536,0,126,126,89,1,,,63d048f601a299dd2bac725e,64377316f229ad1a17a41828,2023-04-13_13h15.07.419,PRaM,2021.2.3,Win32,59.99880002,61b8f3437b89212fae0dfadf
3,2.9726,space,2.5192,0,127,127,360,1,,,63d048f601a299dd2bac725e,64377316f229ad1a17a41828,2023-04-13_13h15.07.419,PRaM,2021.2.3,Win32,59.99880002,61b8f3437b89212fae0dfadf
6,4.5002,space,8.4708,0,128,128,147,1,,,63d048f601a299dd2bac725e,64377316f229ad1a17a41828,2023-04-13_13h15.07.419,PRaM,2021.2.3,Win32,59.99880002,61b8f3437b89212fae0dfadf
1,8.9942,space,7.9263,0,129,129,330,1,,,63d048f601a299dd2bac725e,64377316f229ad1a17a41828,2023-04-13_13h15.07.419,PRaM,2021.2.3,Win32,59.99880002,61b8f3437b89212fae0dfadf
3,3.3005,space,1.9846,0,130,130,13,1,,,63d048f601a299dd2bac725e,64377316f229ad1a17a41828,2023-04-13_13h15.07.419,PRaM,2021.2.3,Win32,59.99880002,61b8f3437b89212fae0dfadf
2,3.6151,space,2.0698,0,131,131,250,1,,,63d048f601a299dd2bac725e,64377316f229ad1a17a41828,2023-04-13_13h15.07.419,PRaM,2021.2.3,Win32,59.99880002,61b8f3437b89212fae0dfadf
2,3.5379,space,1.9727,0,132,132,247,1,,,63d048f601a299dd2bac725e,64377316f229ad1a17a41828,2023-04-13_13h15.07.419,PRaM,2021.2.3,Win32,59.99880002,61b8f3437b89212fae0dfadf
6,3.4181,space,1.8071,0,133,133,305,1,,,63d048f601a299dd2bac725e,64377316f229ad1a17a41828,2023-04-13_13h15.07.419,PRaM,2021.2.3,Win32,59.99880002,61b8f3437b89212fae0dfadf
5,3.6756,space,2.0875,0,134,134,294,1,,,63d048f601a299dd2bac725e,64377316f229ad1a17a41828,2023-04-13_13h15.07.419,PRaM,2021.2.3,Win32,59.99880002,61b8f3437b89212fae0dfadf
7,3.3347,space,1.6891,0,135,135,228,1,,,63d048f601a299dd2bac725e,64377316f229ad1a17a41828,2023-04-13_13h15.07.419,PRaM,2021.2.3,Win32,59.99880002,61b8f3437b89212fae0dfadf
5,3.0584,space,1.5011,0,136,136,96,1,,,63d048f601a299dd2bac725e,64377316f229ad1a17a41828,2023-04-13_13h15.07.419,PRaM,2021.2.3,Win32,59.99880002,61b8f3437b89212fae0dfadf
6,3.54,space,1.9008,0,137,137,222,1,,,63d048f601a299dd2bac725e,64377316f229ad1a17a41828,2023-04-13_13h15.07.419,PRaM,2021.2.3,Win32,59.99880002,61b8f3437b89212fae0dfadf
7,3.6632,space,2.1538,0,138,138,179,1,,,63d048f601a299dd2bac725e,64377316f229ad1a17a41828,2023-04-13_13h15.07.419,PRaM,2021.2.3,Win32,59.99880002,61b8f3437b89212fae0dfadf
2,4.2898,space,2.7206,0,139,139,229,1,,,63d048f601a299dd2bac725e,64377316f229ad1a17a41828,2023-04-13_13h15.07.419,PRaM,2021.2.3,Win32,59.99880002,61b8f3437b89212fae0dfadf
6,6.5836,space,4.9237,0,140,140,351,1,,,63d048f601a299dd2bac725e,64377316f229ad1a17a41828,2023-04-13_13h15.07.419,PRaM,2021.2.3,Win32,59.99880002,61b8f3437b89212fae0dfadf
3,3.2222,space,1.821,0,141,141,375,1,,,63d048f601a299dd2bac725e,64377316f229ad1a17a41828,2023-04-13_13h15.07.419,PRaM,2021.2.3,Win32,59.99880002,61b8f3437b89212fae0dfadf
7,4.3796,space,3.0677,0,142,142,166,1,,,63d048f601a299dd2bac725e,64377316f229ad1a17a41828,2023-04-13_13h15.07.419,PRaM,2021.2.3,Win32,59.99880002,61b8f3437b89212fae0dfadf
4,5.8923,space,4.2847,0,143,143,72,1,,,63d048f601a299dd2bac725e,64377316f229ad1a17a41828,2023-04-13_13h15.07.419,PRaM,2021.2.3,Win32,59.99880002,61b8f3437b89212fae0dfadf
2,4.1892,space,2.6008,0,144,144,8,1,,,63d048f601a299dd2bac725e,64377316f229ad1a17a41828,2023-04-13_13h15.07.419,PRaM,2021.2.3,Win32,59.99880002,61b8f3437b89212fae0dfadf
6,2.8758,space,1.2836,0,145,145,274,1,,,63d048f601a299dd2bac725e,64377316f229ad1a17a41828,2023-04-13_13h15.07.419,PRaM,2021.2.3,Win32,59.99880002,61b8f3437b89212fae0dfadf
1,3.3437,space,1.7681,0,146,146,231,1,,,63d048f601a299dd2bac725e,64377316f229ad1a17a41828,2023-04-13_13h15.07.419,PRaM,2021.2.3,Win32,59.99880002,61b8f3437b89212fae0dfadf
7,3.5339,space,1.9851,0,147,147,43,1,,,63d048f601a299dd2bac725e,64377316f229ad1a17a41828,2023-04-13_13h15.07.419,PRaM,2021.2.3,Win32,59.99880002,61b8f3437b89212fae0dfadf
5,5.9442,space,4.3879,0,148,148,150,1,,,63d048f601a299dd2bac725e,64377316f229ad1a17a41828,2023-04-13_13h15.07.419,PRaM,2021.2.3,Win32,59.99880002,61b8f3437b89212fae0dfadf
6,3.9468,space,2.3344,0,149,149,242,1,,,63d048f601a299dd2bac725e,64377316f229ad1a17a41828,2023-04-13_13h15.07.419,PRaM,2021.2.3,Win32,59.99880002,61b8f3437b89212fae0dfadf
4,4.3982,space,3.2417,0,150,150,346,1,,,63d048f601a299dd2bac725e,64377316f229ad1a17a41828,2023-04-13_13h15.07.419,PRaM,2021.2.3,Win32,59.99880002,61b8f3437b89212fae0dfadf
5,4.0337,space,2.3925,0,151,151,359,1,,,63d048f601a299dd2bac725e,64377316f229ad1a17a41828,2023-04-13_13h15.07.419,PRaM,2021.2.3,Win32,59.99880002,61b8f3437b89212fae0dfadf
5,3.5782,space,1.9193,0,152,152,21,1,,,63d048f601a299dd2bac725e,64377316f229ad1a17a41828,2023-04-13_13h15.07.419,PRaM,2021.2.3,Win32,59.99880002,61b8f3437b89212fae0dfadf
1,7.1174,space,5.9181,0,153,153,312,1,,,63d048f601a299dd2bac725e,64377316f229ad1a17a41828,2023-04-13_13h15.07.419,PRaM,2021.2.3,Win32,59.99880002,61b8f3437b89212fae0dfadf
2,2.9923,space,1.4496,0,154,154,67,1,,,63d048f601a299dd2bac725e,64377316f229ad1a17a41828,2023-04-13_13h15.07.419,PRaM,2021.2.3,Win32,59.99880002,61b8f3437b89212fae0dfadf
2,2.3585,space,3.0842,0,155,155,234,1,,,63d048f601a299dd2bac725e,64377316f229ad1a17a41828,2023-04-13_13h15.07.419,PRaM,2021.2.3,Win32,59.99880002,61b8f3437b89212fae0dfadf
5,3.2587,space,1.7414,0,156,156,47,1,,,63d048f601a299dd2bac725e,64377316f229ad1a17a41828,2023-04-13_13h15.07.419,PRaM,2021.2.3,Win32,59.99880002,61b8f3437b89212fae0dfadf
8,29.7328,space,28.9193,0,157,157,7,1,,,63d048f601a299dd2bac725e,64377316f229ad1a17a41828,2023-04-13_13h15.07.419,PRaM,2021.2.3,Win32,59.99880002,61b8f3437b89212fae0dfadf
2,3.4661,space,1.9342,0,158,158,204,1,,,63d048f601a299dd2bac725e,64377316f229ad1a17a41828,2023-04-13_13h15.07.419,PRaM,2021.2.3,Win32,59.99880002,61b8f3437b89212fae0dfadf
3,4.4156,space,2.801,0,159,159,240,1,,,63d048f601a299dd2bac725e,64377316f229ad1a17a41828,2023-04-13_13h15.07.419,PRaM,2021.2.3,Win32,59.99880002,61b8f3437b89212fae0dfadf
6,4.3488,space,2.8209,0,160,160,306,1,,,63d048f601a299dd2bac725e,64377316f229ad1a17a41828,2023-04-13_13h15.07.419,PRaM,2021.2.3,Win32,59.99880002,61b8f3437b89212fae0dfadf
2,10.7343,space,9.138,0,161,161,353,1,,,63d048f601a299dd2bac725e,64377316f229ad1a17a41828,2023-04-13_13h15.07.419,PRaM,2021.2.3,Win32,59.99880002,61b8f3437b89212fae0dfadf
2,5.3823,space,3.8517,0,162,162,203,1,,,63d048f601a299dd2bac725e,64377316f229ad1a17a41828,2023-04-13_13h15.07.419,PRaM,2021.2.3,Win32,59.99880002,61b8f3437b89212fae0dfadf
2,4.1872,space,2.5846,0,163,163,258,1,,,63d048f601a299dd2bac725e,64377316f229ad1a17a41828,2023-04-13_13h15.07.419,PRaM,2021.2.3,Win32,59.99880002,61b8f3437b89212fae0dfadf
6,4.0683,space,2.4343,0,164,164,175,1,,,63d048f601a299dd2bac725e,64377316f229ad1a17a41828,2023-04-13_13h15.07.419,PRaM,2021.2.3,Win32,59.99880002,61b8f3437b89212fae0dfadf
1,2.7796,space,1.2227,0,165,165,292,1,,,63d048f601a299dd2bac725e,64377316f229ad1a17a41828,2023-04-13_13h15.07.419,PRaM,2021.2.3,Win32,59.99880002,61b8f3437b89212fae0dfadf
2,4.2661,space,2.6539,0,166,166,189,1,,,63d048f601a299dd2bac725e,64377316f229ad1a17a41828,2023-04-13_13h15.07.419,PRaM,2021.2.3,Win32,59.99880002,61b8f3437b89212fae0dfadf
2,2.7391,space,1.1005,0,167,167,111,1,,,63d048f601a299dd2bac725e,64377316f229ad1a17a41828,2023-04-13_13h15.07.419,PRaM,2021.2.3,Win32,59.99880002,61b8f3437b89212fae0dfadf
4,3.0922,space,1.5666,0,168,168,155,1,,,63d048f601a299dd2bac725e,64377316f229ad1a17a41828,2023-04-13_13h15.07.419,PRaM,2021.2.3,Win32,59.99880002,61b8f3437b89212fae0dfadf
2,3.5922,space,2.0169,0,169,169,308,1,,,63d048f601a299dd2bac725e,64377316f229ad1a17a41828,2023-04-13_13h15.07.419,PRaM,2021.2.3,Win32,59.99880002,61b8f3437b89212fae0dfadf
5,3.1888,space,1.554,0,170,170,142,1,,,63d048f601a299dd2bac725e,64377316f229ad1a17a41828,2023-04-13_13h15.07.419,PRaM,2021.2.3,Win32,59.99880002,61b8f3437b89212fae0dfadf
2,3.3504,space,1.7505,0,171,171,289,1,,,63d048f601a299dd2bac725e,64377316f229ad1a17a41828,2023-04-13_13h15.07.419,PRaM,2021.2.3,Win32,59.99880002,61b8f3437b89212fae0dfadf
4,3.7517,space,2.1561,0,172,172,128,1,,,63d048f601a299dd2bac725e,64377316f229ad1a17a41828,2023-04-13_13h15.07.419,PRaM,2021.2.3,Win32,59.99880002,61b8f3437b89212fae0dfadf
4,3.7462,space,2.1662,0,173,173,253,1,,,63d048f601a299dd2bac725e,64377316f229ad1a17a41828,2023-04-13_13h15.07.419,PRaM,2021.2.3,Win32,59.99880002,61b8f3437b89212fae0dfadf
7,3.3527,space,1.7537,0,174,174,197,1,,,63d048f601a299dd2bac725e,64377316f229ad1a17a41828,2023-04-13_13h15.07.419,PRaM,2021.2.3,Win32,59.99880002,61b8f3437b89212fae0dfadf
5,6.8801,space,5.2389,0,175,175,220,1,,,63d048f601a299dd2bac725e,64377316f229ad1a17a41828,2023-04-13_13h15.07.419,PRaM,2021.2.3,Win32,59.99880002,61b8f3437b89212fae0dfadf
6,2.9424,space,1.3044,0,176,176,333,1,,,63d048f601a299dd2bac725e,64377316f229ad1a17a41828,2023-04-13_13h15.07.419,PRaM,2021.2.3,Win32,59.99880002,61b8f3437b89212fae0dfadf
6,4.5797,space,3.0511,0,177,177,255,1,,,63d048f601a299dd2bac725e,64377316f229ad1a17a41828,2023-04-13_13h15.07.419,PRaM,2021.2.3,Win32,59.99880002,61b8f3437b89212fae0dfadf
6,3.2474,space,1.6507,0,178,178,87,1,,,63d048f601a299dd2bac725e,64377316f229ad1a17a41828,2023-04-13_13h15.07.419,PRaM,2021.2.3,Win32,59.99880002,61b8f3437b89212fae0dfadf
3,5.5661,space,3.9846,0,179,179,35,1,,,63d048f601a299dd2bac725e,64377316f229ad1a17a41828,2023-04-13_13h15.07.419,PRaM,2021.2.3,Win32,59.99880002,61b8f3437b89212fae0dfadf
5,2.5309,space,0.9237,0,180,180,52,1,,,63d048f601a299dd2bac725e,64377316f229ad1a17a41828,2023-04-13_13h15.07.419,PRaM,2021.2.3,Win32,59.99880002,61b8f3437b89212fae0dfadf
8,3.2186,space,1.7054,0,181,181,42,1,,,63d048f601a299dd2bac725e,64377316f229ad1a17a41828,2023-04-13_13h15.07.419,PRaM,2021.2.3,Win32,59.99880002,61b8f3437b89212fae0dfadf
5,3.9433,space,2.3213,0,182,182,198,1,,,63d048f601a299dd2bac725e,64377316f229ad1a17a41828,2023-04-13_13h15.07.419,PRaM,2021.2.3,Win32,59.99880002,61b8f3437b89212fae0dfadf
6,2.9755,space,1.3673,0,183,183,370,1,,,63d048f601a299dd2bac725e,64377316f229ad1a17a41828,2023-04-13_13h15.07.419,PRaM,2021.2.3,Win32,59.99880002,61b8f3437b89212fae0dfadf
7,3.0467,space,1.4338,0,184,184,64,1,,,63d048f601a299dd2bac725e,64377316f229ad1a17a41828,2023-04-13_13h15.07.419,PRaM,2021.2.3,Win32,59.99880002,61b8f3437b89212fae0dfadf
5,2.6315,space,0.9835,0,185,185,141,1,,,63d048f601a299dd2bac725e,64377316f229ad1a17a41828,2023-04-13_13h15.07.419,PRaM,2021.2.3,Win32,59.99880002,61b8f3437b89212fae0dfadf
5,1.7415,space,0.1501,0,186,186,146,1,,,63d048f601a299dd2bac725e,64377316f229ad1a17a41828,2023-04-13_13h15.07.419,PRaM,2021.2.3,Win32,59.99880002,61b8f3437b89212fae0dfadf
7,4.0195,space,2.4258,0,187,187,334,1,,,63d048f601a299dd2bac725e,64377316f229ad1a17a41828,2023-04-13_13h15.07.419,PRaM,2021.2.3,Win32,59.99880002,61b8f3437b89212fae0dfadf
5,7.4908,space,5.9006,0,188,188,162,1,,,63d048f601a299dd2bac725e,64377316f229ad1a17a41828,2023-04-13_13h15.07.419,PRaM,2021.2.3,Win32,59.99880002,61b8f3437b89212fae0dfadf
5,5.6248,space,4.0206,0,189,189,252,1,,,63d048f601a299dd2bac725e,64377316f229ad1a17a41828,2023-04-13_13h15.07.419,PRaM,2021.2.3,Win32,59.99880002,61b8f3437b89212fae0dfadf
2,3.547,space,2.0173,0,190,190,284,1,,,63d048f601a299dd2bac725e,64377316f229ad1a17a41828,2023-04-13_13h15.07.419,PRaM,2021.2.3,Win32,59.99880002,61b8f3437b89212fae0dfadf
5,3.6302,space,2.1335,0,191,191,22,1,,,63d048f601a299dd2bac725e,64377316f229ad1a17a41828,2023-04-13_13h15.07.419,PRaM,2021.2.3,Win32,59.99880002,61b8f3437b89212fae0dfadf
5,2.1752,space,2.3612,0,192,192,201,1,,,63d048f601a299dd2bac725e,64377316f229ad1a17a41828,2023-04-13_13h15.07.419,PRaM,2021.2.3,Win32,59.99880002,61b8f3437b89212fae0dfadf
7,6.5753,space,5.0708,0,193,193,363,1,,,63d048f601a299dd2bac725e,64377316f229ad1a17a41828,2023-04-13_13h15.07.419,PRaM,2021.2.3,Win32,59.99880002,61b8f3437b89212fae0dfadf
1,3.5971,space,2.034,0,194,194,10,1,,,63d048f601a299dd2bac725e,64377316f229ad1a17a41828,2023-04-13_13h15.07.419,PRaM,2021.2.3,Win32,59.99880002,61b8f3437b89212fae0dfadf
6,3.2604,space,1.6341,0,195,195,366,1,,,63d048f601a299dd2bac725e,64377316f229ad1a17a41828,2023-04-13_13h15.07.419,PRaM,2021.2.3,Win32,59.99880002,61b8f3437b89212fae0dfadf
2,2.8566,space,1.3165,0,196,196,65,1,,,63d048f601a299dd2bac725e,64377316f229ad1a17a41828,2023-04-13_13h15.07.419,PRaM,2021.2.3,Win32,59.99880002,61b8f3437b89212fae0dfadf
1,3.9853,space,2.408,0,197,197,266,1,,,63d048f601a299dd2bac725e,64377316f229ad1a17a41828,2023-04-13_13h15.07.419,PRaM,2021.2.3,Win32,59.99880002,61b8f3437b89212fae0dfadf
5,3.5588,space,1.902,0,198,198,317,1,,,63d048f601a299dd2bac725e,64377316f229ad1a17a41828,2023-04-13_13h15.07.419,PRaM,2021.2.3,Win32,59.99880002,61b8f3437b89212fae0dfadf
3,3.5012,space,1.9006,0,199,199,256,1,,,63d048f601a299dd2bac725e,64377316f229ad1a17a41828,2023-04-13_13h15.07.419,PRaM,2021.2.3,Win32,59.99880002,61b8f3437b89212fae0dfadf
2,5.6516,space,4.1397,0,200,200,24,1,,,63d048f601a299dd2bac725e,64377316f229ad1a17a41828,2023-04-13_13h15.07.419,PRaM,2021.2.3,Win32,59.99880002,61b8f3437b89212fae0dfadf
2,4.1862,space,3.154,0,201,201,90,1,,,63d048f601a299dd2bac725e,64377316f229ad1a17a41828,2023-04-13_13h15.07.419,PRaM,2021.2.3,Win32,59.99880002,61b8f3437b89212fae0dfadf
6,3.6022,space,1.9505,0,202,202,114,1,,,63d048f601a299dd2bac725e,64377316f229ad1a17a41828,2023-04-13_13h15.07.419,PRaM,2021.2.3,Win32,59.99880002,61b8f3437b89212fae0dfadf
7,3.4698,space,1.8014,0,203,203,3,1,,,63d048f601a299dd2bac725e,64377316f229ad1a17a41828,2023-04-13_13h15.07.419,PRaM,2021.2.3,Win32,59.99880002,61b8f3437b89212fae0dfadf
2,2.6259,space,1.0343,0,204,204,214,1,,,63d048f601a299dd2bac725e,64377316f229ad1a17a41828,2023-04-13_13h15.07.419,PRaM,2021.2.3,Win32,59.99880002,61b8f3437b89212fae0dfadf
7,4.7067,space,3.0842,0,205,205,288,1,,,63d048f601a299dd2bac725e,64377316f229ad1a17a41828,2023-04-13_13h15.07.419,PRaM,2021.2.3,Win32,59.99880002,61b8f3437b89212fae0dfadf
6,2.6591,space,1.0193,0,206,206,280,1,,,63d048f601a299dd2bac725e,64377316f229ad1a17a41828,2023-04-13_13h15.07.419,PRaM,2021.2.3,Win32,59.99880002,61b8f3437b89212fae0dfadf
3,2.8963,space,1.2537,0,207,207,27,1,,,63d048f601a299dd2bac725e,64377316f229ad1a17a41828,2023-04-13_13h15.07.419,PRaM,2021.2.3,Win32,59.99880002,61b8f3437b89212fae0dfadf
5,7.1321,space,5.517,0,208,208,348,1,,,63d048f601a299dd2bac725e,64377316f229ad1a17a41828,2023-04-13_13h15.07.419,PRaM,2021.2.3,Win32,59.99880002,61b8f3437b89212fae0dfadf
6,3.8132,space,2.1668,0,209,209,56,1,,,63d048f601a299dd2bac725e,64377316f229ad1a17a41828,2023-04-13_13h15.07.419,PRaM,2021.2.3,Win32,59.99880002,61b8f3437b89212fae0dfadf
4,3.0421,space,1.4202,0,210,210,318,1,,,63d048f601a299dd2bac725e,64377316f229ad1a17a41828,2023-04-13_13h15.07.419,PRaM,2021.2.3,Win32,59.99880002,61b8f3437b89212fae0dfadf
6,2.8944,space,1.4006,0,211,211,372,1,,,63d048f601a299dd2bac725e,64377316f229ad1a17a41828,2023-04-13_13h15.07.419,PRaM,2021.2.3,Win32,59.99880002,61b8f3437b89212fae0dfadf
4,3.4998,space,1.8732,0,212,212,140,1,,,63d048f601a299dd2bac725e,64377316f229ad1a17a41828,2023-04-13_13h15.07.419,PRaM,2021.2.3,Win32,59.99880002,61b8f3437b89212fae0dfadf
7,3.2735,space,1.6843,0,213,213,85,1,,,63d048f601a299dd2bac725e,64377316f229ad1a17a41828,2023-04-13_13h15.07.419,PRaM,2021.2.3,Win32,59.99880002,61b8f3437b89212fae0dfadf
4,5.6718,space,4.0337,0,214,214,361,1,,,63d048f601a299dd2bac725e,64377316f229ad1a17a41828,2023-04-13_13h15.07.419,PRaM,2021.2.3,Win32,59.99880002,61b8f3437b89212fae0dfadf
3,2.9502,space,1.3672,0,215,215,354,1,,,63d048f601a299dd2bac725e,64377316f229ad1a17a41828,2023-04-13_13h15.07.419,PRaM,2021.2.3,Win32,59.99880002,61b8f3437b89212fae0dfadf
2,2.8915,space,1.2671,0,216,216,50,1,,,63d048f601a299dd2bac725e,64377316f229ad1a17a41828,2023-04-13_13h15.07.419,PRaM,2021.2.3,Win32,59.99880002,61b8f3437b89212fae0dfadf
5,3.9257,space,2.3382,0,217,217,272,1,,,63d048f601a299dd2bac725e,64377316f229ad1a17a41828,2023-04-13_13h15.07.419,PRaM,2021.2.3,Win32,59.99880002,61b8f3437b89212fae0dfadf
4,3.4287,space,1.8977,0,218,218,74,1,,,63d048f601a299dd2bac725e,64377316f229ad1a17a41828,2023-04-13_13h15.07.419,PRaM,2021.2.3,Win32,59.99880002,61b8f3437b89212fae0dfadf
5,5.0248,space,3.3508,0,219,219,116,1,,,63d048f601a299dd2bac725e,64377316f229ad1a17a41828,2023-04-13_13h15.07.419,PRaM,2021.2.3,Win32,59.99880002,61b8f3437b89212fae0dfadf
3,3.136,space,1.4845,0,220,220,218,1,,,63d048f601a299dd2bac725e,64377316f229ad1a17a41828,2023-04-13_13h15.07.419,PRaM,2021.2.3,Win32,59.99880002,61b8f3437b89212fae0dfadf
5,2.9472,space,1.3062,0,221,221,355,1,,,63d048f601a299dd2bac725e,64377316f229ad1a17a41828,2023-04-13_13h15.07.419,PRaM,2021.2.3,Win32,59.99880002,61b8f3437b89212fae0dfadf
2,3.1091,space,1.4573,0,222,222,315,1,,,63d048f601a299dd2bac725e,64377316f229ad1a17a41828,2023-04-13_13h15.07.419,PRaM,2021.2.3,Win32,59.99880002,61b8f3437b89212fae0dfadf
6,10.3409,space,8.9177,0,223,223,235,1,,,63d048f601a299dd2bac725e,64377316f229ad1a17a41828,2023-04-13_13h15.07.419,PRaM,2021.2.3,Win32,59.99880002,61b8f3437b89212fae0dfadf
6,8.2491,space,6.6676,0,224,224,86,1,,,63d048f601a299dd2bac725e,64377316f229ad1a17a41828,2023-04-13_13h15.07.419,PRaM,2021.2.3,Win32,59.99880002,61b8f3437b89212fae0dfadf
6,2.4923,space,0.8568,0,225,225,282,1,,,63d048f601a299dd2bac725e,64377316f229ad1a17a41828,2023-04-13_13h15.07.419,PRaM,2021.2.3,Win32,59.99880002,61b8f3437b89212fae0dfadf
2,3.0764,space,1.4669,0,226,226,70,1,,,63d048f601a299dd2bac725e,64377316f229ad1a17a41828,2023-04-13_13h15.07.419,PRaM,2021.2.3,Win32,59.99880002,61b8f3437b89212fae0dfadf
5,12.1412,space,10.5349,0,227,227,281,1,,,63d048f601a299dd2bac725e,64377316f229ad1a17a41828,2023-04-13_13h15.07.419,PRaM,2021.2.3,Win32,59.99880002,61b8f3437b89212fae0dfadf
3,2.8592,space,1.5148,0,228,228,287,1,,,63d048f601a299dd2bac725e,64377316f229ad1a17a41828,2023-04-13_13h15.07.419,PRaM,2021.2.3,Win32,59.99880002,61b8f3437b89212fae0dfadf
6,3.7517,space,2.3175,0,229,229,300,1,,,63d048f601a299dd2bac725e,64377316f229ad1a17a41828,2023-04-13_13h15.07.419,PRaM,2021.2.3,Win32,59.99880002,61b8f3437b89212fae0dfadf
6,2.5764,space,1.0011,0,230,230,213,1,,,63d048f601a299dd2bac725e,64377316f229ad1a17a41828,2023-04-13_13h15.07.419,PRaM,2021.2.3,Win32,59.99880002,61b8f3437b89212fae0dfadf
4,5.4849,space,3.824,0,231,231,95,1,,,63d048f601a299dd2bac725e,64377316f229ad1a17a41828,2023-04-13_13h15.07.419,PRaM,2021.2.3,Win32,59.99880002,61b8f3437b89212fae0dfadf
5,3.1753,space,2.4828,0,232,232,341,1,,,63d048f601a299dd2bac725e,64377316f229ad1a17a41828,2023-04-13_13h15.07.419,PRaM,2021.2.3,Win32,59.99880002,61b8f3437b89212fae0dfadf
5,2.2383,space,0.6344,0,233,233,224,1,,,63d048f601a299dd2bac725e,64377316f229ad1a17a41828,2023-04-13_13h15.07.419,PRaM,2021.2.3,Win32,59.99880002,61b8f3437b89212fae0dfadf
4,2.9659,space,1.4333,0,234,234,293,1,,,63d048f601a299dd2bac725e,64377316f229ad1a17a41828,2023-04-13_13h15.07.419,PRaM,2021.2.3,Win32,59.99880002,61b8f3437b89212fae0dfadf
6,4.0147,space,2.3841,0,235,235,211,1,,,63d048f601a299dd2bac725e,64377316f229ad1a17a41828,2023-04-13_13h15.07.419,PRaM,2021.2.3,Win32,59.99880002,61b8f3437b89212fae0dfadf
6,3.6918,space,2.1692,0,236,236,344,1,,,63d048f601a299dd2bac725e,64377316f229ad1a17a41828,2023-04-13_13h15.07.419,PRaM,2021.2.3,Win32,59.99880002,61b8f3437b89212fae0dfadf
6,7.2054,space,6.3513,0,237,237,51,1,,,63d048f601a299dd2bac725e,64377316f229ad1a17a41828,2023-04-13_13h15.07.419,PRaM,2021.2.3,Win32,59.99880002,61b8f3437b89212fae0dfadf
4,3.079,space,2.0894,0,238,238,2,1,,,63d048f601a299dd2bac725e,64377316f229ad1a17a41828,2023-04-13_13h15.07.419,PRaM,2021.2.3,Win32,59.99880002,61b8f3437b89212fae0dfadf
6,6.0663,space,4.7176,0,239,239,16,1,,,63d048f601a299dd2bac725e,64377316f229ad1a17a41828,2023-04-13_13h15.07.419,PRaM,2021.2.3,Win32,59.99880002,61b8f3437b89212fae0dfadf
4,3.4031,space,1.956,0,240,240,81,1,,,63d048f601a299dd2bac725e,64377316f229ad1a17a41828,2023-04-13_13h15.07.419,PRaM,2021.2.3,Win32,59.99880002,61b8f3437b89212fae0dfadf
2,3.6349,space,2.0173,0,241,241,176,1,,,63d048f601a299dd2bac725e,64377316f229ad1a17a41828,2023-04-13_13h15.07.419,PRaM,2021.2.3,Win32,59.99880002,61b8f3437b89212fae0dfadf
3,5.1055,space,3.4563,0,242,242,163,1,,,63d048f601a299dd2bac725e,64377316f229ad1a17a41828,2023-04-13_13h15.07.419,PRaM,2021.2.3,Win32,59.99880002,61b8f3437b89212fae0dfadf
3,8.5719,space,6.9679,0,243,243,369,1,,,63d048f601a299dd2bac725e,64377316f229ad1a17a41828,2023-04-13_13h15.07.419,PRaM,2021.2.3,Win32,59.99880002,61b8f3437b89212fae0dfadf
5,3.7468,space,2.1005,0,244,244,238,1,,,63d048f601a299dd2bac725e,64377316f229ad1a17a41828,2023-04-13_13h15.07.419,PRaM,2021.2.3,Win32,59.99880002,61b8f3437b89212fae0dfadf
6,4.3991,space,2.9511,0,245,245,156,1,,,63d048f601a299dd2bac725e,64377316f229ad1a17a41828,2023-04-13_13h15.07.419,PRaM,2021.2.3,Win32,59.99880002,61b8f3437b89212fae0dfadf
7,4.3522,space,2.7216,0,246,246,208,1,,,63d048f601a299dd2bac725e,64377316f229ad1a17a41828,2023-04-13_13h15.07.419,PRaM,2021.2.3,Win32,59.99880002,61b8f3437b89212fae0dfadf
8,2.9808,space,1.3836,0,247,247,115,1,,,63d048f601a299dd2bac725e,64377316f229ad1a17a41828,2023-04-13_13h15.07.419,PRaM,2021.2.3,Win32,59.99880002,61b8f3437b89212fae0dfadf
8,2.3939,space,1.1154,0,248,248,127,1,,,63d048f601a299dd2bac725e,64377316f229ad1a17a41828,2023-04-13_13h15.07.419,PRaM,2021.2.3,Win32,59.99880002,61b8f3437b89212fae0dfadf
6,3.669,space,2.0837,0,249,249,200,1,,,63d048f601a299dd2bac725e,64377316f229ad1a17a41828,2023-04-13_13h15.07.419,PRaM,2021.2.3,Win32,59.99880002,61b8f3437b89212fae0dfadf
4,2.5748,space,1.0671,0,250,250,170,1,,,63d048f601a299dd2bac725e,64377316f229ad1a17a41828,2023-04-13_13h15.07.419,PRaM,2021.2.3,Win32,59.99880002,61b8f3437b89212fae0dfadf
4,2.4655,space,1.0334,0,251,251,262,1,,,63d048f601a299dd2bac725e,64377316f229ad1a17a41828,2023-04-13_13h15.07.419,PRaM,2021.2.3,Win32,59.99880002,61b8f3437b89212fae0dfadf
5,4.0595,space,2.5178,0,252,252,357,1,,,63d048f601a299dd2bac725e,64377316f229ad1a17a41828,2023-04-13_13h15.07.419,PRaM,2021.2.3,Win32,59.99880002,61b8f3437b89212fae0dfadf
5,3.5563,space,1.9838,0,253,253,123,1,,,63d048f601a299dd2bac725e,64377316f229ad1a17a41828,2023-04-13_13h15.07.419,PRaM,2021.2.3,Win32,59.99880002,61b8f3437b89212fae0dfadf
6,4.2234,space,2.634,0,254,254,328,1,,,63d048f601a299dd2bac725e,64377316f229ad1a17a41828,2023-04-13_13h15.07.419,PRaM,2021.2.3,Win32,59.99880002,61b8f3437b89212fae0dfadf
5,3.9253,space,2.3709,0,255,255,167,1,,,63d048f601a299dd2bac725e,64377316f229ad1a17a41828,2023-04-13_13h15.07.419,PRaM,2021.2.3,Win32,59.99880002,61b8f3437b89212fae0dfadf
5,5.2462,space,3.6846,0,256,256,46,1,,,63d048f601a299dd2bac725e,64377316f229ad1a17a41828,2023-04-13_13h15.07.419,PRaM,2021.2.3,Win32,59.99880002,61b8f3437b89212fae0dfadf
1,3.4614,space,2.1881,0,257,257,232,1,,,63d048f601a299dd2bac725e,64377316f229ad1a17a41828,2023-04-13_13h15.07.419,PRaM,2021.2.3,Win32,59.99880002,61b8f3437b89212fae0dfadf
5,3.3282,space,1.8005,0,258,258,337,1,,,63d048f601a299dd2bac725e,64377316f229ad1a17a41828,2023-04-13_13h15.07.419,PRaM,2021.2.3,Win32,59.99880002,61b8f3437b89212fae0dfadf
2,5.203,space,4.171,0,259,259,268,1,,,63d048f601a299dd2bac725e,64377316f229ad1a17a41828,2023-04-13_13h15.07.419,PRaM,2021.2.3,Win32,59.99880002,61b8f3437b89212fae0dfadf
7,3.3092,space,2.0331,0,260,260,302,1,,,63d048f601a299dd2bac725e,64377316f229ad1a17a41828,2023-04-13_13h15.07.419,PRaM,2021.2.3,Win32,59.99880002,61b8f3437b89212fae0dfadf
4,3.3896,space,2.0337,0,261,261,316,1,,,63d048f601a299dd2bac725e,64377316f229ad1a17a41828,2023-04-13_13h15.07.419,PRaM,2021.2.3,Win32,59.99880002,61b8f3437b89212fae0dfadf
8,29.2705,space,31.2364,0,262,262,320,1,,,63d048f601a299dd2bac725e,64377316f229ad1a17a41828,2023-04-13_13h15.07.419,PRaM,2021.2.3,Win32,59.99880002,61b8f3437b89212fae0dfadf
6,4.5157,space,3.0841,0,263,263,59,1,,,63d048f601a299dd2bac725e,64377316f229ad1a17a41828,2023-04-13_13h15.07.419,PRaM,2021.2.3,Win32,59.99880002,61b8f3437b89212fae0dfadf
6,3.7536,space,2.251,0,264,264,104,1,,,63d048f601a299dd2bac725e,64377316f229ad1a17a41828,2023-04-13_13h15.07.419,PRaM,2021.2.3,Win32,59.99880002,61b8f3437b89212fae0dfadf
3,5.4049,space,3.8342,0,265,265,191,1,,,63d048f601a299dd2bac725e,64377316f229ad1a17a41828,2023-04-13_13h15.07.419,PRaM,2021.2.3,Win32,59.99880002,61b8f3437b89212fae0dfadf
2,3.2722,space,1.8673,0,266,266,23,1,,,63d048f601a299dd2bac725e,64377316f229ad1a17a41828,2023-04-13_13h15.07.419,PRaM,2021.2.3,Win32,59.99880002,61b8f3437b89212fae0dfadf
2,2.1505,space,0.8035,0,267,267,210,1,,,63d048f601a299dd2bac725e,64377316f229ad1a17a41828,2023-04-13_13h15.07.419,PRaM,2021.2.3,Win32,59.99880002,61b8f3437b89212fae0dfadf
2,2.2664,space,0.6833,0,268,268,265,1,,,63d048f601a299dd2bac725e,64377316f229ad1a17a41828,2023-04-13_13h15.07.419,PRaM,2021.2.3,Win32,59.99880002,61b8f3437b89212fae0dfadf
2,2.0792,space,0.717,0,269,269,245,1,,,63d048f601a299dd2bac725e,64377316f229ad1a17a41828,2023-04-13_13h15.07.419,PRaM,2021.2.3,Win32,59.99880002,61b8f3437b89212fae0dfadf
5,3.556,space,1.9732,0,270,270,145,1,,,63d048f601a299dd2bac725e,64377316f229ad1a17a41828,2023-04-13_13h15.07.419,PRaM,2021.2.3,Win32,59.99880002,61b8f3437b89212fae0dfadf
2,5.4504,space,3.8805,0,271,271,9,1,,,63d048f601a299dd2bac725e,64377316f229ad1a17a41828,2023-04-13_13h15.07.419,PRaM,2021.2.3,Win32,59.99880002,61b8f3437b89212fae0dfadf
4,4.5557,space,2.9738,0,272,272,233,1,,,63d048f601a299dd2bac725e,64377316f229ad1a17a41828,2023-04-13_13h15.07.419,PRaM,2021.2.3,Win32,59.99880002,61b8f3437b89212fae0dfadf
6,6.6991,space,5.1339,0,273,273,304,1,,,63d048f601a299dd2bac725e,64377316f229ad1a17a41828,2023-04-13_13h15.07.419,PRaM,2021.2.3,Win32,59.99880002,61b8f3437b89212fae0dfadf
4,4.2827,space,2.9372,0,274,274,153,1,,,63d048f601a299dd2bac725e,64377316f229ad1a17a41828,2023-04-13_13h15.07.419,PRaM,2021.2.3,Win32,59.99880002,61b8f3437b89212fae0dfadf
4,14.4178,space,12.8073,0,275,275,69,1,,,63d048f601a299dd2bac725e,64377316f229ad1a17a41828,2023-04-13_13h15.07.419,PRaM,2021.2.3,Win32,59.99880002,61b8f3437b89212fae0dfadf
4,2.8087,space,1.5052,0,276,276,347,1,,,63d048f601a299dd2bac725e,64377316f229ad1a17a41828,2023-04-13_13h15.07.419,PRaM,2021.2.3,Win32,59.99880002,61b8f3437b89212fae0dfadf
5,3.6596,space,2.084,0,277,277,368,1,,,63d048f601a299dd2bac725e,64377316f229ad1a17a41828,2023-04-13_13h15.07.419,PRaM,2021.2.3,Win32,59.99880002,61b8f3437b89212fae0dfadf
2,2.8928,space,1.3243,0,278,278,243,1,,,63d048f601a299dd2bac725e,64377316f229ad1a17a41828,2023-04-13_13h15.07.419,PRaM,2021.2.3,Win32,59.99880002,61b8f3437b89212fae0dfadf
3,4.7642,space,3.134,0,279,279,290,1,,,63d048f601a299dd2bac725e,64377316f229ad1a17a41828,2023-04-13_13h15.07.419,PRaM,2021.2.3,Win32,59.99880002,61b8f3437b89212fae0dfadf
3,2.0139,space,0.7175,0,280,280,79,1,,,63d048f601a299dd2bac725e,64377316f229ad1a17a41828,2023-04-13_13h15.07.419,PRaM,2021.2.3,Win32,59.99880002,61b8f3437b89212fae0dfadf
4,4.1338,space,2.5539,0,281,281,345,1,,,63d048f601a299dd2bac725e,64377316f229ad1a17a41828,2023-04-13_13h15.07.419,PRaM,2021.2.3,Win32,59.99880002,61b8f3437b89212fae0dfadf
2,4.1208,space,2.5882,0,282,282,41,1,,,63d048f601a299dd2bac725e,64377316f229ad1a17a41828,2023-04-13_13h15.07.419,PRaM,2021.2.3,Win32,59.99880002,61b8f3437b89212fae0dfadf
5,4.6923,space,3.0838,0,283,283,209,1,,,63d048f601a299dd2bac725e,64377316f229ad1a17a41828,2023-04-13_13h15.07.419,PRaM,2021.2.3,Win32,59.99880002,61b8f3437b89212fae0dfadf
5,1.7479,space,0.1676,0,284,284,362,1,,,63d048f601a299dd2bac725e,64377316f229ad1a17a41828,2023-04-13_13h15.07.419,PRaM,2021.2.3,Win32,59.99880002,61b8f3437b89212fae0dfadf
2,3.2855,space,1.7169,0,285,285,129,1,,,63d048f601a299dd2bac725e,64377316f229ad1a17a41828,2023-04-13_13h15.07.419,PRaM,2021.2.3,Win32,59.99880002,61b8f3437b89212fae0dfadf
4,3.9028,space,2.7508,0,286,286,182,1,,,63d048f601a299dd2bac725e,64377316f229ad1a17a41828,2023-04-13_13h15.07.419,PRaM,2021.2.3,Win32,59.99880002,61b8f3437b89212fae0dfadf
7,3.2759,space,1.8669,0,287,287,33,1,,,63d048f601a299dd2bac725e,64377316f229ad1a17a41828,2023-04-13_13h15.07.419,PRaM,2021.2.3,Win32,59.99880002,61b8f3437b89212fae0dfadf
5,7.5426,space,6.001,0,288,288,303,1,,,63d048f601a299dd2bac725e,64377316f229ad1a17a41828,2023-04-13_13h15.07.419,PRaM,2021.2.3,Win32,59.99880002,61b8f3437b89212fae0dfadf
4,3.8842,space,2.255,0,289,289,216,1,,,63d048f601a299dd2bac725e,64377316f229ad1a17a41828,2023-04-13_13h15.07.419,PRaM,2021.2.3,Win32,59.99880002,61b8f3437b89212fae0dfadf
7,2.8623,space,1.5521,0,290,290,278,1,,,63d048f601a299dd2bac725e,64377316f229ad1a17a41828,2023-04-13_13h15.07.419,PRaM,2021.2.3,Win32,59.99880002,61b8f3437b89212fae0dfadf
6,3.3895,space,1.7672,0,291,291,254,1,,,63d048f601a299dd2bac725e,64377316f229ad1a17a41828,2023-04-13_13h15.07.419,PRaM,2021.2.3,Win32,59.99880002,61b8f3437b89212fae0dfadf
7,2.8985,space,1.5192,0,292,292,277,1,,,63d048f601a299dd2bac725e,64377316f229ad1a17a41828,2023-04-13_13h15.07.419,PRaM,2021.2.3,Win32,59.99880002,61b8f3437b89212fae0dfadf
7,2.7152,space,1.1035,0,293,293,0,1,,,63d048f601a299dd2bac725e,64377316f229ad1a17a41828,2023-04-13_13h15.07.419,PRaM,2021.2.3,Win32,59.99880002,61b8f3437b89212fae0dfadf
5,4.6827,space,3.0773,0,294,294,241,1,,,63d048f601a299dd2bac725e,64377316f229ad1a17a41828,2023-04-13_13h15.07.419,PRaM,2021.2.3,Win32,59.99880002,61b8f3437b89212fae0dfadf
4,4.271,space,2.6177,0,295,295,251,1,,,63d048f601a299dd2bac725e,64377316f229ad1a17a41828,2023-04-13_13h15.07.419,PRaM,2021.2.3,Win32,59.99880002,61b8f3437b89212fae0dfadf
7,8.4593,space,6.9341,0,296,296,301,1,,,63d048f601a299dd2bac725e,64377316f229ad1a17a41828,2023-04-13_13h15.07.419,PRaM,2021.2.3,Win32,59.99880002,61b8f3437b89212fae0dfadf
7,3.4399,space,1.7561,0,297,297,60,1,,,63d048f601a299dd2bac725e,64377316f229ad1a17a41828,2023-04-13_13h15.07.419,PRaM,2021.2.3,Win32,59.99880002,61b8f3437b89212fae0dfadf
4,3.1164,space,1.6316,0,298,298,18,1,,,63d048f601a299dd2bac725e,64377316f229ad1a17a41828,2023-04-13_13h15.07.419,PRaM,2021.2.3,Win32,59.99880002,61b8f3437b89212fae0dfadf
3,3.1186,space,1.533,0,299,299,122,1,,,63d048f601a299dd2bac725e,64377316f229ad1a17a41828,2023-04-13_13h15.07.419,PRaM,2021.2.3,Win32,59.99880002,61b8f3437b89212fae0dfadf
6,5.5037,space,3.9,0,300,300,244,1,,,63d048f601a299dd2bac725e,64377316f229ad1a17a41828,2023-04-13_13h15.07.419,PRaM,2021.2.3,Win32,59.99880002,61b8f3437b89212fae0dfadf
5,2.8579,space,1.2508,0,301,301,356,1,,,63d048f601a299dd2bac725e,64377316f229ad1a17a41828,2023-04-13_13h15.07.419,PRaM,2021.2.3,Win32,59.99880002,61b8f3437b89212fae0dfadf
3,4.3572,space,2.7517,0,302,302,188,1,,,63d048f601a299dd2bac725e,64377316f229ad1a17a41828,2023-04-13_13h15.07.419,PRaM,2021.2.3,Win32,59.99880002,61b8f3437b89212fae0dfadf
7,3.416,space,1.8349,0,303,303,269,1,,,63d048f601a299dd2bac725e,64377316f229ad1a17a41828,2023-04-13_13h15.07.419,PRaM,2021.2.3,Win32,59.99880002,61b8f3437b89212fae0dfadf
3,3.083,space,1.5848,0,304,304,283,1,,,63d048f601a299dd2bac725e,64377316f229ad1a17a41828,2023-04-13_13h15.07.419,PRaM,2021.2.3,Win32,59.99880002,61b8f3437b89212fae0dfadf
5,6.4581,space,4.9136,0,305,305,118,1,,,63d048f601a299dd2bac725e,64377316f229ad1a17a41828,2023-04-13_13h15.07.419,PRaM,2021.2.3,Win32,59.99880002,61b8f3437b89212fae0dfadf
6,3.6076,space,1.9677,0,306,306,296,1,,,63d048f601a299dd2bac725e,64377316f229ad1a17a41828,2023-04-13_13h15.07.419,PRaM,2021.2.3,Win32,59.99880002,61b8f3437b89212fae0dfadf
6,4.1897,space,2.6709,0,307,307,132,1,,,63d048f601a299dd2bac725e,64377316f229ad1a17a41828,2023-04-13_13h15.07.419,PRaM,2021.2.3,Win32,59.99880002,61b8f3437b89212fae0dfadf
5,11.283,space,9.8652,0,308,308,365,1,,,63d048f601a299dd2bac725e,64377316f229ad1a17a41828,2023-04-13_13h15.07.419,PRaM,2021.2.3,Win32,59.99880002,61b8f3437b89212fae0dfadf
7,2.8198,space,1.188,0,309,309,136,1,,,63d048f601a299dd2bac725e,64377316f229ad1a17a41828,2023-04-13_13h15.07.419,PRaM,2021.2.3,Win32,59.99880002,61b8f3437b89212fae0dfadf
4,3.2689,space,1.6336,0,310,310,138,1,,,63d048f601a299dd2bac725e,64377316f229ad1a17a41828,2023-04-13_13h15.07.419,PRaM,2021.2.3,Win32,59.99880002,61b8f3437b89212fae0dfadf
2,3.9538,space,2.318,0,311,311,190,1,,,63d048f601a299dd2bac725e,64377316f229ad1a17a41828,2023-04-13_13h15.07.419,PRaM,2021.2.3,Win32,59.99880002,61b8f3437b89212fae0dfadf
2,2.7169,space,1.1245,0,312,312,36,1,,,63d048f601a299dd2bac725e,64377316f229ad1a17a41828,2023-04-13_13h15.07.419,PRaM,2021.2.3,Win32,59.99880002,61b8f3437b89212fae0dfadf
4,3.3168,space,1.7146,0,313,313,364,1,,,63d048f601a299dd2bac725e,64377316f229ad1a17a41828,2023-04-13_13h15.07.419,PRaM,2021.2.3,Win32,59.99880002,61b8f3437b89212fae0dfadf
2,2.5805,space,1.4521,0,314,314,339,1,,,63d048f601a299dd2bac725e,64377316f229ad1a17a41828,2023-04-13_13h15.07.419,PRaM,2021.2.3,Win32,59.99880002,61b8f3437b89212fae0dfadf
6,3.7233,space,2.2368,0,315,315,40,1,,,63d048f601a299dd2bac725e,64377316f229ad1a17a41828,2023-04-13_13h15.07.419,PRaM,2021.2.3,Win32,59.99880002,61b8f3437b89212fae0dfadf
6,9.8879,space,8.3186,0,316,316,83,1,,,63d048f601a299dd2bac725e,64377316f229ad1a17a41828,2023-04-13_13h15.07.419,PRaM,2021.2.3,Win32,59.99880002,61b8f3437b89212fae0dfadf
3,2.914,space,1.3071,0,317,317,11,1,,,63d048f601a299dd2bac725e,64377316f229ad1a17a41828,2023-04-13_13h15.07.419,PRaM,2021.2.3,Win32,59.99880002,61b8f3437b89212fae0dfadf
4,4.8789,space,3.2847,0,318,318,236,1,,,63d048f601a299dd2bac725e,64377316f229ad1a17a41828,2023-04-13_13h15.07.419,PRaM,2021.2.3,Win32,59.99880002,61b8f3437b89212fae0dfadf
2,3.4837,space,1.8338,0,319,319,39,1,,,63d048f601a299dd2bac725e,64377316f229ad1a17a41828,2023-04-13_13h15.07.419,PRaM,2021.2.3,Win32,59.99880002,61b8f3437b89212fae0dfadf
2,1.9086,space,0.3671,0,320,320,248,1,,,63d048f601a299dd2bac725e,64377316f229ad1a17a41828,2023-04-13_13h15.07.419,PRaM,2021.2.3,Win32,59.99880002,61b8f3437b89212fae0dfadf
6,3.2505,space,1.6567,0,321,321,259,1,,,63d048f601a299dd2bac725e,64377316f229ad1a17a41828,2023-04-13_13h15.07.419,PRaM,2021.2.3,Win32,59.99880002,61b8f3437b89212fae0dfadf
7,4.368,space,2.6856,0,322,322,102,1,,,63d048f601a299dd2bac725e,64377316f229ad1a17a41828,2023-04-13_13h15.07.419,PRaM,2021.2.3,Win32,59.99880002,61b8f3437b89212fae0dfadf
7,2.7048,space,1.1008,0,323,323,53,1,,,63d048f601a299dd2bac725e,64377316f229ad1a17a41828,2023-04-13_13h15.07.419,PRaM,2021.2.3,Win32,59.99880002,61b8f3437b89212fae0dfadf
3,3.353,space,1.8502,0,324,324,193,1,,,63d048f601a299dd2bac725e,64377316f229ad1a17a41828,2023-04-13_13h15.07.419,PRaM,2021.2.3,Win32,59.99880002,61b8f3437b89212fae0dfadf
3,2.4405,space,0.808,0,325,325,5,1,,,63d048f601a299dd2bac725e,64377316f229ad1a17a41828,2023-04-13_13h15.07.419,PRaM,2021.2.3,Win32,59.99880002,61b8f3437b89212fae0dfadf
4,3.2986,space,1.6736,0,326,326,350,1,,,63d048f601a299dd2bac725e,64377316f229ad1a17a41828,2023-04-13_13h15.07.419,PRaM,2021.2.3,Win32,59.99880002,61b8f3437b89212fae0dfadf
7,8.0182,space,6.4176,0,327,327,117,1,,,63d048f601a299dd2bac725e,64377316f229ad1a17a41828,2023-04-13_13h15.07.419,PRaM,2021.2.3,Win32,59.99880002,61b8f3437b89212fae0dfadf
3,2.9743,space,1.3836,0,328,328,143,1,,,63d048f601a299dd2bac725e,64377316f229ad1a17a41828,2023-04-13_13h15.07.419,PRaM,2021.2.3,Win32,59.99880002,61b8f3437b89212fae0dfadf
1,4.5993,space,3.0341,0,329,329,107,1,,,63d048f601a299dd2bac725e,64377316f229ad1a17a41828,2023-04-13_13h15.07.419,PRaM,2021.2.3,Win32,59.99880002,61b8f3437b89212fae0dfadf
6,3.4263,space,3.3177,0,330,330,168,1,,,63d048f601a299dd2bac725e,64377316f229ad1a17a41828,2023-04-13_13h15.07.419,PRaM,2021.2.3,Win32,59.99880002,61b8f3437b89212fae0dfadf
5,3.0455,space,1.5504,0,331,331,237,1,,,63d048f601a299dd2bac725e,64377316f229ad1a17a41828,2023-04-13_13h15.07.419,PRaM,2021.2.3,Win32,59.99880002,61b8f3437b89212fae0dfadf
4,2.7729,space,1.1529,0,332,332,92,1,,,63d048f601a299dd2bac725e,64377316f229ad1a17a41828,2023-04-13_13h15.07.419,PRaM,2021.2.3,Win32,59.99880002,61b8f3437b89212fae0dfadf
2,3.1799,space,1.5255,0,333,333,130,1,,,63d048f601a299dd2bac725e,64377316f229ad1a17a41828,2023-04-13_13h15.07.419,PRaM,2021.2.3,Win32,59.99880002,61b8f3437b89212fae0dfadf
5,2.692,space,1.1011,0,334,334,371,1,,,63d048f601a299dd2bac725e,64377316f229ad1a17a41828,2023-04-13_13h15.07.419,PRaM,2021.2.3,Win32,59.99880002,61b8f3437b89212fae0dfadf
5,2.1979,space,0.636,0,335,335,124,1,,,63d048f601a299dd2bac725e,64377316f229ad1a17a41828,2023-04-13_13h15.07.419,PRaM,2021.2.3,Win32,59.99880002,61b8f3437b89212fae0dfadf
7,6.3385,space,4.7011,0,336,336,139,1,,,63d048f601a299dd2bac725e,64377316f229ad1a17a41828,2023-04-13_13h15.07.419,PRaM,2021.2.3,Win32,59.99880002,61b8f3437b89212fae0dfadf
5,2.5421,space,0.9176,0,337,337,77,1,,,63d048f601a299dd2bac725e,64377316f229ad1a17a41828,2023-04-13_13h15.07.419,PRaM,2021.2.3,Win32,59.99880002,61b8f3437b89212fae0dfadf
4,4.0519,space,2.4009,0,338,338,31,1,,,63d048f601a299dd2bac725e,64377316f229ad1a17a41828,2023-04-13_13h15.07.419,PRaM,2021.2.3,Win32,59.99880002,61b8f3437b89212fae0dfadf
6,3.8043,space,2.2375,0,339,339,186,1,,,63d048f601a299dd2bac725e,64377316f229ad1a17a41828,2023-04-13_13h15.07.419,PRaM,2021.2.3,Win32,59.99880002,61b8f3437b89212fae0dfadf
4,4.2899,space,2.6537,0,340,340,181,1,,,63d048f601a299dd2bac725e,64377316f229ad1a17a41828,2023-04-13_13h15.07.419,PRaM,2021.2.3,Win32,59.99880002,61b8f3437b89212fae0dfadf
3,3.8659,space,2.2136,0,341,341,37,1,,,63d048f601a299dd2bac725e,64377316f229ad1a17a41828,2023-04-13_13h15.07.419,PRaM,2021.2.3,Win32,59.99880002,61b8f3437b89212fae0dfadf
7,4.838,space,3.2334,0,342,342,98,1,,,63d048f601a299dd2bac725e,64377316f229ad1a17a41828,2023-04-13_13h15.07.419,PRaM,2021.2.3,Win32,59.99880002,61b8f3437b89212fae0dfadf
7,2.659,space,1.0332,0,343,343,192,1,,,63d048f601a299dd2bac725e,64377316f229ad1a17a41828,2023-04-13_13h15.07.419,PRaM,2021.2.3,Win32,59.99880002,61b8f3437b89212fae0dfadf
2,3.2017,space,1.5668,0,344,344,108,1,,,63d048f601a299dd2bac725e,64377316f229ad1a17a41828,2023-04-13_13h15.07.419,PRaM,2021.2.3,Win32,59.99880002,61b8f3437b89212fae0dfadf
8,5.426,space,3.9003,0,345,345,17,1,,,63d048f601a299dd2bac725e,64377316f229ad1a17a41828,2023-04-13_13h15.07.419,PRaM,2021.2.3,Win32,59.99880002,61b8f3437b89212fae0dfadf
6,4.5301,space,3.3676,0,346,346,230,1,,,63d048f601a299dd2bac725e,64377316f229ad1a17a41828,2023-04-13_13h15.07.419,PRaM,2021.2.3,Win32,59.99880002,61b8f3437b89212fae0dfadf
7,2.4986,space,0.8669,0,347,347,196,1,,,63d048f601a299dd2bac725e,64377316f229ad1a17a41828,2023-04-13_13h15.07.419,PRaM,2021.2.3,Win32,59.99880002,61b8f3437b89212fae0dfadf
3,2.5229,space,0.9508,0,348,348,58,1,,,63d048f601a299dd2bac725e,64377316f229ad1a17a41828,2023-04-13_13h15.07.419,PRaM,2021.2.3,Win32,59.99880002,61b8f3437b89212fae0dfadf
2,3.092,space,1.4205,0,349,349,329,1,,,63d048f601a299dd2bac725e,64377316f229ad1a17a41828,2023-04-13_13h15.07.419,PRaM,2021.2.3,Win32,59.99880002,61b8f3437b89212fae0dfadf
4,3.0321,space,1.7342,0,350,350,125,1,,,63d048f601a299dd2bac725e,64377316f229ad1a17a41828,2023-04-13_13h15.07.419,PRaM,2021.2.3,Win32,59.99880002,61b8f3437b89212fae0dfadf
9,3.2154,space,1.8507,0,351,351,276,1,,,63d048f601a299dd2bac725e,64377316f229ad1a17a41828,2023-04-13_13h15.07.419,PRaM,2021.2.3,Win32,59.99880002,61b8f3437b89212fae0dfadf
7,3.0021,space,1.3996,0,352,352,110,1,,,63d048f601a299dd2bac725e,64377316f229ad1a17a41828,2023-04-13_13h15.07.419,PRaM,2021.2.3,Win32,59.99880002,61b8f3437b89212fae0dfadf
8,2.9415,space,1.2845,0,353,353,14,1,,,63d048f601a299dd2bac725e,64377316f229ad1a17a41828,2023-04-13_13h15.07.419,PRaM,2021.2.3,Win32,59.99880002,61b8f3437b89212fae0dfadf
7,3.0645,space,1.4143,0,354,354,19,1,,,63d048f601a299dd2bac725e,64377316f229ad1a17a41828,2023-04-13_13h15.07.419,PRaM,2021.2.3,Win32,59.99880002,61b8f3437b89212fae0dfadf
6,3.6933,space,1.9518,0,355,355,239,1,,,63d048f601a299dd2bac725e,64377316f229ad1a17a41828,2023-04-13_13h15.07.419,PRaM,2021.2.3,Win32,59.99880002,61b8f3437b89212fae0dfadf
5,2.8489,space,1.3675,0,356,356,149,1,,,63d048f601a299dd2bac725e,64377316f229ad1a17a41828,2023-04-13_13h15.07.419,PRaM,2021.2.3,Win32,59.99880002,61b8f3437b89212fae0dfadf
5,4.0335,space,2.401,0,357,357,271,1,,,63d048f601a299dd2bac725e,64377316f229ad1a17a41828,2023-04-13_13h15.07.419,PRaM,2021.2.3,Win32,59.99880002,61b8f3437b89212fae0dfadf
6,2.6824,space,1.0799,0,358,358,297,1,,,63d048f601a299dd2bac725e,64377316f229ad1a17a41828,2023-04-13_13h15.07.419,PRaM,2021.2.3,Win32,59.99880002,61b8f3437b89212fae0dfadf
4,2.6514,space,1.0843,0,359,359,321,1,,,63d048f601a299dd2bac725e,64377316f229ad1a17a41828,2023-04-13_13h15.07.419,PRaM,2021.2.3,Win32,59.99880002,61b8f3437b89212fae0dfadf
7,2.8321,space,1.1665,0,360,360,134,1,,,63d048f601a299dd2bac725e,64377316f229ad1a17a41828,2023-04-13_13h15.07.419,PRaM,2021.2.3,Win32,59.99880002,61b8f3437b89212fae0dfadf
5,4.5076,space,2.8801,0,361,361,202,1,,,63d048f601a299dd2bac725e,64377316f229ad1a17a41828,2023-04-13_13h15.07.419,PRaM,2021.2.3,Win32,59.99880002,61b8f3437b89212fae0dfadf
6,3.4568,space,1.7674,0,362,362,310,1,,,63d048f601a299dd2bac725e,64377316f229ad1a17a41828,2023-04-13_13h15.07.419,PRaM,2021.2.3,Win32,59.99880002,61b8f3437b89212fae0dfadf
4,3.3245,space,1.6511,0,363,363,161,1,,,63d048f601a299dd2bac725e,64377316f229ad1a17a41828,2023-04-13_13h15.07.419,PRaM,2021.2.3,Win32,59.99880002,61b8f3437b89212fae0dfadf
5,2.6947,space,0.7847,0,364,364,322,1,,,63d048f601a299dd2bac725e,64377316f229ad1a17a41828,2023-04-13_13h15.07.419,PRaM,2021.2.3,Win32,59.99880002,61b8f3437b89212fae0dfadf
7,3.123,space,1.4963,0,365,365,319,1,,,63d048f601a299dd2bac725e,64377316f229ad1a17a41828,2023-04-13_13h15.07.419,PRaM,2021.2.3,Win32,59.99880002,61b8f3437b89212fae0dfadf
3,3.2066,space,1.5473,0,366,366,63,1,,,63d048f601a299dd2bac725e,64377316f229ad1a17a41828,2023-04-13_13h15.07.419,PRaM,2021.2.3,Win32,59.99880002,61b8f3437b89212fae0dfadf
3,9.3725,space,7.7345,0,367,367,131,1,,,63d048f601a299dd2bac725e,64377316f229ad1a17a41828,2023-04-13_13h15.07.419,PRaM,2021.2.3,Win32,59.99880002,61b8f3437b89212fae0dfadf
6,3.3589,space,1.6704,0,368,368,336,1,,,63d048f601a299dd2bac725e,64377316f229ad1a17a41828,2023-04-13_13h15.07.419,PRaM,2021.2.3,Win32,59.99880002,61b8f3437b89212fae0dfadf
4,2.8325,space,1.1836,0,369,369,373,1,,,63d048f601a299dd2bac725e,64377316f229ad1a17a41828,2023-04-13_13h15.07.419,PRaM,2021.2.3,Win32,59.99880002,61b8f3437b89212fae0dfadf
3,5.8155,space,4.1882,0,370,370,185,1,,,63d048f601a299dd2bac725e,64377316f229ad1a17a41828,2023-04-13_13h15.07.419,PRaM,2021.2.3,Win32,59.99880002,61b8f3437b89212fae0dfadf
5,3.026,space,1.3888,0,371,371,101,1,,,63d048f601a299dd2bac725e,64377316f229ad1a17a41828,2023-04-13_13h15.07.419,PRaM,2021.2.3,Win32,59.99880002,61b8f3437b89212fae0dfadf
4,3.587,space,1.888,0,372,372,151,1,,,63d048f601a299dd2bac725e,64377316f229ad1a17a41828,2023-04-13_13h15.07.419,PRaM,2021.2.3,Win32,59.99880002,61b8f3437b89212fae0dfadf
7,3.5822,space,1.8859,0,373,373,279,1,,,63d048f601a299dd2bac725e,64377316f229ad1a17a41828,2023-04-13_13h15.07.419,PRaM,2021.2.3,Win32,59.99880002,61b8f3437b89212fae0dfadf
2,3.0956,space,1.4333,0,374,374,217,1,,,63d048f601a299dd2bac725e,64377316f229ad1a17a41828,2023-04-13_13h15.07.419,PRaM,2021.2.3,Win32,59.99880002,61b8f3437b89212fae0dfadf
6,3.3261,space,1.6235,0,375,375,177,1,,,63d048f601a299dd2bac725e,64377316f229ad1a17a41828,2023-04-13_13h15.07.419,PRaM,2021.2.3,Win32,59.99880002,61b8f3437b89212fae0dfadf
6,2.1836,space,0.5402,0,376,376,285,1,,,63d048f601a299dd2bac725e,64377316f229ad1a17a41828,2023-04-13_13h15.07.419,PRaM,2021.2.3,Win32,59.99880002,61b8f3437b89212fae0dfadf
4,4.0523,space,2.3674,0,377,377,314,1,,,63d048f601a299dd2bac725e,64377316f229ad1a17a41828,2023-04-13_13h15.07.419,PRaM,2021.2.3,Win32,59.99880002,61b8f3437b89212fae0dfadf
