Rating.response,Rating.rt,EndTrial.keys,EndTrial.rt,trials.thisRepN,trials.thisTrialN,trials.thisN,trials.thisIndex,trials.ran,Pos1,Pos2,participant,session,date,expName,psychopyVersion,OS,frameRate,study_id
8,15.1849,space,17.9926,0,0,0,85,1,,,63ea669ce46739b08786f07b,643773844fdd37dcd032b712,04-13-2023_04h19.27.521,PRaM,2021.2.3,Win32,29.98860433,61b8f3437b89212fae0dfade
1,13.849,space,12.3441,0,1,1,41,1,,,63ea669ce46739b08786f07b,643773844fdd37dcd032b712,04-13-2023_04h19.27.521,PRaM,2021.2.3,Win32,29.98860433,61b8f3437b89212fae0dfade
1,4.0183,space,2.5855,0,2,2,358,1,,,63ea669ce46739b08786f07b,643773844fdd37dcd032b712,04-13-2023_04h19.27.521,PRaM,2021.2.3,Win32,29.98860433,61b8f3437b89212fae0dfade
1,2.5444,space,1.2993,0,3,3,300,1,,,63ea669ce46739b08786f07b,643773844fdd37dcd032b712,04-13-2023_04h19.27.521,PRaM,2021.2.3,Win32,29.98860433,61b8f3437b89212fae0dfade
1,2.3202,space,0.7347,0,4,4,77,1,,,63ea669ce46739b08786f07b,643773844fdd37dcd032b712,04-13-2023_04h19.27.521,PRaM,2021.2.3,Win32,29.98860433,61b8f3437b89212fae0dfade
1,2.6858,space,1.3156,0,5,5,286,1,,,63ea669ce46739b08786f07b,643773844fdd37dcd032b712,04-13-2023_04h19.27.521,PRaM,2021.2.3,Win32,29.98860433,61b8f3437b89212fae0dfade
3,4.7245,space,3.07,0,6,6,152,1,,,63ea669ce46739b08786f07b,643773844fdd37dcd032b712,04-13-2023_04h19.27.521,PRaM,2021.2.3,Win32,29.98860433,61b8f3437b89212fae0dfade
2,4.5212,space,2.8447,0,7,7,20,1,,,63ea669ce46739b08786f07b,643773844fdd37dcd032b712,04-13-2023_04h19.27.521,PRaM,2021.2.3,Win32,29.98860433,61b8f3437b89212fae0dfade
2,2.2403,space,0.6092,0,8,8,158,1,,,63ea669ce46739b08786f07b,643773844fdd37dcd032b712,04-13-2023_04h19.27.521,PRaM,2021.2.3,Win32,29.98860433,61b8f3437b89212fae0dfade
5,5.0817,space,3.4064,0,9,9,64,1,,,63ea669ce46739b08786f07b,643773844fdd37dcd032b712,04-13-2023_04h19.27.521,PRaM,2021.2.3,Win32,29.98860433,61b8f3437b89212fae0dfade
7,4.1029,space,2.4121,0,10,10,43,1,,,63ea669ce46739b08786f07b,643773844fdd37dcd032b712,04-13-2023_04h19.27.521,PRaM,2021.2.3,Win32,29.98860433,61b8f3437b89212fae0dfade
5,4.6955,space,2.7385,0,11,11,311,1,,,63ea669ce46739b08786f07b,643773844fdd37dcd032b712,04-13-2023_04h19.27.521,PRaM,2021.2.3,Win32,29.98860433,61b8f3437b89212fae0dfade
5,6.0565,space,4.3546,0,12,12,259,1,,,63ea669ce46739b08786f07b,643773844fdd37dcd032b712,04-13-2023_04h19.27.521,PRaM,2021.2.3,Win32,29.98860433,61b8f3437b89212fae0dfade
4,5.5242,space,3.5089,0,13,13,251,1,,,63ea669ce46739b08786f07b,643773844fdd37dcd032b712,04-13-2023_04h19.27.521,PRaM,2021.2.3,Win32,29.98860433,61b8f3437b89212fae0dfade
7,4.3826,space,2.4665,0,14,14,366,1,,,63ea669ce46739b08786f07b,643773844fdd37dcd032b712,04-13-2023_04h19.27.521,PRaM,2021.2.3,Win32,29.98860433,61b8f3437b89212fae0dfade
,,space,2.4638,0,15,15,91,1,,,63ea669ce46739b08786f07b,643773844fdd37dcd032b712,04-13-2023_04h19.27.521,PRaM,2021.2.3,Win32,29.98860433,61b8f3437b89212fae0dfade
1,2.3559,space,0.7416,0,16,16,329,1,,,63ea669ce46739b08786f07b,643773844fdd37dcd032b712,04-13-2023_04h19.27.521,PRaM,2021.2.3,Win32,29.98860433,61b8f3437b89212fae0dfade
3,4.0247,space,2.3583,0,17,17,169,1,,,63ea669ce46739b08786f07b,643773844fdd37dcd032b712,04-13-2023_04h19.27.521,PRaM,2021.2.3,Win32,29.98860433,61b8f3437b89212fae0dfade
3,3.8458,space,2.1651,0,18,18,314,1,,,63ea669ce46739b08786f07b,643773844fdd37dcd032b712,04-13-2023_04h19.27.521,PRaM,2021.2.3,Win32,29.98860433,61b8f3437b89212fae0dfade
4,6.2467,space,4.5652,0,19,19,233,1,,,63ea669ce46739b08786f07b,643773844fdd37dcd032b712,04-13-2023_04h19.27.521,PRaM,2021.2.3,Win32,29.98860433,61b8f3437b89212fae0dfade
7,3.577,space,1.9165,0,20,20,119,1,,,63ea669ce46739b08786f07b,643773844fdd37dcd032b712,04-13-2023_04h19.27.521,PRaM,2021.2.3,Win32,29.98860433,61b8f3437b89212fae0dfade
4,3.3796,space,1.5406,0,21,21,357,1,,,63ea669ce46739b08786f07b,643773844fdd37dcd032b712,04-13-2023_04h19.27.521,PRaM,2021.2.3,Win32,29.98860433,61b8f3437b89212fae0dfade
3,2.9792,space,1.3504,0,22,22,100,1,,,63ea669ce46739b08786f07b,643773844fdd37dcd032b712,04-13-2023_04h19.27.521,PRaM,2021.2.3,Win32,29.98860433,61b8f3437b89212fae0dfade
2,9.2829,space,7.6644,0,23,23,258,1,,,63ea669ce46739b08786f07b,643773844fdd37dcd032b712,04-13-2023_04h19.27.521,PRaM,2021.2.3,Win32,29.98860433,61b8f3437b89212fae0dfade
2,19.5048,space,18.958,0,24,24,32,1,,,63ea669ce46739b08786f07b,643773844fdd37dcd032b712,04-13-2023_04h19.27.521,PRaM,2021.2.3,Win32,29.98860433,61b8f3437b89212fae0dfade
8,4.315,space,2.2672,0,25,25,38,1,,,63ea669ce46739b08786f07b,643773844fdd37dcd032b712,04-13-2023_04h19.27.521,PRaM,2021.2.3,Win32,29.98860433,61b8f3437b89212fae0dfade
8,3.5124,space,1.9001,0,26,26,16,1,,,63ea669ce46739b08786f07b,643773844fdd37dcd032b712,04-13-2023_04h19.27.521,PRaM,2021.2.3,Win32,29.98860433,61b8f3437b89212fae0dfade
6,3.3022,space,1.6685,0,27,27,29,1,,,63ea669ce46739b08786f07b,643773844fdd37dcd032b712,04-13-2023_04h19.27.521,PRaM,2021.2.3,Win32,29.98860433,61b8f3437b89212fae0dfade
4,5.6477,space,4.0851,0,28,28,243,1,,,63ea669ce46739b08786f07b,643773844fdd37dcd032b712,04-13-2023_04h19.27.521,PRaM,2021.2.3,Win32,29.98860433,61b8f3437b89212fae0dfade
2,3.2769,space,1.6328,0,29,29,236,1,,,63ea669ce46739b08786f07b,643773844fdd37dcd032b712,04-13-2023_04h19.27.521,PRaM,2021.2.3,Win32,29.98860433,61b8f3437b89212fae0dfade
1,7.0932,space,5.4621,0,30,30,318,1,,,63ea669ce46739b08786f07b,643773844fdd37dcd032b712,04-13-2023_04h19.27.521,PRaM,2021.2.3,Win32,29.98860433,61b8f3437b89212fae0dfade
6,6.5406,space,4.898,0,31,31,173,1,,,63ea669ce46739b08786f07b,643773844fdd37dcd032b712,04-13-2023_04h19.27.521,PRaM,2021.2.3,Win32,29.98860433,61b8f3437b89212fae0dfade
2,3.8784,space,2.306,0,32,32,2,1,,,63ea669ce46739b08786f07b,643773844fdd37dcd032b712,04-13-2023_04h19.27.521,PRaM,2021.2.3,Win32,29.98860433,61b8f3437b89212fae0dfade
2,3.1822,space,2.1057,0,33,33,172,1,,,63ea669ce46739b08786f07b,643773844fdd37dcd032b712,04-13-2023_04h19.27.521,PRaM,2021.2.3,Win32,29.98860433,61b8f3437b89212fae0dfade
1,2.7908,space,1.1773,0,34,34,252,1,,,63ea669ce46739b08786f07b,643773844fdd37dcd032b712,04-13-2023_04h19.27.521,PRaM,2021.2.3,Win32,29.98860433,61b8f3437b89212fae0dfade
5,2.3635,space,0.7576,0,35,35,272,1,,,63ea669ce46739b08786f07b,643773844fdd37dcd032b712,04-13-2023_04h19.27.521,PRaM,2021.2.3,Win32,29.98860433,61b8f3437b89212fae0dfade
2,4.667,space,3.1859,0,36,36,156,1,,,63ea669ce46739b08786f07b,643773844fdd37dcd032b712,04-13-2023_04h19.27.521,PRaM,2021.2.3,Win32,29.98860433,61b8f3437b89212fae0dfade
1,7.6493,space,6.0549,0,37,37,1,1,,,63ea669ce46739b08786f07b,643773844fdd37dcd032b712,04-13-2023_04h19.27.521,PRaM,2021.2.3,Win32,29.98860433,61b8f3437b89212fae0dfade
5,2.4617,space,1.1226,0,38,38,146,1,,,63ea669ce46739b08786f07b,643773844fdd37dcd032b712,04-13-2023_04h19.27.521,PRaM,2021.2.3,Win32,29.98860433,61b8f3437b89212fae0dfade
1,4.7592,space,3.2183,0,39,39,271,1,,,63ea669ce46739b08786f07b,643773844fdd37dcd032b712,04-13-2023_04h19.27.521,PRaM,2021.2.3,Win32,29.98860433,61b8f3437b89212fae0dfade
1,5.8188,space,4.254,0,40,40,315,1,,,63ea669ce46739b08786f07b,643773844fdd37dcd032b712,04-13-2023_04h19.27.521,PRaM,2021.2.3,Win32,29.98860433,61b8f3437b89212fae0dfade
,,space,0.4967,0,41,41,11,1,,,63ea669ce46739b08786f07b,643773844fdd37dcd032b712,04-13-2023_04h19.27.521,PRaM,2021.2.3,Win32,29.98860433,61b8f3437b89212fae0dfade
7,11.5452,space,10.1532,0,42,42,242,1,,,63ea669ce46739b08786f07b,643773844fdd37dcd032b712,04-13-2023_04h19.27.521,PRaM,2021.2.3,Win32,29.98860433,61b8f3437b89212fae0dfade
8,2.6032,space,1.0399,0,43,43,114,1,,,63ea669ce46739b08786f07b,643773844fdd37dcd032b712,04-13-2023_04h19.27.521,PRaM,2021.2.3,Win32,29.98860433,61b8f3437b89212fae0dfade
9,3.3347,space,1.7169,0,44,44,285,1,,,63ea669ce46739b08786f07b,643773844fdd37dcd032b712,04-13-2023_04h19.27.521,PRaM,2021.2.3,Win32,29.98860433,61b8f3437b89212fae0dfade
3,3.8379,space,2.2601,0,45,45,348,1,,,63ea669ce46739b08786f07b,643773844fdd37dcd032b712,04-13-2023_04h19.27.521,PRaM,2021.2.3,Win32,29.98860433,61b8f3437b89212fae0dfade
3,2.9137,space,1.3206,0,46,46,219,1,,,63ea669ce46739b08786f07b,643773844fdd37dcd032b712,04-13-2023_04h19.27.521,PRaM,2021.2.3,Win32,29.98860433,61b8f3437b89212fae0dfade
6,7.4709,space,5.8079,0,47,47,288,1,,,63ea669ce46739b08786f07b,643773844fdd37dcd032b712,04-13-2023_04h19.27.521,PRaM,2021.2.3,Win32,29.98860433,61b8f3437b89212fae0dfade
4,1.9774,space,0.3435,0,48,48,333,1,,,63ea669ce46739b08786f07b,643773844fdd37dcd032b712,04-13-2023_04h19.27.521,PRaM,2021.2.3,Win32,29.98860433,61b8f3437b89212fae0dfade
8,3.4809,space,1.8379,0,49,49,207,1,,,63ea669ce46739b08786f07b,643773844fdd37dcd032b712,04-13-2023_04h19.27.521,PRaM,2021.2.3,Win32,29.98860433,61b8f3437b89212fae0dfade
4,2.4294,space,0.7224,0,50,50,183,1,,,63ea669ce46739b08786f07b,643773844fdd37dcd032b712,04-13-2023_04h19.27.521,PRaM,2021.2.3,Win32,29.98860433,61b8f3437b89212fae0dfade
2,3.4599,space,1.8698,0,51,51,234,1,,,63ea669ce46739b08786f07b,643773844fdd37dcd032b712,04-13-2023_04h19.27.521,PRaM,2021.2.3,Win32,29.98860433,61b8f3437b89212fae0dfade
7,2.4837,space,0.7751,0,52,52,310,1,,,63ea669ce46739b08786f07b,643773844fdd37dcd032b712,04-13-2023_04h19.27.521,PRaM,2021.2.3,Win32,29.98860433,61b8f3437b89212fae0dfade
3,2.0239,space,0.434,0,53,53,121,1,,,63ea669ce46739b08786f07b,643773844fdd37dcd032b712,04-13-2023_04h19.27.521,PRaM,2021.2.3,Win32,29.98860433,61b8f3437b89212fae0dfade
8,2.3767,space,0.8045,0,54,54,168,1,,,63ea669ce46739b08786f07b,643773844fdd37dcd032b712,04-13-2023_04h19.27.521,PRaM,2021.2.3,Win32,29.98860433,61b8f3437b89212fae0dfade
2,2.3194,space,0.6333,0,55,55,262,1,,,63ea669ce46739b08786f07b,643773844fdd37dcd032b712,04-13-2023_04h19.27.521,PRaM,2021.2.3,Win32,29.98860433,61b8f3437b89212fae0dfade
4,2.3835,space,0.5818,0,56,56,82,1,,,63ea669ce46739b08786f07b,643773844fdd37dcd032b712,04-13-2023_04h19.27.521,PRaM,2021.2.3,Win32,29.98860433,61b8f3437b89212fae0dfade
8,3.1321,space,1.4897,0,57,57,239,1,,,63ea669ce46739b08786f07b,643773844fdd37dcd032b712,04-13-2023_04h19.27.521,PRaM,2021.2.3,Win32,29.98860433,61b8f3437b89212fae0dfade
7,2.4943,space,0.8847,0,58,58,328,1,,,63ea669ce46739b08786f07b,643773844fdd37dcd032b712,04-13-2023_04h19.27.521,PRaM,2021.2.3,Win32,29.98860433,61b8f3437b89212fae0dfade
5,3.9236,space,2.3038,0,59,59,26,1,,,63ea669ce46739b08786f07b,643773844fdd37dcd032b712,04-13-2023_04h19.27.521,PRaM,2021.2.3,Win32,29.98860433,61b8f3437b89212fae0dfade
6,2.1481,space,0.5172,0,60,60,25,1,,,63ea669ce46739b08786f07b,643773844fdd37dcd032b712,04-13-2023_04h19.27.521,PRaM,2021.2.3,Win32,29.98860433,61b8f3437b89212fae0dfade
5,6.8745,space,5.266,0,61,61,216,1,,,63ea669ce46739b08786f07b,643773844fdd37dcd032b712,04-13-2023_04h19.27.521,PRaM,2021.2.3,Win32,29.98860433,61b8f3437b89212fae0dfade
3,2.3511,space,0.7447,0,62,62,94,1,,,63ea669ce46739b08786f07b,643773844fdd37dcd032b712,04-13-2023_04h19.27.521,PRaM,2021.2.3,Win32,29.98860433,61b8f3437b89212fae0dfade
7,2.9426,space,1.3201,0,63,63,120,1,,,63ea669ce46739b08786f07b,643773844fdd37dcd032b712,04-13-2023_04h19.27.521,PRaM,2021.2.3,Win32,29.98860433,61b8f3437b89212fae0dfade
2,10.0013,space,8.3056,0,64,64,150,1,,,63ea669ce46739b08786f07b,643773844fdd37dcd032b712,04-13-2023_04h19.27.521,PRaM,2021.2.3,Win32,29.98860433,61b8f3437b89212fae0dfade
2,3.0095,space,1.3357,0,65,65,70,1,,,63ea669ce46739b08786f07b,643773844fdd37dcd032b712,04-13-2023_04h19.27.521,PRaM,2021.2.3,Win32,29.98860433,61b8f3437b89212fae0dfade
2,2.207,space,0.5942,0,66,66,292,1,,,63ea669ce46739b08786f07b,643773844fdd37dcd032b712,04-13-2023_04h19.27.521,PRaM,2021.2.3,Win32,29.98860433,61b8f3437b89212fae0dfade
5,2.0269,space,0.2541,0,67,67,376,1,,,63ea669ce46739b08786f07b,643773844fdd37dcd032b712,04-13-2023_04h19.27.521,PRaM,2021.2.3,Win32,29.98860433,61b8f3437b89212fae0dfade
8,9.8396,space,8.1966,0,68,68,325,1,,,63ea669ce46739b08786f07b,643773844fdd37dcd032b712,04-13-2023_04h19.27.521,PRaM,2021.2.3,Win32,29.98860433,61b8f3437b89212fae0dfade
3,2.1237,space,0.4896,0,69,69,50,1,,,63ea669ce46739b08786f07b,643773844fdd37dcd032b712,04-13-2023_04h19.27.521,PRaM,2021.2.3,Win32,29.98860433,61b8f3437b89212fae0dfade
6,2.9559,space,1.1363,0,70,70,363,1,,,63ea669ce46739b08786f07b,643773844fdd37dcd032b712,04-13-2023_04h19.27.521,PRaM,2021.2.3,Win32,29.98860433,61b8f3437b89212fae0dfade
5,1.8923,space,0.24,0,71,71,257,1,,,63ea669ce46739b08786f07b,643773844fdd37dcd032b712,04-13-2023_04h19.27.521,PRaM,2021.2.3,Win32,29.98860433,61b8f3437b89212fae0dfade
9,3.7907,space,2.1455,0,72,72,254,1,,,63ea669ce46739b08786f07b,643773844fdd37dcd032b712,04-13-2023_04h19.27.521,PRaM,2021.2.3,Win32,29.98860433,61b8f3437b89212fae0dfade
5,1.9651,space,0.3018,0,73,73,52,1,,,63ea669ce46739b08786f07b,643773844fdd37dcd032b712,04-13-2023_04h19.27.521,PRaM,2021.2.3,Win32,29.98860433,61b8f3437b89212fae0dfade
5,1.8359,space,0.034,0,74,74,367,1,,,63ea669ce46739b08786f07b,643773844fdd37dcd032b712,04-13-2023_04h19.27.521,PRaM,2021.2.3,Win32,29.98860433,61b8f3437b89212fae0dfade
3,2.3493,space,0.68,0,75,75,76,1,,,63ea669ce46739b08786f07b,643773844fdd37dcd032b712,04-13-2023_04h19.27.521,PRaM,2021.2.3,Win32,29.98860433,61b8f3437b89212fae0dfade
7,1.9857,space,0.3312,0,76,76,132,1,,,63ea669ce46739b08786f07b,643773844fdd37dcd032b712,04-13-2023_04h19.27.521,PRaM,2021.2.3,Win32,29.98860433,61b8f3437b89212fae0dfade
3,7.2273,space,5.9013,0,77,77,298,1,,,63ea669ce46739b08786f07b,643773844fdd37dcd032b712,04-13-2023_04h19.27.521,PRaM,2021.2.3,Win32,29.98860433,61b8f3437b89212fae0dfade
2,2.0374,space,0.3903,0,78,78,125,1,,,63ea669ce46739b08786f07b,643773844fdd37dcd032b712,04-13-2023_04h19.27.521,PRaM,2021.2.3,Win32,29.98860433,61b8f3437b89212fae0dfade
2,2.7248,space,0.9717,0,79,79,8,1,,,63ea669ce46739b08786f07b,643773844fdd37dcd032b712,04-13-2023_04h19.27.521,PRaM,2021.2.3,Win32,29.98860433,61b8f3437b89212fae0dfade
7,2.1695,space,0.5431,0,80,80,279,1,,,63ea669ce46739b08786f07b,643773844fdd37dcd032b712,04-13-2023_04h19.27.521,PRaM,2021.2.3,Win32,29.98860433,61b8f3437b89212fae0dfade
2,2.5491,space,0.7767,0,81,81,260,1,,,63ea669ce46739b08786f07b,643773844fdd37dcd032b712,04-13-2023_04h19.27.521,PRaM,2021.2.3,Win32,29.98860433,61b8f3437b89212fae0dfade
2,1.9017,space,0.245,0,82,82,49,1,,,63ea669ce46739b08786f07b,643773844fdd37dcd032b712,04-13-2023_04h19.27.521,PRaM,2021.2.3,Win32,29.98860433,61b8f3437b89212fae0dfade
8,3.4659,space,1.6501,0,83,83,90,1,,,63ea669ce46739b08786f07b,643773844fdd37dcd032b712,04-13-2023_04h19.27.521,PRaM,2021.2.3,Win32,29.98860433,61b8f3437b89212fae0dfade
8,3.3351,space,1.6552,0,84,84,269,1,,,63ea669ce46739b08786f07b,643773844fdd37dcd032b712,04-13-2023_04h19.27.521,PRaM,2021.2.3,Win32,29.98860433,61b8f3437b89212fae0dfade
6,3.1096,space,1.454,0,85,85,182,1,,,63ea669ce46739b08786f07b,643773844fdd37dcd032b712,04-13-2023_04h19.27.521,PRaM,2021.2.3,Win32,29.98860433,61b8f3437b89212fae0dfade
2,3.0454,space,1.1859,0,86,86,203,1,,,63ea669ce46739b08786f07b,643773844fdd37dcd032b712,04-13-2023_04h19.27.521,PRaM,2021.2.3,Win32,29.98860433,61b8f3437b89212fae0dfade
2,1.795,space,0.0556,0,87,87,161,1,,,63ea669ce46739b08786f07b,643773844fdd37dcd032b712,04-13-2023_04h19.27.521,PRaM,2021.2.3,Win32,29.98860433,61b8f3437b89212fae0dfade
2,2.2257,space,0.6703,0,88,88,237,1,,,63ea669ce46739b08786f07b,643773844fdd37dcd032b712,04-13-2023_04h19.27.521,PRaM,2021.2.3,Win32,29.98860433,61b8f3437b89212fae0dfade
2,1.7734,space,0.7676,0,89,89,248,1,,,63ea669ce46739b08786f07b,643773844fdd37dcd032b712,04-13-2023_04h19.27.521,PRaM,2021.2.3,Win32,29.98860433,61b8f3437b89212fae0dfade
2,2.3156,space,0.6839,0,90,90,284,1,,,63ea669ce46739b08786f07b,643773844fdd37dcd032b712,04-13-2023_04h19.27.521,PRaM,2021.2.3,Win32,29.98860433,61b8f3437b89212fae0dfade
5,2.7934,space,1.142,0,91,91,167,1,,,63ea669ce46739b08786f07b,643773844fdd37dcd032b712,04-13-2023_04h19.27.521,PRaM,2021.2.3,Win32,29.98860433,61b8f3437b89212fae0dfade
9,2.3743,space,0.8432,0,92,92,270,1,,,63ea669ce46739b08786f07b,643773844fdd37dcd032b712,04-13-2023_04h19.27.521,PRaM,2021.2.3,Win32,29.98860433,61b8f3437b89212fae0dfade
7,3.2785,space,1.6771,0,93,93,370,1,,,63ea669ce46739b08786f07b,643773844fdd37dcd032b712,04-13-2023_04h19.27.521,PRaM,2021.2.3,Win32,29.98860433,61b8f3437b89212fae0dfade
1,3.7568,space,2.1168,0,94,94,34,1,,,63ea669ce46739b08786f07b,643773844fdd37dcd032b712,04-13-2023_04h19.27.521,PRaM,2021.2.3,Win32,29.98860433,61b8f3437b89212fae0dfade
2,3.7411,space,2.0798,0,95,95,72,1,,,63ea669ce46739b08786f07b,643773844fdd37dcd032b712,04-13-2023_04h19.27.521,PRaM,2021.2.3,Win32,29.98860433,61b8f3437b89212fae0dfade
8,4.5138,space,2.8278,0,96,96,355,1,,,63ea669ce46739b08786f07b,643773844fdd37dcd032b712,04-13-2023_04h19.27.521,PRaM,2021.2.3,Win32,29.98860433,61b8f3437b89212fae0dfade
1,2.8839,space,1.2693,0,97,97,289,1,,,63ea669ce46739b08786f07b,643773844fdd37dcd032b712,04-13-2023_04h19.27.521,PRaM,2021.2.3,Win32,29.98860433,61b8f3437b89212fae0dfade
1,1.6923,space,0.1495,0,98,98,81,1,,,63ea669ce46739b08786f07b,643773844fdd37dcd032b712,04-13-2023_04h19.27.521,PRaM,2021.2.3,Win32,29.98860433,61b8f3437b89212fae0dfade
1,2.1072,space,0.4724,0,99,99,215,1,,,63ea669ce46739b08786f07b,643773844fdd37dcd032b712,04-13-2023_04h19.27.521,PRaM,2021.2.3,Win32,29.98860433,61b8f3437b89212fae0dfade
5,2.2522,space,0.4739,0,100,100,324,1,,,63ea669ce46739b08786f07b,643773844fdd37dcd032b712,04-13-2023_04h19.27.521,PRaM,2021.2.3,Win32,29.98860433,61b8f3437b89212fae0dfade
7,3.2406,space,1.5822,0,101,101,22,1,,,63ea669ce46739b08786f07b,643773844fdd37dcd032b712,04-13-2023_04h19.27.521,PRaM,2021.2.3,Win32,29.98860433,61b8f3437b89212fae0dfade
3,2.6668,space,1.3815,0,102,102,220,1,,,63ea669ce46739b08786f07b,643773844fdd37dcd032b712,04-13-2023_04h19.27.521,PRaM,2021.2.3,Win32,29.98860433,61b8f3437b89212fae0dfade
8,2.3398,space,0.9716,0,103,103,0,1,,,63ea669ce46739b08786f07b,643773844fdd37dcd032b712,04-13-2023_04h19.27.521,PRaM,2021.2.3,Win32,29.98860433,61b8f3437b89212fae0dfade
4,1.8147,space,0.5848,0,104,104,250,1,,,63ea669ce46739b08786f07b,643773844fdd37dcd032b712,04-13-2023_04h19.27.521,PRaM,2021.2.3,Win32,29.98860433,61b8f3437b89212fae0dfade
3,2.1304,space,0.4709,0,105,105,147,1,,,63ea669ce46739b08786f07b,643773844fdd37dcd032b712,04-13-2023_04h19.27.521,PRaM,2021.2.3,Win32,29.98860433,61b8f3437b89212fae0dfade
7,3.9595,space,2.2373,0,106,106,149,1,,,63ea669ce46739b08786f07b,643773844fdd37dcd032b712,04-13-2023_04h19.27.521,PRaM,2021.2.3,Win32,29.98860433,61b8f3437b89212fae0dfade
9,2.6106,space,1.0057,0,107,107,159,1,,,63ea669ce46739b08786f07b,643773844fdd37dcd032b712,04-13-2023_04h19.27.521,PRaM,2021.2.3,Win32,29.98860433,61b8f3437b89212fae0dfade
4,2.1438,space,0.5143,0,108,108,13,1,,,63ea669ce46739b08786f07b,643773844fdd37dcd032b712,04-13-2023_04h19.27.521,PRaM,2021.2.3,Win32,29.98860433,61b8f3437b89212fae0dfade
8,3.178,space,1.5975,0,109,109,282,1,,,63ea669ce46739b08786f07b,643773844fdd37dcd032b712,04-13-2023_04h19.27.521,PRaM,2021.2.3,Win32,29.98860433,61b8f3437b89212fae0dfade
5,2.0697,space,0.4164,0,110,110,101,1,,,63ea669ce46739b08786f07b,643773844fdd37dcd032b712,04-13-2023_04h19.27.521,PRaM,2021.2.3,Win32,29.98860433,61b8f3437b89212fae0dfade
9,1.8669,space,0.3007,0,111,111,276,1,,,63ea669ce46739b08786f07b,643773844fdd37dcd032b712,04-13-2023_04h19.27.521,PRaM,2021.2.3,Win32,29.98860433,61b8f3437b89212fae0dfade
9,4.9507,space,3.4518,0,112,112,205,1,,,63ea669ce46739b08786f07b,643773844fdd37dcd032b712,04-13-2023_04h19.27.521,PRaM,2021.2.3,Win32,29.98860433,61b8f3437b89212fae0dfade
3,3.2018,space,1.6162,0,113,113,133,1,,,63ea669ce46739b08786f07b,643773844fdd37dcd032b712,04-13-2023_04h19.27.521,PRaM,2021.2.3,Win32,29.98860433,61b8f3437b89212fae0dfade
2,2.0998,space,0.5103,0,114,114,316,1,,,63ea669ce46739b08786f07b,643773844fdd37dcd032b712,04-13-2023_04h19.27.521,PRaM,2021.2.3,Win32,29.98860433,61b8f3437b89212fae0dfade
8,1.9418,space,0.3021,0,115,115,277,1,,,63ea669ce46739b08786f07b,643773844fdd37dcd032b712,04-13-2023_04h19.27.521,PRaM,2021.2.3,Win32,29.98860433,61b8f3437b89212fae0dfade
9,2.0027,space,0.4433,0,116,116,136,1,,,63ea669ce46739b08786f07b,643773844fdd37dcd032b712,04-13-2023_04h19.27.521,PRaM,2021.2.3,Win32,29.98860433,61b8f3437b89212fae0dfade
6,2.157,space,0.6035,0,117,117,342,1,,,63ea669ce46739b08786f07b,643773844fdd37dcd032b712,04-13-2023_04h19.27.521,PRaM,2021.2.3,Win32,29.98860433,61b8f3437b89212fae0dfade
1,4.6335,space,3.1364,0,118,118,107,1,,,63ea669ce46739b08786f07b,643773844fdd37dcd032b712,04-13-2023_04h19.27.521,PRaM,2021.2.3,Win32,29.98860433,61b8f3437b89212fae0dfade
3,6.1706,space,4.5035,0,119,119,103,1,,,63ea669ce46739b08786f07b,643773844fdd37dcd032b712,04-13-2023_04h19.27.521,PRaM,2021.2.3,Win32,29.98860433,61b8f3437b89212fae0dfade
5,1.9822,space,0.4075,0,120,120,349,1,,,63ea669ce46739b08786f07b,643773844fdd37dcd032b712,04-13-2023_04h19.27.521,PRaM,2021.2.3,Win32,29.98860433,61b8f3437b89212fae0dfade
3,10.5164,space,8.9325,0,121,121,227,1,,,63ea669ce46739b08786f07b,643773844fdd37dcd032b712,04-13-2023_04h19.27.521,PRaM,2021.2.3,Win32,29.98860433,61b8f3437b89212fae0dfade
3,2.9705,space,1.3911,0,122,122,238,1,,,63ea669ce46739b08786f07b,643773844fdd37dcd032b712,04-13-2023_04h19.27.521,PRaM,2021.2.3,Win32,29.98860433,61b8f3437b89212fae0dfade
4,2.4487,space,0.8135,0,123,123,368,1,,,63ea669ce46739b08786f07b,643773844fdd37dcd032b712,04-13-2023_04h19.27.521,PRaM,2021.2.3,Win32,29.98860433,61b8f3437b89212fae0dfade
8,2.9558,space,1.3045,0,124,124,213,1,,,63ea669ce46739b08786f07b,643773844fdd37dcd032b712,04-13-2023_04h19.27.521,PRaM,2021.2.3,Win32,29.98860433,61b8f3437b89212fae0dfade
5,1.8213,space,0.1935,0,125,125,27,1,,,63ea669ce46739b08786f07b,643773844fdd37dcd032b712,04-13-2023_04h19.27.521,PRaM,2021.2.3,Win32,29.98860433,61b8f3437b89212fae0dfade
7,2.1243,space,0.4667,0,126,126,102,1,,,63ea669ce46739b08786f07b,643773844fdd37dcd032b712,04-13-2023_04h19.27.521,PRaM,2021.2.3,Win32,29.98860433,61b8f3437b89212fae0dfade
4,2.3439,space,0.7672,0,127,127,71,1,,,63ea669ce46739b08786f07b,643773844fdd37dcd032b712,04-13-2023_04h19.27.521,PRaM,2021.2.3,Win32,29.98860433,61b8f3437b89212fae0dfade
7,2.9066,space,1.2573,0,128,128,225,1,,,63ea669ce46739b08786f07b,643773844fdd37dcd032b712,04-13-2023_04h19.27.521,PRaM,2021.2.3,Win32,29.98860433,61b8f3437b89212fae0dfade
4,3.0994,space,1.5956,0,129,129,144,1,,,63ea669ce46739b08786f07b,643773844fdd37dcd032b712,04-13-2023_04h19.27.521,PRaM,2021.2.3,Win32,29.98860433,61b8f3437b89212fae0dfade
3,2.4746,space,0.8554,0,130,130,116,1,,,63ea669ce46739b08786f07b,643773844fdd37dcd032b712,04-13-2023_04h19.27.521,PRaM,2021.2.3,Win32,29.98860433,61b8f3437b89212fae0dfade
5,1.555,space,1.8095,0,131,131,341,1,,,63ea669ce46739b08786f07b,643773844fdd37dcd032b712,04-13-2023_04h19.27.521,PRaM,2021.2.3,Win32,29.98860433,61b8f3437b89212fae0dfade
1,3.0687,space,1.4677,0,132,132,330,1,,,63ea669ce46739b08786f07b,643773844fdd37dcd032b712,04-13-2023_04h19.27.521,PRaM,2021.2.3,Win32,29.98860433,61b8f3437b89212fae0dfade
5,1.3205,space,1.4117,0,133,133,332,1,,,63ea669ce46739b08786f07b,643773844fdd37dcd032b712,04-13-2023_04h19.27.521,PRaM,2021.2.3,Win32,29.98860433,61b8f3437b89212fae0dfade
9,2.4211,space,0.7976,0,134,134,192,1,,,63ea669ce46739b08786f07b,643773844fdd37dcd032b712,04-13-2023_04h19.27.521,PRaM,2021.2.3,Win32,29.98860433,61b8f3437b89212fae0dfade
1,1.8551,space,0.2124,0,135,135,247,1,,,63ea669ce46739b08786f07b,643773844fdd37dcd032b712,04-13-2023_04h19.27.521,PRaM,2021.2.3,Win32,29.98860433,61b8f3437b89212fae0dfade
1,1.8627,space,0.2195,0,136,136,339,1,,,63ea669ce46739b08786f07b,643773844fdd37dcd032b712,04-13-2023_04h19.27.521,PRaM,2021.2.3,Win32,29.98860433,61b8f3437b89212fae0dfade
,,space,0.1019,0,137,137,214,1,,,63ea669ce46739b08786f07b,643773844fdd37dcd032b712,04-13-2023_04h19.27.521,PRaM,2021.2.3,Win32,29.98860433,61b8f3437b89212fae0dfade
9,5.1371,space,3.5051,0,138,138,53,1,,,63ea669ce46739b08786f07b,643773844fdd37dcd032b712,04-13-2023_04h19.27.521,PRaM,2021.2.3,Win32,29.98860433,61b8f3437b89212fae0dfade
4,2.2907,space,0.6865,0,139,139,190,1,,,63ea669ce46739b08786f07b,643773844fdd37dcd032b712,04-13-2023_04h19.27.521,PRaM,2021.2.3,Win32,29.98860433,61b8f3437b89212fae0dfade
7,1.9141,space,0.2855,0,140,140,115,1,,,63ea669ce46739b08786f07b,643773844fdd37dcd032b712,04-13-2023_04h19.27.521,PRaM,2021.2.3,Win32,29.98860433,61b8f3437b89212fae0dfade
2,2.0095,space,0.3879,0,141,141,353,1,,,63ea669ce46739b08786f07b,643773844fdd37dcd032b712,04-13-2023_04h19.27.521,PRaM,2021.2.3,Win32,29.98860433,61b8f3437b89212fae0dfade
3,1.9587,space,0.4795,0,142,142,87,1,,,63ea669ce46739b08786f07b,643773844fdd37dcd032b712,04-13-2023_04h19.27.521,PRaM,2021.2.3,Win32,29.98860433,61b8f3437b89212fae0dfade
8,2.2922,space,0.6536,0,143,143,112,1,,,63ea669ce46739b08786f07b,643773844fdd37dcd032b712,04-13-2023_04h19.27.521,PRaM,2021.2.3,Win32,29.98860433,61b8f3437b89212fae0dfade
8,1.9177,space,0.5477,0,144,144,351,1,,,63ea669ce46739b08786f07b,643773844fdd37dcd032b712,04-13-2023_04h19.27.521,PRaM,2021.2.3,Win32,29.98860433,61b8f3437b89212fae0dfade
3,2.5085,space,0.9305,0,145,145,170,1,,,63ea669ce46739b08786f07b,643773844fdd37dcd032b712,04-13-2023_04h19.27.521,PRaM,2021.2.3,Win32,29.98860433,61b8f3437b89212fae0dfade
2,1.9028,space,0.3331,0,146,146,131,1,,,63ea669ce46739b08786f07b,643773844fdd37dcd032b712,04-13-2023_04h19.27.521,PRaM,2021.2.3,Win32,29.98860433,61b8f3437b89212fae0dfade
7,2.3355,space,0.8525,0,147,147,278,1,,,63ea669ce46739b08786f07b,643773844fdd37dcd032b712,04-13-2023_04h19.27.521,PRaM,2021.2.3,Win32,29.98860433,61b8f3437b89212fae0dfade
8,2.0737,space,0.4651,0,148,148,40,1,,,63ea669ce46739b08786f07b,643773844fdd37dcd032b712,04-13-2023_04h19.27.521,PRaM,2021.2.3,Win32,29.98860433,61b8f3437b89212fae0dfade
4,2.1544,space,0.5702,0,149,149,164,1,,,63ea669ce46739b08786f07b,643773844fdd37dcd032b712,04-13-2023_04h19.27.521,PRaM,2021.2.3,Win32,29.98860433,61b8f3437b89212fae0dfade
8,1.9278,space,0.2734,0,150,150,323,1,,,63ea669ce46739b08786f07b,643773844fdd37dcd032b712,04-13-2023_04h19.27.521,PRaM,2021.2.3,Win32,29.98860433,61b8f3437b89212fae0dfade
3,2.241,space,0.6174,0,151,151,65,1,,,63ea669ce46739b08786f07b,643773844fdd37dcd032b712,04-13-2023_04h19.27.521,PRaM,2021.2.3,Win32,29.98860433,61b8f3437b89212fae0dfade
4,5.1856,space,3.8665,0,152,152,15,1,,,63ea669ce46739b08786f07b,643773844fdd37dcd032b712,04-13-2023_04h19.27.521,PRaM,2021.2.3,Win32,29.98860433,61b8f3437b89212fae0dfade
3,1.6046,space,0.0257,0,153,153,287,1,,,63ea669ce46739b08786f07b,643773844fdd37dcd032b712,04-13-2023_04h19.27.521,PRaM,2021.2.3,Win32,29.98860433,61b8f3437b89212fae0dfade
3,1.9045,space,0.3154,0,154,154,171,1,,,63ea669ce46739b08786f07b,643773844fdd37dcd032b712,04-13-2023_04h19.27.521,PRaM,2021.2.3,Win32,29.98860433,61b8f3437b89212fae0dfade
2,2.112,space,0.5396,0,155,155,97,1,,,63ea669ce46739b08786f07b,643773844fdd37dcd032b712,04-13-2023_04h19.27.521,PRaM,2021.2.3,Win32,29.98860433,61b8f3437b89212fae0dfade
5,1.8553,space,0.2135,0,156,156,206,1,,,63ea669ce46739b08786f07b,643773844fdd37dcd032b712,04-13-2023_04h19.27.521,PRaM,2021.2.3,Win32,29.98860433,61b8f3437b89212fae0dfade
3,2.1792,space,0.6318,0,157,157,295,1,,,63ea669ce46739b08786f07b,643773844fdd37dcd032b712,04-13-2023_04h19.27.521,PRaM,2021.2.3,Win32,29.98860433,61b8f3437b89212fae0dfade
3,1.7244,space,0.0894,0,158,158,163,1,,,63ea669ce46739b08786f07b,643773844fdd37dcd032b712,04-13-2023_04h19.27.521,PRaM,2021.2.3,Win32,29.98860433,61b8f3437b89212fae0dfade
2,1.8084,space,0.1761,0,159,159,275,1,,,63ea669ce46739b08786f07b,643773844fdd37dcd032b712,04-13-2023_04h19.27.521,PRaM,2021.2.3,Win32,29.98860433,61b8f3437b89212fae0dfade
3,2.0942,space,0.5368,0,160,160,305,1,,,63ea669ce46739b08786f07b,643773844fdd37dcd032b712,04-13-2023_04h19.27.521,PRaM,2021.2.3,Win32,29.98860433,61b8f3437b89212fae0dfade
3,3.8742,space,2.3137,0,161,161,57,1,,,63ea669ce46739b08786f07b,643773844fdd37dcd032b712,04-13-2023_04h19.27.521,PRaM,2021.2.3,Win32,29.98860433,61b8f3437b89212fae0dfade
8,2.2096,space,0.5452,0,162,162,110,1,,,63ea669ce46739b08786f07b,643773844fdd37dcd032b712,04-13-2023_04h19.27.521,PRaM,2021.2.3,Win32,29.98860433,61b8f3437b89212fae0dfade
7,2.5186,space,0.8641,0,163,163,352,1,,,63ea669ce46739b08786f07b,643773844fdd37dcd032b712,04-13-2023_04h19.27.521,PRaM,2021.2.3,Win32,29.98860433,61b8f3437b89212fae0dfade
9,3.8782,space,2.3774,0,164,164,320,1,,,63ea669ce46739b08786f07b,643773844fdd37dcd032b712,04-13-2023_04h19.27.521,PRaM,2021.2.3,Win32,29.98860433,61b8f3437b89212fae0dfade
4,4.4157,space,2.774,0,165,165,39,1,,,63ea669ce46739b08786f07b,643773844fdd37dcd032b712,04-13-2023_04h19.27.521,PRaM,2021.2.3,Win32,29.98860433,61b8f3437b89212fae0dfade
7,3.0737,space,1.4365,0,166,166,261,1,,,63ea669ce46739b08786f07b,643773844fdd37dcd032b712,04-13-2023_04h19.27.521,PRaM,2021.2.3,Win32,29.98860433,61b8f3437b89212fae0dfade
7,2.053,space,0.4527,0,167,167,177,1,,,63ea669ce46739b08786f07b,643773844fdd37dcd032b712,04-13-2023_04h19.27.521,PRaM,2021.2.3,Win32,29.98860433,61b8f3437b89212fae0dfade
3,2.3095,space,0.7164,0,168,168,229,1,,,63ea669ce46739b08786f07b,643773844fdd37dcd032b712,04-13-2023_04h19.27.521,PRaM,2021.2.3,Win32,29.98860433,61b8f3437b89212fae0dfade
3,2.1598,space,0.5401,0,169,169,210,1,,,63ea669ce46739b08786f07b,643773844fdd37dcd032b712,04-13-2023_04h19.27.521,PRaM,2021.2.3,Win32,29.98860433,61b8f3437b89212fae0dfade
8,2.3748,space,0.8165,0,170,170,105,1,,,63ea669ce46739b08786f07b,643773844fdd37dcd032b712,04-13-2023_04h19.27.521,PRaM,2021.2.3,Win32,29.98860433,61b8f3437b89212fae0dfade
2,2.3529,space,0.7608,0,171,171,361,1,,,63ea669ce46739b08786f07b,643773844fdd37dcd032b712,04-13-2023_04h19.27.521,PRaM,2021.2.3,Win32,29.98860433,61b8f3437b89212fae0dfade
4,2.1563,space,0.5016,0,172,172,58,1,,,63ea669ce46739b08786f07b,643773844fdd37dcd032b712,04-13-2023_04h19.27.521,PRaM,2021.2.3,Win32,29.98860433,61b8f3437b89212fae0dfade
3,1.6715,space,0.0428,0,173,173,31,1,,,63ea669ce46739b08786f07b,643773844fdd37dcd032b712,04-13-2023_04h19.27.521,PRaM,2021.2.3,Win32,29.98860433,61b8f3437b89212fae0dfade
7,2.0947,space,0.4605,0,174,174,30,1,,,63ea669ce46739b08786f07b,643773844fdd37dcd032b712,04-13-2023_04h19.27.521,PRaM,2021.2.3,Win32,29.98860433,61b8f3437b89212fae0dfade
8,1.7517,space,0.1496,0,175,175,123,1,,,63ea669ce46739b08786f07b,643773844fdd37dcd032b712,04-13-2023_04h19.27.521,PRaM,2021.2.3,Win32,29.98860433,61b8f3437b89212fae0dfade
4,2.6027,space,0.9907,0,176,176,373,1,,,63ea669ce46739b08786f07b,643773844fdd37dcd032b712,04-13-2023_04h19.27.521,PRaM,2021.2.3,Win32,29.98860433,61b8f3437b89212fae0dfade
5,2.0713,space,0.4485,0,177,177,241,1,,,63ea669ce46739b08786f07b,643773844fdd37dcd032b712,04-13-2023_04h19.27.521,PRaM,2021.2.3,Win32,29.98860433,61b8f3437b89212fae0dfade
6,2.1903,space,0.544,0,178,178,118,1,,,63ea669ce46739b08786f07b,643773844fdd37dcd032b712,04-13-2023_04h19.27.521,PRaM,2021.2.3,Win32,29.98860433,61b8f3437b89212fae0dfade
2,3.051,space,1.4142,0,179,179,89,1,,,63ea669ce46739b08786f07b,643773844fdd37dcd032b712,04-13-2023_04h19.27.521,PRaM,2021.2.3,Win32,29.98860433,61b8f3437b89212fae0dfade
7,2.8993,space,1.2534,0,180,180,86,1,,,63ea669ce46739b08786f07b,643773844fdd37dcd032b712,04-13-2023_04h19.27.521,PRaM,2021.2.3,Win32,29.98860433,61b8f3437b89212fae0dfade
3,2.4997,space,0.9004,0,181,181,256,1,,,63ea669ce46739b08786f07b,643773844fdd37dcd032b712,04-13-2023_04h19.27.521,PRaM,2021.2.3,Win32,29.98860433,61b8f3437b89212fae0dfade
2,1.7031,space,0.3009,0,182,182,148,1,,,63ea669ce46739b08786f07b,643773844fdd37dcd032b712,04-13-2023_04h19.27.521,PRaM,2021.2.3,Win32,29.98860433,61b8f3437b89212fae0dfade
4,3.132,space,1.4185,0,183,183,63,1,,,63ea669ce46739b08786f07b,643773844fdd37dcd032b712,04-13-2023_04h19.27.521,PRaM,2021.2.3,Win32,29.98860433,61b8f3437b89212fae0dfade
7,1.8303,space,0.1546,0,184,184,340,1,,,63ea669ce46739b08786f07b,643773844fdd37dcd032b712,04-13-2023_04h19.27.521,PRaM,2021.2.3,Win32,29.98860433,61b8f3437b89212fae0dfade
7,4.7134,space,3.1257,0,185,185,74,1,,,63ea669ce46739b08786f07b,643773844fdd37dcd032b712,04-13-2023_04h19.27.521,PRaM,2021.2.3,Win32,29.98860433,61b8f3437b89212fae0dfade
5,1.9958,space,0.7217,0,186,186,124,1,,,63ea669ce46739b08786f07b,643773844fdd37dcd032b712,04-13-2023_04h19.27.521,PRaM,2021.2.3,Win32,29.98860433,61b8f3437b89212fae0dfade
7,2.5016,space,3.387,0,187,187,281,1,,,63ea669ce46739b08786f07b,643773844fdd37dcd032b712,04-13-2023_04h19.27.521,PRaM,2021.2.3,Win32,29.98860433,61b8f3437b89212fae0dfade
5,4.6519,space,3.1491,0,188,188,6,1,,,63ea669ce46739b08786f07b,643773844fdd37dcd032b712,04-13-2023_04h19.27.521,PRaM,2021.2.3,Win32,29.98860433,61b8f3437b89212fae0dfade
4,1.7199,space,0.0499,0,189,189,129,1,,,63ea669ce46739b08786f07b,643773844fdd37dcd032b712,04-13-2023_04h19.27.521,PRaM,2021.2.3,Win32,29.98860433,61b8f3437b89212fae0dfade
3,3.176,space,1.5671,0,190,190,174,1,,,63ea669ce46739b08786f07b,643773844fdd37dcd032b712,04-13-2023_04h19.27.521,PRaM,2021.2.3,Win32,29.98860433,61b8f3437b89212fae0dfade
8,2.7883,space,1.2034,0,191,191,99,1,,,63ea669ce46739b08786f07b,643773844fdd37dcd032b712,04-13-2023_04h19.27.521,PRaM,2021.2.3,Win32,29.98860433,61b8f3437b89212fae0dfade
3,2.1052,space,0.5199,0,192,192,354,1,,,63ea669ce46739b08786f07b,643773844fdd37dcd032b712,04-13-2023_04h19.27.521,PRaM,2021.2.3,Win32,29.98860433,61b8f3437b89212fae0dfade
7,2.027,space,0.3726,0,193,193,141,1,,,63ea669ce46739b08786f07b,643773844fdd37dcd032b712,04-13-2023_04h19.27.521,PRaM,2021.2.3,Win32,29.98860433,61b8f3437b89212fae0dfade
8,2.3784,space,0.8319,0,194,194,83,1,,,63ea669ce46739b08786f07b,643773844fdd37dcd032b712,04-13-2023_04h19.27.521,PRaM,2021.2.3,Win32,29.98860433,61b8f3437b89212fae0dfade
8,5.1374,space,3.5339,0,195,195,230,1,,,63ea669ce46739b08786f07b,643773844fdd37dcd032b712,04-13-2023_04h19.27.521,PRaM,2021.2.3,Win32,29.98860433,61b8f3437b89212fae0dfade
4,2.2805,space,0.6684,0,196,196,73,1,,,63ea669ce46739b08786f07b,643773844fdd37dcd032b712,04-13-2023_04h19.27.521,PRaM,2021.2.3,Win32,29.98860433,61b8f3437b89212fae0dfade
3,2.0036,space,0.3532,0,197,197,138,1,,,63ea669ce46739b08786f07b,643773844fdd37dcd032b712,04-13-2023_04h19.27.521,PRaM,2021.2.3,Win32,29.98860433,61b8f3437b89212fae0dfade
7,2.5394,space,0.9054,0,198,198,306,1,,,63ea669ce46739b08786f07b,643773844fdd37dcd032b712,04-13-2023_04h19.27.521,PRaM,2021.2.3,Win32,29.98860433,61b8f3437b89212fae0dfade
2,2.3875,space,3.2385,0,199,199,321,1,,,63ea669ce46739b08786f07b,643773844fdd37dcd032b712,04-13-2023_04h19.27.521,PRaM,2021.2.3,Win32,29.98860433,61b8f3437b89212fae0dfade
7,3.7692,space,2.1139,0,200,200,249,1,,,63ea669ce46739b08786f07b,643773844fdd37dcd032b712,04-13-2023_04h19.27.521,PRaM,2021.2.3,Win32,29.98860433,61b8f3437b89212fae0dfade
6,4.4846,space,2.8809,0,201,201,127,1,,,63ea669ce46739b08786f07b,643773844fdd37dcd032b712,04-13-2023_04h19.27.521,PRaM,2021.2.3,Win32,29.98860433,61b8f3437b89212fae0dfade
7,1.8054,space,0.3077,0,202,202,291,1,,,63ea669ce46739b08786f07b,643773844fdd37dcd032b712,04-13-2023_04h19.27.521,PRaM,2021.2.3,Win32,29.98860433,61b8f3437b89212fae0dfade
4,2.0075,space,0.4089,0,203,203,166,1,,,63ea669ce46739b08786f07b,643773844fdd37dcd032b712,04-13-2023_04h19.27.521,PRaM,2021.2.3,Win32,29.98860433,61b8f3437b89212fae0dfade
2,2.8541,space,1.2218,0,204,204,290,1,,,63ea669ce46739b08786f07b,643773844fdd37dcd032b712,04-13-2023_04h19.27.521,PRaM,2021.2.3,Win32,29.98860433,61b8f3437b89212fae0dfade
7,2.2255,space,0.5386,0,205,205,337,1,,,63ea669ce46739b08786f07b,643773844fdd37dcd032b712,04-13-2023_04h19.27.521,PRaM,2021.2.3,Win32,29.98860433,61b8f3437b89212fae0dfade
3,2.2387,space,0.5706,0,206,206,303,1,,,63ea669ce46739b08786f07b,643773844fdd37dcd032b712,04-13-2023_04h19.27.521,PRaM,2021.2.3,Win32,29.98860433,61b8f3437b89212fae0dfade
7,1.9538,space,0.3905,0,207,207,165,1,,,63ea669ce46739b08786f07b,643773844fdd37dcd032b712,04-13-2023_04h19.27.521,PRaM,2021.2.3,Win32,29.98860433,61b8f3437b89212fae0dfade
2,1.7899,space,0.1343,0,208,208,312,1,,,63ea669ce46739b08786f07b,643773844fdd37dcd032b712,04-13-2023_04h19.27.521,PRaM,2021.2.3,Win32,29.98860433,61b8f3437b89212fae0dfade
9,3.5466,space,2.0009,0,209,209,199,1,,,63ea669ce46739b08786f07b,643773844fdd37dcd032b712,04-13-2023_04h19.27.521,PRaM,2021.2.3,Win32,29.98860433,61b8f3437b89212fae0dfade
7,4.553,space,2.9004,0,210,210,151,1,,,63ea669ce46739b08786f07b,643773844fdd37dcd032b712,04-13-2023_04h19.27.521,PRaM,2021.2.3,Win32,29.98860433,61b8f3437b89212fae0dfade
4,2.0713,space,0.4364,0,211,211,360,1,,,63ea669ce46739b08786f07b,643773844fdd37dcd032b712,04-13-2023_04h19.27.521,PRaM,2021.2.3,Win32,29.98860433,61b8f3437b89212fae0dfade
2,2.7697,space,1.1229,0,212,212,109,1,,,63ea669ce46739b08786f07b,643773844fdd37dcd032b712,04-13-2023_04h19.27.521,PRaM,2021.2.3,Win32,29.98860433,61b8f3437b89212fae0dfade
4,4.6078,space,3.0188,0,213,213,95,1,,,63ea669ce46739b08786f07b,643773844fdd37dcd032b712,04-13-2023_04h19.27.521,PRaM,2021.2.3,Win32,29.98860433,61b8f3437b89212fae0dfade
8,2.0435,space,0.4367,0,214,214,264,1,,,63ea669ce46739b08786f07b,643773844fdd37dcd032b712,04-13-2023_04h19.27.521,PRaM,2021.2.3,Win32,29.98860433,61b8f3437b89212fae0dfade
4,3.2915,space,1.5682,0,215,215,359,1,,,63ea669ce46739b08786f07b,643773844fdd37dcd032b712,04-13-2023_04h19.27.521,PRaM,2021.2.3,Win32,29.98860433,61b8f3437b89212fae0dfade
5,1.3951,space,1.3802,0,216,216,362,1,,,63ea669ce46739b08786f07b,643773844fdd37dcd032b712,04-13-2023_04h19.27.521,PRaM,2021.2.3,Win32,29.98860433,61b8f3437b89212fae0dfade
7,2.7182,space,1.0779,0,217,217,14,1,,,63ea669ce46739b08786f07b,643773844fdd37dcd032b712,04-13-2023_04h19.27.521,PRaM,2021.2.3,Win32,29.98860433,61b8f3437b89212fae0dfade
8,2.1421,space,0.4874,0,218,218,208,1,,,63ea669ce46739b08786f07b,643773844fdd37dcd032b712,04-13-2023_04h19.27.521,PRaM,2021.2.3,Win32,29.98860433,61b8f3437b89212fae0dfade
4,2.1938,space,0.5453,0,219,219,18,1,,,63ea669ce46739b08786f07b,643773844fdd37dcd032b712,04-13-2023_04h19.27.521,PRaM,2021.2.3,Win32,29.98860433,61b8f3437b89212fae0dfade
4,1.8866,space,0.3006,0,220,220,128,1,,,63ea669ce46739b08786f07b,643773844fdd37dcd032b712,04-13-2023_04h19.27.521,PRaM,2021.2.3,Win32,29.98860433,61b8f3437b89212fae0dfade
7,1.9129,space,0.3215,0,221,221,226,1,,,63ea669ce46739b08786f07b,643773844fdd37dcd032b712,04-13-2023_04h19.27.521,PRaM,2021.2.3,Win32,29.98860433,61b8f3437b89212fae0dfade
8,2.8716,space,1.3053,0,222,222,134,1,,,63ea669ce46739b08786f07b,643773844fdd37dcd032b712,04-13-2023_04h19.27.521,PRaM,2021.2.3,Win32,29.98860433,61b8f3437b89212fae0dfade
4,6.063,space,4.4311,0,223,223,188,1,,,63ea669ce46739b08786f07b,643773844fdd37dcd032b712,04-13-2023_04h19.27.521,PRaM,2021.2.3,Win32,29.98860433,61b8f3437b89212fae0dfade
8,2.6168,space,0.9665,0,224,224,69,1,,,63ea669ce46739b08786f07b,643773844fdd37dcd032b712,04-13-2023_04h19.27.521,PRaM,2021.2.3,Win32,29.98860433,61b8f3437b89212fae0dfade
4,2.1046,space,0.5081,0,225,225,240,1,,,63ea669ce46739b08786f07b,643773844fdd37dcd032b712,04-13-2023_04h19.27.521,PRaM,2021.2.3,Win32,29.98860433,61b8f3437b89212fae0dfade
7,2.057,space,0.4162,0,226,226,280,1,,,63ea669ce46739b08786f07b,643773844fdd37dcd032b712,04-13-2023_04h19.27.521,PRaM,2021.2.3,Win32,29.98860433,61b8f3437b89212fae0dfade
4,1.8894,space,0.2071,0,227,227,113,1,,,63ea669ce46739b08786f07b,643773844fdd37dcd032b712,04-13-2023_04h19.27.521,PRaM,2021.2.3,Win32,29.98860433,61b8f3437b89212fae0dfade
8,1.9857,space,0.3372,0,228,228,211,1,,,63ea669ce46739b08786f07b,643773844fdd37dcd032b712,04-13-2023_04h19.27.521,PRaM,2021.2.3,Win32,29.98860433,61b8f3437b89212fae0dfade
4,1.8976,space,0.3006,0,229,229,309,1,,,63ea669ce46739b08786f07b,643773844fdd37dcd032b712,04-13-2023_04h19.27.521,PRaM,2021.2.3,Win32,29.98860433,61b8f3437b89212fae0dfade
4,2.412,space,0.782,0,230,230,92,1,,,63ea669ce46739b08786f07b,643773844fdd37dcd032b712,04-13-2023_04h19.27.521,PRaM,2021.2.3,Win32,29.98860433,61b8f3437b89212fae0dfade
6,2.9078,space,1.2154,0,231,231,59,1,,,63ea669ce46739b08786f07b,643773844fdd37dcd032b712,04-13-2023_04h19.27.521,PRaM,2021.2.3,Win32,29.98860433,61b8f3437b89212fae0dfade
8,5.9713,space,4.3139,0,232,232,209,1,,,63ea669ce46739b08786f07b,643773844fdd37dcd032b712,04-13-2023_04h19.27.521,PRaM,2021.2.3,Win32,29.98860433,61b8f3437b89212fae0dfade
4,7.578,space,6.7419,0,233,233,365,1,,,63ea669ce46739b08786f07b,643773844fdd37dcd032b712,04-13-2023_04h19.27.521,PRaM,2021.2.3,Win32,29.98860433,61b8f3437b89212fae0dfade
8,1.9362,space,0.3024,0,234,234,296,1,,,63ea669ce46739b08786f07b,643773844fdd37dcd032b712,04-13-2023_04h19.27.521,PRaM,2021.2.3,Win32,29.98860433,61b8f3437b89212fae0dfade
5,1.9855,space,0.7365,0,235,235,223,1,,,63ea669ce46739b08786f07b,643773844fdd37dcd032b712,04-13-2023_04h19.27.521,PRaM,2021.2.3,Win32,29.98860433,61b8f3437b89212fae0dfade
3,4.4482,space,2.9332,0,236,236,268,1,,,63ea669ce46739b08786f07b,643773844fdd37dcd032b712,04-13-2023_04h19.27.521,PRaM,2021.2.3,Win32,29.98860433,61b8f3437b89212fae0dfade
8,2.2836,space,0.6459,0,237,237,307,1,,,63ea669ce46739b08786f07b,643773844fdd37dcd032b712,04-13-2023_04h19.27.521,PRaM,2021.2.3,Win32,29.98860433,61b8f3437b89212fae0dfade
3,1.9429,space,0.3538,0,238,238,122,1,,,63ea669ce46739b08786f07b,643773844fdd37dcd032b712,04-13-2023_04h19.27.521,PRaM,2021.2.3,Win32,29.98860433,61b8f3437b89212fae0dfade
7,2.8456,space,1.3465,0,239,239,244,1,,,63ea669ce46739b08786f07b,643773844fdd37dcd032b712,04-13-2023_04h19.27.521,PRaM,2021.2.3,Win32,29.98860433,61b8f3437b89212fae0dfade
5,1.4077,space,0.9019,0,240,240,299,1,,,63ea669ce46739b08786f07b,643773844fdd37dcd032b712,04-13-2023_04h19.27.521,PRaM,2021.2.3,Win32,29.98860433,61b8f3437b89212fae0dfade
2,2.2257,space,0.5811,0,241,241,10,1,,,63ea669ce46739b08786f07b,643773844fdd37dcd032b712,04-13-2023_04h19.27.521,PRaM,2021.2.3,Win32,29.98860433,61b8f3437b89212fae0dfade
1,3.3555,space,1.7372,0,242,242,263,1,,,63ea669ce46739b08786f07b,643773844fdd37dcd032b712,04-13-2023_04h19.27.521,PRaM,2021.2.3,Win32,29.98860433,61b8f3437b89212fae0dfade
4,2.223,space,0.6766,0,243,243,294,1,,,63ea669ce46739b08786f07b,643773844fdd37dcd032b712,04-13-2023_04h19.27.521,PRaM,2021.2.3,Win32,29.98860433,61b8f3437b89212fae0dfade
7,2.1596,space,0.5123,0,244,244,47,1,,,63ea669ce46739b08786f07b,643773844fdd37dcd032b712,04-13-2023_04h19.27.521,PRaM,2021.2.3,Win32,29.98860433,61b8f3437b89212fae0dfade
8,1.8729,space,0.2442,0,245,245,175,1,,,63ea669ce46739b08786f07b,643773844fdd37dcd032b712,04-13-2023_04h19.27.521,PRaM,2021.2.3,Win32,29.98860433,61b8f3437b89212fae0dfade
7,1.7394,space,0.107,0,246,246,336,1,,,63ea669ce46739b08786f07b,643773844fdd37dcd032b712,04-13-2023_04h19.27.521,PRaM,2021.2.3,Win32,29.98860433,61b8f3437b89212fae0dfade
5,1.7459,space,0.0555,0,247,247,187,1,,,63ea669ce46739b08786f07b,643773844fdd37dcd032b712,04-13-2023_04h19.27.521,PRaM,2021.2.3,Win32,29.98860433,61b8f3437b89212fae0dfade
6,2.395,space,0.6371,0,248,248,326,1,,,63ea669ce46739b08786f07b,643773844fdd37dcd032b712,04-13-2023_04h19.27.521,PRaM,2021.2.3,Win32,29.98860433,61b8f3437b89212fae0dfade
9,2.8785,space,1.2164,0,249,249,222,1,,,63ea669ce46739b08786f07b,643773844fdd37dcd032b712,04-13-2023_04h19.27.521,PRaM,2021.2.3,Win32,29.98860433,61b8f3437b89212fae0dfade
3,2.0021,space,0.3847,0,250,250,162,1,,,63ea669ce46739b08786f07b,643773844fdd37dcd032b712,04-13-2023_04h19.27.521,PRaM,2021.2.3,Win32,29.98860433,61b8f3437b89212fae0dfade
4,3.0203,space,1.3724,0,251,251,350,1,,,63ea669ce46739b08786f07b,643773844fdd37dcd032b712,04-13-2023_04h19.27.521,PRaM,2021.2.3,Win32,29.98860433,61b8f3437b89212fae0dfade
4,1.6796,space,0.0511,0,252,252,308,1,,,63ea669ce46739b08786f07b,643773844fdd37dcd032b712,04-13-2023_04h19.27.521,PRaM,2021.2.3,Win32,29.98860433,61b8f3437b89212fae0dfade
3,1.6914,space,0.0541,0,253,253,267,1,,,63ea669ce46739b08786f07b,643773844fdd37dcd032b712,04-13-2023_04h19.27.521,PRaM,2021.2.3,Win32,29.98860433,61b8f3437b89212fae0dfade
5,1.7193,space,0.0015,0,254,254,356,1,,,63ea669ce46739b08786f07b,643773844fdd37dcd032b712,04-13-2023_04h19.27.521,PRaM,2021.2.3,Win32,29.98860433,61b8f3437b89212fae0dfade
4,3.1252,space,1.313,0,255,255,17,1,,,63ea669ce46739b08786f07b,643773844fdd37dcd032b712,04-13-2023_04h19.27.521,PRaM,2021.2.3,Win32,29.98860433,61b8f3437b89212fae0dfade
4,2.2209,space,0.5692,0,256,256,202,1,,,63ea669ce46739b08786f07b,643773844fdd37dcd032b712,04-13-2023_04h19.27.521,PRaM,2021.2.3,Win32,29.98860433,61b8f3437b89212fae0dfade
4,3.4858,space,1.8002,0,257,257,44,1,,,63ea669ce46739b08786f07b,643773844fdd37dcd032b712,04-13-2023_04h19.27.521,PRaM,2021.2.3,Win32,29.98860433,61b8f3437b89212fae0dfade
2,1.6877,space,1.9582,0,258,258,66,1,,,63ea669ce46739b08786f07b,643773844fdd37dcd032b712,04-13-2023_04h19.27.521,PRaM,2021.2.3,Win32,29.98860433,61b8f3437b89212fae0dfade
3,2.2828,space,0.7028,0,259,259,130,1,,,63ea669ce46739b08786f07b,643773844fdd37dcd032b712,04-13-2023_04h19.27.521,PRaM,2021.2.3,Win32,29.98860433,61b8f3437b89212fae0dfade
6,4.5302,space,2.8474,0,260,260,84,1,,,63ea669ce46739b08786f07b,643773844fdd37dcd032b712,04-13-2023_04h19.27.521,PRaM,2021.2.3,Win32,29.98860433,61b8f3437b89212fae0dfade
3,2.2248,space,0.9662,0,261,261,106,1,,,63ea669ce46739b08786f07b,643773844fdd37dcd032b712,04-13-2023_04h19.27.521,PRaM,2021.2.3,Win32,29.98860433,61b8f3437b89212fae0dfade
4,7.3159,space,5.7117,0,262,262,375,1,,,63ea669ce46739b08786f07b,643773844fdd37dcd032b712,04-13-2023_04h19.27.521,PRaM,2021.2.3,Win32,29.98860433,61b8f3437b89212fae0dfade
3,2.4264,space,0.7432,0,263,263,217,1,,,63ea669ce46739b08786f07b,643773844fdd37dcd032b712,04-13-2023_04h19.27.521,PRaM,2021.2.3,Win32,29.98860433,61b8f3437b89212fae0dfade
8,2.3705,space,0.7862,0,264,264,246,1,,,63ea669ce46739b08786f07b,643773844fdd37dcd032b712,04-13-2023_04h19.27.521,PRaM,2021.2.3,Win32,29.98860433,61b8f3437b89212fae0dfade
9,2.7469,space,1.2367,0,265,265,255,1,,,63ea669ce46739b08786f07b,643773844fdd37dcd032b712,04-13-2023_04h19.27.521,PRaM,2021.2.3,Win32,29.98860433,61b8f3437b89212fae0dfade
6,1.9941,space,0.2778,0,266,266,21,1,,,63ea669ce46739b08786f07b,643773844fdd37dcd032b712,04-13-2023_04h19.27.521,PRaM,2021.2.3,Win32,29.98860433,61b8f3437b89212fae0dfade
3,1.8946,space,0.2879,0,267,267,176,1,,,63ea669ce46739b08786f07b,643773844fdd37dcd032b712,04-13-2023_04h19.27.521,PRaM,2021.2.3,Win32,29.98860433,61b8f3437b89212fae0dfade
3,1.5395,space,1.8686,0,268,268,96,1,,,63ea669ce46739b08786f07b,643773844fdd37dcd032b712,04-13-2023_04h19.27.521,PRaM,2021.2.3,Win32,29.98860433,61b8f3437b89212fae0dfade
8,2.3303,space,0.644,0,269,269,196,1,,,63ea669ce46739b08786f07b,643773844fdd37dcd032b712,04-13-2023_04h19.27.521,PRaM,2021.2.3,Win32,29.98860433,61b8f3437b89212fae0dfade
4,1.6961,space,0.6998,0,270,270,212,1,,,63ea669ce46739b08786f07b,643773844fdd37dcd032b712,04-13-2023_04h19.27.521,PRaM,2021.2.3,Win32,29.98860433,61b8f3437b89212fae0dfade
3,2.4558,space,0.7872,0,271,271,273,1,,,63ea669ce46739b08786f07b,643773844fdd37dcd032b712,04-13-2023_04h19.27.521,PRaM,2021.2.3,Win32,29.98860433,61b8f3437b89212fae0dfade
6,1.7885,space,0.4047,0,272,272,126,1,,,63ea669ce46739b08786f07b,643773844fdd37dcd032b712,04-13-2023_04h19.27.521,PRaM,2021.2.3,Win32,29.98860433,61b8f3437b89212fae0dfade
7,2.6787,space,0.8983,0,273,273,197,1,,,63ea669ce46739b08786f07b,643773844fdd37dcd032b712,04-13-2023_04h19.27.521,PRaM,2021.2.3,Win32,29.98860433,61b8f3437b89212fae0dfade
5,1.5086,space,0.4872,0,274,274,179,1,,,63ea669ce46739b08786f07b,643773844fdd37dcd032b712,04-13-2023_04h19.27.521,PRaM,2021.2.3,Win32,29.98860433,61b8f3437b89212fae0dfade
8,2.1258,space,0.4753,0,275,275,319,1,,,63ea669ce46739b08786f07b,643773844fdd37dcd032b712,04-13-2023_04h19.27.521,PRaM,2021.2.3,Win32,29.98860433,61b8f3437b89212fae0dfade
7,2.4153,space,1.0699,0,276,276,61,1,,,63ea669ce46739b08786f07b,643773844fdd37dcd032b712,04-13-2023_04h19.27.521,PRaM,2021.2.3,Win32,29.98860433,61b8f3437b89212fae0dfade
7,3.1788,space,1.6659,0,277,277,194,1,,,63ea669ce46739b08786f07b,643773844fdd37dcd032b712,04-13-2023_04h19.27.521,PRaM,2021.2.3,Win32,29.98860433,61b8f3437b89212fae0dfade
4,2.1327,space,0.4409,0,278,278,36,1,,,63ea669ce46739b08786f07b,643773844fdd37dcd032b712,04-13-2023_04h19.27.521,PRaM,2021.2.3,Win32,29.98860433,61b8f3437b89212fae0dfade
9,1.8849,space,0.2382,0,279,279,302,1,,,63ea669ce46739b08786f07b,643773844fdd37dcd032b712,04-13-2023_04h19.27.521,PRaM,2021.2.3,Win32,29.98860433,61b8f3437b89212fae0dfade
4,2.2781,space,0.6221,0,280,280,193,1,,,63ea669ce46739b08786f07b,643773844fdd37dcd032b712,04-13-2023_04h19.27.521,PRaM,2021.2.3,Win32,29.98860433,61b8f3437b89212fae0dfade
4,4.2501,space,2.6303,0,281,281,304,1,,,63ea669ce46739b08786f07b,643773844fdd37dcd032b712,04-13-2023_04h19.27.521,PRaM,2021.2.3,Win32,29.98860433,61b8f3437b89212fae0dfade
3,2.0991,space,0.4141,0,282,282,68,1,,,63ea669ce46739b08786f07b,643773844fdd37dcd032b712,04-13-2023_04h19.27.521,PRaM,2021.2.3,Win32,29.98860433,61b8f3437b89212fae0dfade
2,1.8729,space,0.2674,0,283,283,135,1,,,63ea669ce46739b08786f07b,643773844fdd37dcd032b712,04-13-2023_04h19.27.521,PRaM,2021.2.3,Win32,29.98860433,61b8f3437b89212fae0dfade
4,3.7391,space,2.0214,0,284,284,153,1,,,63ea669ce46739b08786f07b,643773844fdd37dcd032b712,04-13-2023_04h19.27.521,PRaM,2021.2.3,Win32,29.98860433,61b8f3437b89212fae0dfade
3,1.5128,space,0.6495,0,285,285,157,1,,,63ea669ce46739b08786f07b,643773844fdd37dcd032b712,04-13-2023_04h19.27.521,PRaM,2021.2.3,Win32,29.98860433,61b8f3437b89212fae0dfade
3,2.6301,space,1.0137,0,286,286,195,1,,,63ea669ce46739b08786f07b,643773844fdd37dcd032b712,04-13-2023_04h19.27.521,PRaM,2021.2.3,Win32,29.98860433,61b8f3437b89212fae0dfade
3,2.1092,space,0.5131,0,287,287,185,1,,,63ea669ce46739b08786f07b,643773844fdd37dcd032b712,04-13-2023_04h19.27.521,PRaM,2021.2.3,Win32,29.98860433,61b8f3437b89212fae0dfade
3,1.8148,space,0.1892,0,288,288,201,1,,,63ea669ce46739b08786f07b,643773844fdd37dcd032b712,04-13-2023_04h19.27.521,PRaM,2021.2.3,Win32,29.98860433,61b8f3437b89212fae0dfade
7,2.4982,space,0.7977,0,289,289,48,1,,,63ea669ce46739b08786f07b,643773844fdd37dcd032b712,04-13-2023_04h19.27.521,PRaM,2021.2.3,Win32,29.98860433,61b8f3437b89212fae0dfade
3,1.9738,space,0.4031,0,290,290,317,1,,,63ea669ce46739b08786f07b,643773844fdd37dcd032b712,04-13-2023_04h19.27.521,PRaM,2021.2.3,Win32,29.98860433,61b8f3437b89212fae0dfade
9,1.7228,space,0.5383,0,291,291,137,1,,,63ea669ce46739b08786f07b,643773844fdd37dcd032b712,04-13-2023_04h19.27.521,PRaM,2021.2.3,Win32,29.98860433,61b8f3437b89212fae0dfade
3,7.7296,space,6.2042,0,292,292,23,1,,,63ea669ce46739b08786f07b,643773844fdd37dcd032b712,04-13-2023_04h19.27.521,PRaM,2021.2.3,Win32,29.98860433,61b8f3437b89212fae0dfade
2,1.7368,space,0.1838,0,293,293,154,1,,,63ea669ce46739b08786f07b,643773844fdd37dcd032b712,04-13-2023_04h19.27.521,PRaM,2021.2.3,Win32,29.98860433,61b8f3437b89212fae0dfade
5,1.9264,space,0.245,0,294,294,377,1,,,63ea669ce46739b08786f07b,643773844fdd37dcd032b712,04-13-2023_04h19.27.521,PRaM,2021.2.3,Win32,29.98860433,61b8f3437b89212fae0dfade
3,2.9181,space,1.3077,0,295,295,364,1,,,63ea669ce46739b08786f07b,643773844fdd37dcd032b712,04-13-2023_04h19.27.521,PRaM,2021.2.3,Win32,29.98860433,61b8f3437b89212fae0dfade
7,16.9334,space,15.3512,0,296,296,51,1,,,63ea669ce46739b08786f07b,643773844fdd37dcd032b712,04-13-2023_04h19.27.521,PRaM,2021.2.3,Win32,29.98860433,61b8f3437b89212fae0dfade
5,1.7693,space,0.1319,0,297,297,274,1,,,63ea669ce46739b08786f07b,643773844fdd37dcd032b712,04-13-2023_04h19.27.521,PRaM,2021.2.3,Win32,29.98860433,61b8f3437b89212fae0dfade
7,2.8064,space,1.1421,0,298,298,33,1,,,63ea669ce46739b08786f07b,643773844fdd37dcd032b712,04-13-2023_04h19.27.521,PRaM,2021.2.3,Win32,29.98860433,61b8f3437b89212fae0dfade
7,1.9376,space,0.1501,0,299,299,327,1,,,63ea669ce46739b08786f07b,643773844fdd37dcd032b712,04-13-2023_04h19.27.521,PRaM,2021.2.3,Win32,29.98860433,61b8f3437b89212fae0dfade
6,4.8611,space,3.2087,0,300,300,253,1,,,63ea669ce46739b08786f07b,643773844fdd37dcd032b712,04-13-2023_04h19.27.521,PRaM,2021.2.3,Win32,29.98860433,61b8f3437b89212fae0dfade
8,2.5244,space,0.9708,0,301,301,56,1,,,63ea669ce46739b08786f07b,643773844fdd37dcd032b712,04-13-2023_04h19.27.521,PRaM,2021.2.3,Win32,29.98860433,61b8f3437b89212fae0dfade
4,6.6314,space,5.1651,0,302,302,35,1,,,63ea669ce46739b08786f07b,643773844fdd37dcd032b712,04-13-2023_04h19.27.521,PRaM,2021.2.3,Win32,29.98860433,61b8f3437b89212fae0dfade
4,4.3081,space,2.7738,0,303,303,42,1,,,63ea669ce46739b08786f07b,643773844fdd37dcd032b712,04-13-2023_04h19.27.521,PRaM,2021.2.3,Win32,29.98860433,61b8f3437b89212fae0dfade
3,1.8709,space,0.3778,0,304,304,160,1,,,63ea669ce46739b08786f07b,643773844fdd37dcd032b712,04-13-2023_04h19.27.521,PRaM,2021.2.3,Win32,29.98860433,61b8f3437b89212fae0dfade
3,1.5431,space,0.5704,0,305,305,235,1,,,63ea669ce46739b08786f07b,643773844fdd37dcd032b712,04-13-2023_04h19.27.521,PRaM,2021.2.3,Win32,29.98860433,61b8f3437b89212fae0dfade
3,1.615,space,0.6323,0,306,306,265,1,,,63ea669ce46739b08786f07b,643773844fdd37dcd032b712,04-13-2023_04h19.27.521,PRaM,2021.2.3,Win32,29.98860433,61b8f3437b89212fae0dfade
8,1.8939,space,0.3404,0,307,307,178,1,,,63ea669ce46739b08786f07b,643773844fdd37dcd032b712,04-13-2023_04h19.27.521,PRaM,2021.2.3,Win32,29.98860433,61b8f3437b89212fae0dfade
4,3.0796,space,1.369,0,308,308,60,1,,,63ea669ce46739b08786f07b,643773844fdd37dcd032b712,04-13-2023_04h19.27.521,PRaM,2021.2.3,Win32,29.98860433,61b8f3437b89212fae0dfade
5,2.2371,space,0.5573,0,309,309,335,1,,,63ea669ce46739b08786f07b,643773844fdd37dcd032b712,04-13-2023_04h19.27.521,PRaM,2021.2.3,Win32,29.98860433,61b8f3437b89212fae0dfade
2,3.2001,space,1.6028,0,310,310,345,1,,,63ea669ce46739b08786f07b,643773844fdd37dcd032b712,04-13-2023_04h19.27.521,PRaM,2021.2.3,Win32,29.98860433,61b8f3437b89212fae0dfade
7,3.1564,space,1.4387,0,311,311,104,1,,,63ea669ce46739b08786f07b,643773844fdd37dcd032b712,04-13-2023_04h19.27.521,PRaM,2021.2.3,Win32,29.98860433,61b8f3437b89212fae0dfade
,,space,0.0236,0,312,312,224,1,,,63ea669ce46739b08786f07b,643773844fdd37dcd032b712,04-13-2023_04h19.27.521,PRaM,2021.2.3,Win32,29.98860433,61b8f3437b89212fae0dfade
8,4.0575,space,3.2795,0,313,313,117,1,,,63ea669ce46739b08786f07b,643773844fdd37dcd032b712,04-13-2023_04h19.27.521,PRaM,2021.2.3,Win32,29.98860433,61b8f3437b89212fae0dfade
9,2.5668,space,0.9499,0,314,314,75,1,,,63ea669ce46739b08786f07b,643773844fdd37dcd032b712,04-13-2023_04h19.27.521,PRaM,2021.2.3,Win32,29.98860433,61b8f3437b89212fae0dfade
5,1.9512,space,0.2674,0,315,315,140,1,,,63ea669ce46739b08786f07b,643773844fdd37dcd032b712,04-13-2023_04h19.27.521,PRaM,2021.2.3,Win32,29.98860433,61b8f3437b89212fae0dfade
9,2.5665,space,0.9825,0,316,316,372,1,,,63ea669ce46739b08786f07b,643773844fdd37dcd032b712,04-13-2023_04h19.27.521,PRaM,2021.2.3,Win32,29.98860433,61b8f3437b89212fae0dfade
4,1.8577,space,0.2002,0,317,317,54,1,,,63ea669ce46739b08786f07b,643773844fdd37dcd032b712,04-13-2023_04h19.27.521,PRaM,2021.2.3,Win32,29.98860433,61b8f3437b89212fae0dfade
1,2.4518,space,0.7884,0,318,318,313,1,,,63ea669ce46739b08786f07b,643773844fdd37dcd032b712,04-13-2023_04h19.27.521,PRaM,2021.2.3,Win32,29.98860433,61b8f3437b89212fae0dfade
8,3.028,space,1.3873,0,319,319,7,1,,,63ea669ce46739b08786f07b,643773844fdd37dcd032b712,04-13-2023_04h19.27.521,PRaM,2021.2.3,Win32,29.98860433,61b8f3437b89212fae0dfade
3,2.7038,space,1.0803,0,320,320,9,1,,,63ea669ce46739b08786f07b,643773844fdd37dcd032b712,04-13-2023_04h19.27.521,PRaM,2021.2.3,Win32,29.98860433,61b8f3437b89212fae0dfade
3,3.0825,space,1.4422,0,321,321,245,1,,,63ea669ce46739b08786f07b,643773844fdd37dcd032b712,04-13-2023_04h19.27.521,PRaM,2021.2.3,Win32,29.98860433,61b8f3437b89212fae0dfade
3,3.4282,space,1.808,0,322,322,28,1,,,63ea669ce46739b08786f07b,643773844fdd37dcd032b712,04-13-2023_04h19.27.521,PRaM,2021.2.3,Win32,29.98860433,61b8f3437b89212fae0dfade
2,1.8997,space,0.3092,0,323,323,191,1,,,63ea669ce46739b08786f07b,643773844fdd37dcd032b712,04-13-2023_04h19.27.521,PRaM,2021.2.3,Win32,29.98860433,61b8f3437b89212fae0dfade
4,1.6779,space,0.0424,0,324,324,200,1,,,63ea669ce46739b08786f07b,643773844fdd37dcd032b712,04-13-2023_04h19.27.521,PRaM,2021.2.3,Win32,29.98860433,61b8f3437b89212fae0dfade
2,2.3823,space,0.7894,0,325,325,369,1,,,63ea669ce46739b08786f07b,643773844fdd37dcd032b712,04-13-2023_04h19.27.521,PRaM,2021.2.3,Win32,29.98860433,61b8f3437b89212fae0dfade
3,1.6558,space,0.0469,0,326,326,24,1,,,63ea669ce46739b08786f07b,643773844fdd37dcd032b712,04-13-2023_04h19.27.521,PRaM,2021.2.3,Win32,29.98860433,61b8f3437b89212fae0dfade
2,1.423,space,1.7614,0,327,327,143,1,,,63ea669ce46739b08786f07b,643773844fdd37dcd032b712,04-13-2023_04h19.27.521,PRaM,2021.2.3,Win32,29.98860433,61b8f3437b89212fae0dfade
2,1.5897,space,1.122,0,328,328,293,1,,,63ea669ce46739b08786f07b,643773844fdd37dcd032b712,04-13-2023_04h19.27.521,PRaM,2021.2.3,Win32,29.98860433,61b8f3437b89212fae0dfade
2,1.5509,space,0.9012,0,329,329,184,1,,,63ea669ce46739b08786f07b,643773844fdd37dcd032b712,04-13-2023_04h19.27.521,PRaM,2021.2.3,Win32,29.98860433,61b8f3437b89212fae0dfade
4,2.3474,space,0.7126,0,330,330,228,1,,,63ea669ce46739b08786f07b,643773844fdd37dcd032b712,04-13-2023_04h19.27.521,PRaM,2021.2.3,Win32,29.98860433,61b8f3437b89212fae0dfade
7,2.2081,space,0.9422,0,331,331,142,1,,,63ea669ce46739b08786f07b,643773844fdd37dcd032b712,04-13-2023_04h19.27.521,PRaM,2021.2.3,Win32,29.98860433,61b8f3437b89212fae0dfade
8,2.4723,space,0.9386,0,332,332,4,1,,,63ea669ce46739b08786f07b,643773844fdd37dcd032b712,04-13-2023_04h19.27.521,PRaM,2021.2.3,Win32,29.98860433,61b8f3437b89212fae0dfade
7,1.9264,space,0.3168,0,333,333,334,1,,,63ea669ce46739b08786f07b,643773844fdd37dcd032b712,04-13-2023_04h19.27.521,PRaM,2021.2.3,Win32,29.98860433,61b8f3437b89212fae0dfade
8,3.6407,space,1.9814,0,334,334,218,1,,,63ea669ce46739b08786f07b,643773844fdd37dcd032b712,04-13-2023_04h19.27.521,PRaM,2021.2.3,Win32,29.98860433,61b8f3437b89212fae0dfade
7,3.6327,space,1.9703,0,335,335,347,1,,,63ea669ce46739b08786f07b,643773844fdd37dcd032b712,04-13-2023_04h19.27.521,PRaM,2021.2.3,Win32,29.98860433,61b8f3437b89212fae0dfade
4,3.8403,space,2.2034,0,336,336,67,1,,,63ea669ce46739b08786f07b,643773844fdd37dcd032b712,04-13-2023_04h19.27.521,PRaM,2021.2.3,Win32,29.98860433,61b8f3437b89212fae0dfade
9,2.3716,space,0.8012,0,337,337,186,1,,,63ea669ce46739b08786f07b,643773844fdd37dcd032b712,04-13-2023_04h19.27.521,PRaM,2021.2.3,Win32,29.98860433,61b8f3437b89212fae0dfade
6,1.6548,space,0.5175,0,338,338,155,1,,,63ea669ce46739b08786f07b,643773844fdd37dcd032b712,04-13-2023_04h19.27.521,PRaM,2021.2.3,Win32,29.98860433,61b8f3437b89212fae0dfade
4,2.4918,space,0.8076,0,339,339,93,1,,,63ea669ce46739b08786f07b,643773844fdd37dcd032b712,04-13-2023_04h19.27.521,PRaM,2021.2.3,Win32,29.98860433,61b8f3437b89212fae0dfade
5,1.5628,space,0.6724,0,340,340,374,1,,,63ea669ce46739b08786f07b,643773844fdd37dcd032b712,04-13-2023_04h19.27.521,PRaM,2021.2.3,Win32,29.98860433,61b8f3437b89212fae0dfade
8,2.0059,space,0.3692,0,341,341,3,1,,,63ea669ce46739b08786f07b,643773844fdd37dcd032b712,04-13-2023_04h19.27.521,PRaM,2021.2.3,Win32,29.98860433,61b8f3437b89212fae0dfade
3,1.8838,space,0.2042,0,342,342,338,1,,,63ea669ce46739b08786f07b,643773844fdd37dcd032b712,04-13-2023_04h19.27.521,PRaM,2021.2.3,Win32,29.98860433,61b8f3437b89212fae0dfade
8,3.718,space,2.1862,0,343,343,346,1,,,63ea669ce46739b08786f07b,643773844fdd37dcd032b712,04-13-2023_04h19.27.521,PRaM,2021.2.3,Win32,29.98860433,61b8f3437b89212fae0dfade
3,1.8886,space,0.2185,0,344,344,108,1,,,63ea669ce46739b08786f07b,643773844fdd37dcd032b712,04-13-2023_04h19.27.521,PRaM,2021.2.3,Win32,29.98860433,61b8f3437b89212fae0dfade
2,1.9222,space,0.2982,0,345,345,79,1,,,63ea669ce46739b08786f07b,643773844fdd37dcd032b712,04-13-2023_04h19.27.521,PRaM,2021.2.3,Win32,29.98860433,61b8f3437b89212fae0dfade
8,2.0765,space,0.4365,0,346,346,62,1,,,63ea669ce46739b08786f07b,643773844fdd37dcd032b712,04-13-2023_04h19.27.521,PRaM,2021.2.3,Win32,29.98860433,61b8f3437b89212fae0dfade
3,2.5487,space,0.836,0,347,347,98,1,,,63ea669ce46739b08786f07b,643773844fdd37dcd032b712,04-13-2023_04h19.27.521,PRaM,2021.2.3,Win32,29.98860433,61b8f3437b89212fae0dfade
3,2.5583,space,0.9353,0,348,348,45,1,,,63ea669ce46739b08786f07b,643773844fdd37dcd032b712,04-13-2023_04h19.27.521,PRaM,2021.2.3,Win32,29.98860433,61b8f3437b89212fae0dfade
5,2.3992,space,0.751,0,349,349,371,1,,,63ea669ce46739b08786f07b,643773844fdd37dcd032b712,04-13-2023_04h19.27.521,PRaM,2021.2.3,Win32,29.98860433,61b8f3437b89212fae0dfade
4,12.2368,space,10.6857,0,350,350,37,1,,,63ea669ce46739b08786f07b,643773844fdd37dcd032b712,04-13-2023_04h19.27.521,PRaM,2021.2.3,Win32,29.98860433,61b8f3437b89212fae0dfade
2,2.2182,space,0.6103,0,351,351,232,1,,,63ea669ce46739b08786f07b,643773844fdd37dcd032b712,04-13-2023_04h19.27.521,PRaM,2021.2.3,Win32,29.98860433,61b8f3437b89212fae0dfade
2,8.033,space,7.7322,0,352,352,180,1,,,63ea669ce46739b08786f07b,643773844fdd37dcd032b712,04-13-2023_04h19.27.521,PRaM,2021.2.3,Win32,29.98860433,61b8f3437b89212fae0dfade
5,1.8476,space,0.2118,0,353,353,322,1,,,63ea669ce46739b08786f07b,643773844fdd37dcd032b712,04-13-2023_04h19.27.521,PRaM,2021.2.3,Win32,29.98860433,61b8f3437b89212fae0dfade
2,1.8731,space,0.308,0,354,354,283,1,,,63ea669ce46739b08786f07b,643773844fdd37dcd032b712,04-13-2023_04h19.27.521,PRaM,2021.2.3,Win32,29.98860433,61b8f3437b89212fae0dfade
2,1.6738,space,1.3203,0,355,355,204,1,,,63ea669ce46739b08786f07b,643773844fdd37dcd032b712,04-13-2023_04h19.27.521,PRaM,2021.2.3,Win32,29.98860433,61b8f3437b89212fae0dfade
1,2.2605,space,0.5706,0,356,356,78,1,,,63ea669ce46739b08786f07b,643773844fdd37dcd032b712,04-13-2023_04h19.27.521,PRaM,2021.2.3,Win32,29.98860433,61b8f3437b89212fae0dfade
8,3.059,space,1.4336,0,357,357,80,1,,,63ea669ce46739b08786f07b,643773844fdd37dcd032b712,04-13-2023_04h19.27.521,PRaM,2021.2.3,Win32,29.98860433,61b8f3437b89212fae0dfade
8,2.1806,space,0.5118,0,358,358,12,1,,,63ea669ce46739b08786f07b,643773844fdd37dcd032b712,04-13-2023_04h19.27.521,PRaM,2021.2.3,Win32,29.98860433,61b8f3437b89212fae0dfade
9,3.0988,space,1.4792,0,359,359,301,1,,,63ea669ce46739b08786f07b,643773844fdd37dcd032b712,04-13-2023_04h19.27.521,PRaM,2021.2.3,Win32,29.98860433,61b8f3437b89212fae0dfade
2,2.2434,space,0.5839,0,360,360,55,1,,,63ea669ce46739b08786f07b,643773844fdd37dcd032b712,04-13-2023_04h19.27.521,PRaM,2021.2.3,Win32,29.98860433,61b8f3437b89212fae0dfade
2,2.0753,space,0.6365,0,361,361,88,1,,,63ea669ce46739b08786f07b,643773844fdd37dcd032b712,04-13-2023_04h19.27.521,PRaM,2021.2.3,Win32,29.98860433,61b8f3437b89212fae0dfade
2,2.175,space,0.6135,0,362,362,266,1,,,63ea669ce46739b08786f07b,643773844fdd37dcd032b712,04-13-2023_04h19.27.521,PRaM,2021.2.3,Win32,29.98860433,61b8f3437b89212fae0dfade
8,1.9918,space,0.366,0,363,363,145,1,,,63ea669ce46739b08786f07b,643773844fdd37dcd032b712,04-13-2023_04h19.27.521,PRaM,2021.2.3,Win32,29.98860433,61b8f3437b89212fae0dfade
2,1.8882,space,0.3092,0,364,364,231,1,,,63ea669ce46739b08786f07b,643773844fdd37dcd032b712,04-13-2023_04h19.27.521,PRaM,2021.2.3,Win32,29.98860433,61b8f3437b89212fae0dfade
8,6.7729,space,5.1506,0,365,365,19,1,,,63ea669ce46739b08786f07b,643773844fdd37dcd032b712,04-13-2023_04h19.27.521,PRaM,2021.2.3,Win32,29.98860433,61b8f3437b89212fae0dfade
6,1.8742,space,0.2983,0,366,366,181,1,,,63ea669ce46739b08786f07b,643773844fdd37dcd032b712,04-13-2023_04h19.27.521,PRaM,2021.2.3,Win32,29.98860433,61b8f3437b89212fae0dfade
9,3.7112,space,2.0674,0,367,367,331,1,,,63ea669ce46739b08786f07b,643773844fdd37dcd032b712,04-13-2023_04h19.27.521,PRaM,2021.2.3,Win32,29.98860433,61b8f3437b89212fae0dfade
8,2.7238,space,1.2235,0,368,368,221,1,,,63ea669ce46739b08786f07b,643773844fdd37dcd032b712,04-13-2023_04h19.27.521,PRaM,2021.2.3,Win32,29.98860433,61b8f3437b89212fae0dfade
3,2.2027,space,0.5807,0,369,369,198,1,,,63ea669ce46739b08786f07b,643773844fdd37dcd032b712,04-13-2023_04h19.27.521,PRaM,2021.2.3,Win32,29.98860433,61b8f3437b89212fae0dfade
2,2.1342,space,0.4368,0,370,370,189,1,,,63ea669ce46739b08786f07b,643773844fdd37dcd032b712,04-13-2023_04h19.27.521,PRaM,2021.2.3,Win32,29.98860433,61b8f3437b89212fae0dfade
6,2.1028,space,0.5055,0,371,371,46,1,,,63ea669ce46739b08786f07b,643773844fdd37dcd032b712,04-13-2023_04h19.27.521,PRaM,2021.2.3,Win32,29.98860433,61b8f3437b89212fae0dfade
3,2.6222,space,1.6315,0,372,372,344,1,,,63ea669ce46739b08786f07b,643773844fdd37dcd032b712,04-13-2023_04h19.27.521,PRaM,2021.2.3,Win32,29.98860433,61b8f3437b89212fae0dfade
3,18.1506,space,16.5289,0,373,373,343,1,,,63ea669ce46739b08786f07b,643773844fdd37dcd032b712,04-13-2023_04h19.27.521,PRaM,2021.2.3,Win32,29.98860433,61b8f3437b89212fae0dfade
8,1.942,space,0.7058,0,374,374,297,1,,,63ea669ce46739b08786f07b,643773844fdd37dcd032b712,04-13-2023_04h19.27.521,PRaM,2021.2.3,Win32,29.98860433,61b8f3437b89212fae0dfade
2,46.2988,space,44.6734,0,375,375,5,1,,,63ea669ce46739b08786f07b,643773844fdd37dcd032b712,04-13-2023_04h19.27.521,PRaM,2021.2.3,Win32,29.98860433,61b8f3437b89212fae0dfade
7,5.153,space,4.0065,0,376,376,139,1,,,63ea669ce46739b08786f07b,643773844fdd37dcd032b712,04-13-2023_04h19.27.521,PRaM,2021.2.3,Win32,29.98860433,61b8f3437b89212fae0dfade
2,4.9657,space,4.464,0,377,377,111,1,,,63ea669ce46739b08786f07b,643773844fdd37dcd032b712,04-13-2023_04h19.27.521,PRaM,2021.2.3,Win32,29.98860433,61b8f3437b89212fae0dfade
