Rating.response,Rating.rt,EndTrial.keys,EndTrial.rt,trials.thisRepN,trials.thisTrialN,trials.thisN,trials.thisIndex,trials.ran,Pos1,Pos2,participant,session,date,expName,psychopyVersion,OS,frameRate,study_id
6,16.5116,space,24.784,0,0,0,75,1,,,63ef938aea545fb9bd19a591,643916394a86e25a24c7370d,2023-04-14_10h03.42.524,PRaM,2021.2.3,Win32,60.33910577,61b8f3437b89212fae0dfade
1,6.1256,space,4.9194,0,1,1,111,1,,,63ef938aea545fb9bd19a591,643916394a86e25a24c7370d,2023-04-14_10h03.42.524,PRaM,2021.2.3,Win32,60.33910577,61b8f3437b89212fae0dfade
1,10.8497,space,9.3244,0,2,2,195,1,,,63ef938aea545fb9bd19a591,643916394a86e25a24c7370d,2023-04-14_10h03.42.524,PRaM,2021.2.3,Win32,60.33910577,61b8f3437b89212fae0dfade
1,4.3483,space,5.3391,0,3,3,218,1,,,63ef938aea545fb9bd19a591,643916394a86e25a24c7370d,2023-04-14_10h03.42.524,PRaM,2021.2.3,Win32,60.33910577,61b8f3437b89212fae0dfade
2,4.1736,space,5.3434,0,4,4,231,1,,,63ef938aea545fb9bd19a591,643916394a86e25a24c7370d,2023-04-14_10h03.42.524,PRaM,2021.2.3,Win32,60.33910577,61b8f3437b89212fae0dfade
7,4.4358,space,4.9217,0,5,5,64,1,,,63ef938aea545fb9bd19a591,643916394a86e25a24c7370d,2023-04-14_10h03.42.524,PRaM,2021.2.3,Win32,60.33910577,61b8f3437b89212fae0dfade
8,8.4885,space,7.1559,0,6,6,147,1,,,63ef938aea545fb9bd19a591,643916394a86e25a24c7370d,2023-04-14_10h03.42.524,PRaM,2021.2.3,Win32,60.33910577,61b8f3437b89212fae0dfade
5,4.3844,space,3.342,0,7,7,43,1,,,63ef938aea545fb9bd19a591,643916394a86e25a24c7370d,2023-04-14_10h03.42.524,PRaM,2021.2.3,Win32,60.33910577,61b8f3437b89212fae0dfade
7,4.3732,space,2.7702,0,8,8,277,1,,,63ef938aea545fb9bd19a591,643916394a86e25a24c7370d,2023-04-14_10h03.42.524,PRaM,2021.2.3,Win32,60.33910577,61b8f3437b89212fae0dfade
4,12.1453,space,10.6808,0,9,9,139,1,,,63ef938aea545fb9bd19a591,643916394a86e25a24c7370d,2023-04-14_10h03.42.524,PRaM,2021.2.3,Win32,60.33910577,61b8f3437b89212fae0dfade
4,10.8939,space,9.442,0,10,10,31,1,,,63ef938aea545fb9bd19a591,643916394a86e25a24c7370d,2023-04-14_10h03.42.524,PRaM,2021.2.3,Win32,60.33910577,61b8f3437b89212fae0dfade
2,5.9073,space,4.5884,0,11,11,206,1,,,63ef938aea545fb9bd19a591,643916394a86e25a24c7370d,2023-04-14_10h03.42.524,PRaM,2021.2.3,Win32,60.33910577,61b8f3437b89212fae0dfade
2,5.0107,space,3.4693,0,12,12,68,1,,,63ef938aea545fb9bd19a591,643916394a86e25a24c7370d,2023-04-14_10h03.42.524,PRaM,2021.2.3,Win32,60.33910577,61b8f3437b89212fae0dfade
4,8.1269,space,7.0467,0,13,13,93,1,,,63ef938aea545fb9bd19a591,643916394a86e25a24c7370d,2023-04-14_10h03.42.524,PRaM,2021.2.3,Win32,60.33910577,61b8f3437b89212fae0dfade
3,11.7111,space,10.3943,0,14,14,215,1,,,63ef938aea545fb9bd19a591,643916394a86e25a24c7370d,2023-04-14_10h03.42.524,PRaM,2021.2.3,Win32,60.33910577,61b8f3437b89212fae0dfade
2,7.5755,space,6.0077,0,15,15,202,1,,,63ef938aea545fb9bd19a591,643916394a86e25a24c7370d,2023-04-14_10h03.42.524,PRaM,2021.2.3,Win32,60.33910577,61b8f3437b89212fae0dfade
7,6.9612,space,8.412,0,16,16,201,1,,,63ef938aea545fb9bd19a591,643916394a86e25a24c7370d,2023-04-14_10h03.42.524,PRaM,2021.2.3,Win32,60.33910577,61b8f3437b89212fae0dfade
7,6.6808,space,5.9907,0,17,17,112,1,,,63ef938aea545fb9bd19a591,643916394a86e25a24c7370d,2023-04-14_10h03.42.524,PRaM,2021.2.3,Win32,60.33910577,61b8f3437b89212fae0dfade
2,20.7078,space,19.0943,0,18,18,48,1,,,63ef938aea545fb9bd19a591,643916394a86e25a24c7370d,2023-04-14_10h03.42.524,PRaM,2021.2.3,Win32,60.33910577,61b8f3437b89212fae0dfade
2,5.1372,space,3.5368,0,19,19,146,1,,,63ef938aea545fb9bd19a591,643916394a86e25a24c7370d,2023-04-14_10h03.42.524,PRaM,2021.2.3,Win32,60.33910577,61b8f3437b89212fae0dfade
9,6.1767,space,4.7848,0,20,20,61,1,,,63ef938aea545fb9bd19a591,643916394a86e25a24c7370d,2023-04-14_10h03.42.524,PRaM,2021.2.3,Win32,60.33910577,61b8f3437b89212fae0dfade
8,5.565,space,4.0702,0,21,21,60,1,,,63ef938aea545fb9bd19a591,643916394a86e25a24c7370d,2023-04-14_10h03.42.524,PRaM,2021.2.3,Win32,60.33910577,61b8f3437b89212fae0dfade
5,13.0811,space,11.5796,0,22,22,182,1,,,63ef938aea545fb9bd19a591,643916394a86e25a24c7370d,2023-04-14_10h03.42.524,PRaM,2021.2.3,Win32,60.33910577,61b8f3437b89212fae0dfade
3,7.1986,space,5.5751,0,23,23,268,1,,,63ef938aea545fb9bd19a591,643916394a86e25a24c7370d,2023-04-14_10h03.42.524,PRaM,2021.2.3,Win32,60.33910577,61b8f3437b89212fae0dfade
2,6.8906,space,5.306,0,24,24,229,1,,,63ef938aea545fb9bd19a591,643916394a86e25a24c7370d,2023-04-14_10h03.42.524,PRaM,2021.2.3,Win32,60.33910577,61b8f3437b89212fae0dfade
1,7.6764,space,6.1893,0,25,25,88,1,,,63ef938aea545fb9bd19a591,643916394a86e25a24c7370d,2023-04-14_10h03.42.524,PRaM,2021.2.3,Win32,60.33910577,61b8f3437b89212fae0dfade
1,6.5124,space,4.8888,0,26,26,34,1,,,63ef938aea545fb9bd19a591,643916394a86e25a24c7370d,2023-04-14_10h03.42.524,PRaM,2021.2.3,Win32,60.33910577,61b8f3437b89212fae0dfade
2,6.1414,space,4.4533,0,27,27,253,1,,,63ef938aea545fb9bd19a591,643916394a86e25a24c7370d,2023-04-14_10h03.42.524,PRaM,2021.2.3,Win32,60.33910577,61b8f3437b89212fae0dfade
7,7.045,space,5.5208,0,28,28,154,1,,,63ef938aea545fb9bd19a591,643916394a86e25a24c7370d,2023-04-14_10h03.42.524,PRaM,2021.2.3,Win32,60.33910577,61b8f3437b89212fae0dfade
9,3.8397,space,4.2642,0,29,29,326,1,,,63ef938aea545fb9bd19a591,643916394a86e25a24c7370d,2023-04-14_10h03.42.524,PRaM,2021.2.3,Win32,60.33910577,61b8f3437b89212fae0dfade
6,8.3421,space,7.6533,0,30,30,133,1,,,63ef938aea545fb9bd19a591,643916394a86e25a24c7370d,2023-04-14_10h03.42.524,PRaM,2021.2.3,Win32,60.33910577,61b8f3437b89212fae0dfade
9,4.8481,space,3.3368,0,31,31,225,1,,,63ef938aea545fb9bd19a591,643916394a86e25a24c7370d,2023-04-14_10h03.42.524,PRaM,2021.2.3,Win32,60.33910577,61b8f3437b89212fae0dfade
4,12.4004,space,10.7431,0,32,32,183,1,,,63ef938aea545fb9bd19a591,643916394a86e25a24c7370d,2023-04-14_10h03.42.524,PRaM,2021.2.3,Win32,60.33910577,61b8f3437b89212fae0dfade
4,8.0129,space,8.6775,0,33,33,223,1,,,63ef938aea545fb9bd19a591,643916394a86e25a24c7370d,2023-04-14_10h03.42.524,PRaM,2021.2.3,Win32,60.33910577,61b8f3437b89212fae0dfade
2,4.9404,space,3.339,0,34,34,72,1,,,63ef938aea545fb9bd19a591,643916394a86e25a24c7370d,2023-04-14_10h03.42.524,PRaM,2021.2.3,Win32,60.33910577,61b8f3437b89212fae0dfade
2,3.9127,space,2.3222,0,35,35,181,1,,,63ef938aea545fb9bd19a591,643916394a86e25a24c7370d,2023-04-14_10h03.42.524,PRaM,2021.2.3,Win32,60.33910577,61b8f3437b89212fae0dfade
4,7.0942,space,5.5609,0,36,36,62,1,,,63ef938aea545fb9bd19a591,643916394a86e25a24c7370d,2023-04-14_10h03.42.524,PRaM,2021.2.3,Win32,60.33910577,61b8f3437b89212fae0dfade
2,4.6454,space,2.9587,0,37,37,177,1,,,63ef938aea545fb9bd19a591,643916394a86e25a24c7370d,2023-04-14_10h03.42.524,PRaM,2021.2.3,Win32,60.33910577,61b8f3437b89212fae0dfade
1,4.5718,space,3.0038,0,38,38,91,1,,,63ef938aea545fb9bd19a591,643916394a86e25a24c7370d,2023-04-14_10h03.42.524,PRaM,2021.2.3,Win32,60.33910577,61b8f3437b89212fae0dfade
1,8.5474,space,6.8567,0,39,39,106,1,,,63ef938aea545fb9bd19a591,643916394a86e25a24c7370d,2023-04-14_10h03.42.524,PRaM,2021.2.3,Win32,60.33910577,61b8f3437b89212fae0dfade
3,32.5813,space,31.4259,0,40,40,150,1,,,63ef938aea545fb9bd19a591,643916394a86e25a24c7370d,2023-04-14_10h03.42.524,PRaM,2021.2.3,Win32,60.33910577,61b8f3437b89212fae0dfade
2,4.191,space,2.5561,0,41,41,169,1,,,63ef938aea545fb9bd19a591,643916394a86e25a24c7370d,2023-04-14_10h03.42.524,PRaM,2021.2.3,Win32,60.33910577,61b8f3437b89212fae0dfade
2,15.1647,space,14.1462,0,42,42,315,1,,,63ef938aea545fb9bd19a591,643916394a86e25a24c7370d,2023-04-14_10h03.42.524,PRaM,2021.2.3,Win32,60.33910577,61b8f3437b89212fae0dfade
1,4.205,space,2.8545,0,43,43,1,1,,,63ef938aea545fb9bd19a591,643916394a86e25a24c7370d,2023-04-14_10h03.42.524,PRaM,2021.2.3,Win32,60.33910577,61b8f3437b89212fae0dfade
2,7.7644,space,6.2063,0,44,44,248,1,,,63ef938aea545fb9bd19a591,643916394a86e25a24c7370d,2023-04-14_10h03.42.524,PRaM,2021.2.3,Win32,60.33910577,61b8f3437b89212fae0dfade
9,5.2897,space,4.2215,0,45,45,42,1,,,63ef938aea545fb9bd19a591,643916394a86e25a24c7370d,2023-04-14_10h03.42.524,PRaM,2021.2.3,Win32,60.33910577,61b8f3437b89212fae0dfade
1,6.0565,space,5.2045,0,46,46,131,1,,,63ef938aea545fb9bd19a591,643916394a86e25a24c7370d,2023-04-14_10h03.42.524,PRaM,2021.2.3,Win32,60.33910577,61b8f3437b89212fae0dfade
7,4.9817,space,3.1619,0,47,47,85,1,,,63ef938aea545fb9bd19a591,643916394a86e25a24c7370d,2023-04-14_10h03.42.524,PRaM,2021.2.3,Win32,60.33910577,61b8f3437b89212fae0dfade
3,7.8756,space,6.5727,0,48,48,338,1,,,63ef938aea545fb9bd19a591,643916394a86e25a24c7370d,2023-04-14_10h03.42.524,PRaM,2021.2.3,Win32,60.33910577,61b8f3437b89212fae0dfade
6,8.3445,space,6.8081,0,49,49,371,1,,,63ef938aea545fb9bd19a591,643916394a86e25a24c7370d,2023-04-14_10h03.42.524,PRaM,2021.2.3,Win32,60.33910577,61b8f3437b89212fae0dfade
2,5.8902,space,4.3069,0,50,50,90,1,,,63ef938aea545fb9bd19a591,643916394a86e25a24c7370d,2023-04-14_10h03.42.524,PRaM,2021.2.3,Win32,60.33910577,61b8f3437b89212fae0dfade
,,space,3.3863,0,51,51,108,1,,,63ef938aea545fb9bd19a591,643916394a86e25a24c7370d,2023-04-14_10h03.42.524,PRaM,2021.2.3,Win32,60.33910577,61b8f3437b89212fae0dfade
3,16.9915,space,15.8973,0,52,52,366,1,,,63ef938aea545fb9bd19a591,643916394a86e25a24c7370d,2023-04-14_10h03.42.524,PRaM,2021.2.3,Win32,60.33910577,61b8f3437b89212fae0dfade
2,8.0929,space,6.59,0,53,53,117,1,,,63ef938aea545fb9bd19a591,643916394a86e25a24c7370d,2023-04-14_10h03.42.524,PRaM,2021.2.3,Win32,60.33910577,61b8f3437b89212fae0dfade
2,5.3134,space,5.027,0,54,54,240,1,,,63ef938aea545fb9bd19a591,643916394a86e25a24c7370d,2023-04-14_10h03.42.524,PRaM,2021.2.3,Win32,60.33910577,61b8f3437b89212fae0dfade
1,4.3715,space,2.82,0,55,55,190,1,,,63ef938aea545fb9bd19a591,643916394a86e25a24c7370d,2023-04-14_10h03.42.524,PRaM,2021.2.3,Win32,60.33910577,61b8f3437b89212fae0dfade
4,11.3122,space,9.7622,0,56,56,356,1,,,63ef938aea545fb9bd19a591,643916394a86e25a24c7370d,2023-04-14_10h03.42.524,PRaM,2021.2.3,Win32,60.33910577,61b8f3437b89212fae0dfade
3,6.0232,space,4.5722,0,57,57,188,1,,,63ef938aea545fb9bd19a591,643916394a86e25a24c7370d,2023-04-14_10h03.42.524,PRaM,2021.2.3,Win32,60.33910577,61b8f3437b89212fae0dfade
1,7.3764,space,5.9114,0,58,58,76,1,,,63ef938aea545fb9bd19a591,643916394a86e25a24c7370d,2023-04-14_10h03.42.524,PRaM,2021.2.3,Win32,60.33910577,61b8f3437b89212fae0dfade
3,5.374,space,4.6755,0,59,59,255,1,,,63ef938aea545fb9bd19a591,643916394a86e25a24c7370d,2023-04-14_10h03.42.524,PRaM,2021.2.3,Win32,60.33910577,61b8f3437b89212fae0dfade
1,7.1095,space,5.4406,0,60,60,349,1,,,63ef938aea545fb9bd19a591,643916394a86e25a24c7370d,2023-04-14_10h03.42.524,PRaM,2021.2.3,Win32,60.33910577,61b8f3437b89212fae0dfade
3,6.4099,space,4.8622,0,61,61,198,1,,,63ef938aea545fb9bd19a591,643916394a86e25a24c7370d,2023-04-14_10h03.42.524,PRaM,2021.2.3,Win32,60.33910577,61b8f3437b89212fae0dfade
9,3.3697,space,4.7721,0,62,62,38,1,,,63ef938aea545fb9bd19a591,643916394a86e25a24c7370d,2023-04-14_10h03.42.524,PRaM,2021.2.3,Win32,60.33910577,61b8f3437b89212fae0dfade
1,8.0592,space,6.4901,0,63,63,13,1,,,63ef938aea545fb9bd19a591,643916394a86e25a24c7370d,2023-04-14_10h03.42.524,PRaM,2021.2.3,Win32,60.33910577,61b8f3437b89212fae0dfade
1,4.3928,space,2.8195,0,64,64,15,1,,,63ef938aea545fb9bd19a591,643916394a86e25a24c7370d,2023-04-14_10h03.42.524,PRaM,2021.2.3,Win32,60.33910577,61b8f3437b89212fae0dfade
7,9.6074,space,8.3326,0,65,65,307,1,,,63ef938aea545fb9bd19a591,643916394a86e25a24c7370d,2023-04-14_10h03.42.524,PRaM,2021.2.3,Win32,60.33910577,61b8f3437b89212fae0dfade
2,7.8226,space,6.4638,0,66,66,353,1,,,63ef938aea545fb9bd19a591,643916394a86e25a24c7370d,2023-04-14_10h03.42.524,PRaM,2021.2.3,Win32,60.33910577,61b8f3437b89212fae0dfade
3,6.4341,space,4.7485,0,67,67,310,1,,,63ef938aea545fb9bd19a591,643916394a86e25a24c7370d,2023-04-14_10h03.42.524,PRaM,2021.2.3,Win32,60.33910577,61b8f3437b89212fae0dfade
2,11.6738,space,9.9773,0,68,68,35,1,,,63ef938aea545fb9bd19a591,643916394a86e25a24c7370d,2023-04-14_10h03.42.524,PRaM,2021.2.3,Win32,60.33910577,61b8f3437b89212fae0dfade
1,5.1689,space,4.38,0,69,69,161,1,,,63ef938aea545fb9bd19a591,643916394a86e25a24c7370d,2023-04-14_10h03.42.524,PRaM,2021.2.3,Win32,60.33910577,61b8f3437b89212fae0dfade
1,6.2406,space,4.5716,0,70,70,309,1,,,63ef938aea545fb9bd19a591,643916394a86e25a24c7370d,2023-04-14_10h03.42.524,PRaM,2021.2.3,Win32,60.33910577,61b8f3437b89212fae0dfade
7,21.2859,space,19.6832,0,71,71,288,1,,,63ef938aea545fb9bd19a591,643916394a86e25a24c7370d,2023-04-14_10h03.42.524,PRaM,2021.2.3,Win32,60.33910577,61b8f3437b89212fae0dfade
2,6.1594,space,7.2585,0,72,72,50,1,,,63ef938aea545fb9bd19a591,643916394a86e25a24c7370d,2023-04-14_10h03.42.524,PRaM,2021.2.3,Win32,60.33910577,61b8f3437b89212fae0dfade
4,10.0769,space,9.0421,0,73,73,317,1,,,63ef938aea545fb9bd19a591,643916394a86e25a24c7370d,2023-04-14_10h03.42.524,PRaM,2021.2.3,Win32,60.33910577,61b8f3437b89212fae0dfade
6,11.316,space,27.6265,0,74,74,345,1,,,63ef938aea545fb9bd19a591,643916394a86e25a24c7370d,2023-04-14_10h03.42.524,PRaM,2021.2.3,Win32,60.33910577,61b8f3437b89212fae0dfade
2,10.4632,space,9.0248,0,75,75,159,1,,,63ef938aea545fb9bd19a591,643916394a86e25a24c7370d,2023-04-14_10h03.42.524,PRaM,2021.2.3,Win32,60.33910577,61b8f3437b89212fae0dfade
1,15.4664,space,14.0443,0,76,76,273,1,,,63ef938aea545fb9bd19a591,643916394a86e25a24c7370d,2023-04-14_10h03.42.524,PRaM,2021.2.3,Win32,60.33910577,61b8f3437b89212fae0dfade
1,2.629,space,1.1345,0,77,77,275,1,,,63ef938aea545fb9bd19a591,643916394a86e25a24c7370d,2023-04-14_10h03.42.524,PRaM,2021.2.3,Win32,60.33910577,61b8f3437b89212fae0dfade
1,2.4056,space,1.6063,0,78,78,375,1,,,63ef938aea545fb9bd19a591,643916394a86e25a24c7370d,2023-04-14_10h03.42.524,PRaM,2021.2.3,Win32,60.33910577,61b8f3437b89212fae0dfade
,,space,1.4514,0,79,79,113,1,,,63ef938aea545fb9bd19a591,643916394a86e25a24c7370d,2023-04-14_10h03.42.524,PRaM,2021.2.3,Win32,60.33910577,61b8f3437b89212fae0dfade
4,4.6596,space,4.9205,0,80,80,332,1,,,63ef938aea545fb9bd19a591,643916394a86e25a24c7370d,2023-04-14_10h03.42.524,PRaM,2021.2.3,Win32,60.33910577,61b8f3437b89212fae0dfade
1,6.5594,space,5.1394,0,81,81,79,1,,,63ef938aea545fb9bd19a591,643916394a86e25a24c7370d,2023-04-14_10h03.42.524,PRaM,2021.2.3,Win32,60.33910577,61b8f3437b89212fae0dfade
1,6.431,space,5.2349,0,82,82,6,1,,,63ef938aea545fb9bd19a591,643916394a86e25a24c7370d,2023-04-14_10h03.42.524,PRaM,2021.2.3,Win32,60.33910577,61b8f3437b89212fae0dfade
2,4.6136,space,3.0387,0,83,83,45,1,,,63ef938aea545fb9bd19a591,643916394a86e25a24c7370d,2023-04-14_10h03.42.524,PRaM,2021.2.3,Win32,60.33910577,61b8f3437b89212fae0dfade
6,9.4101,space,7.8726,0,84,84,297,1,,,63ef938aea545fb9bd19a591,643916394a86e25a24c7370d,2023-04-14_10h03.42.524,PRaM,2021.2.3,Win32,60.33910577,61b8f3437b89212fae0dfade
1,8.5276,space,7.2097,0,85,85,104,1,,,63ef938aea545fb9bd19a591,643916394a86e25a24c7370d,2023-04-14_10h03.42.524,PRaM,2021.2.3,Win32,60.33910577,61b8f3437b89212fae0dfade
2,8.4438,space,6.8257,0,86,86,364,1,,,63ef938aea545fb9bd19a591,643916394a86e25a24c7370d,2023-04-14_10h03.42.524,PRaM,2021.2.3,Win32,60.33910577,61b8f3437b89212fae0dfade
3,5.9423,space,4.3684,0,87,87,211,1,,,63ef938aea545fb9bd19a591,643916394a86e25a24c7370d,2023-04-14_10h03.42.524,PRaM,2021.2.3,Win32,60.33910577,61b8f3437b89212fae0dfade
1,5.3305,space,3.6723,0,88,88,369,1,,,63ef938aea545fb9bd19a591,643916394a86e25a24c7370d,2023-04-14_10h03.42.524,PRaM,2021.2.3,Win32,60.33910577,61b8f3437b89212fae0dfade
2,9.0904,space,8.2611,0,89,89,348,1,,,63ef938aea545fb9bd19a591,643916394a86e25a24c7370d,2023-04-14_10h03.42.524,PRaM,2021.2.3,Win32,60.33910577,61b8f3437b89212fae0dfade
2,4.4734,space,2.8883,0,90,90,69,1,,,63ef938aea545fb9bd19a591,643916394a86e25a24c7370d,2023-04-14_10h03.42.524,PRaM,2021.2.3,Win32,60.33910577,61b8f3437b89212fae0dfade
1,6.2242,space,5.9726,0,91,91,101,1,,,63ef938aea545fb9bd19a591,643916394a86e25a24c7370d,2023-04-14_10h03.42.524,PRaM,2021.2.3,Win32,60.33910577,61b8f3437b89212fae0dfade
4,6.6416,space,5.2565,0,92,92,56,1,,,63ef938aea545fb9bd19a591,643916394a86e25a24c7370d,2023-04-14_10h03.42.524,PRaM,2021.2.3,Win32,60.33910577,61b8f3437b89212fae0dfade
1,7.4913,space,5.9346,0,93,93,205,1,,,63ef938aea545fb9bd19a591,643916394a86e25a24c7370d,2023-04-14_10h03.42.524,PRaM,2021.2.3,Win32,60.33910577,61b8f3437b89212fae0dfade
2,6.4196,space,4.7035,0,94,94,26,1,,,63ef938aea545fb9bd19a591,643916394a86e25a24c7370d,2023-04-14_10h03.42.524,PRaM,2021.2.3,Win32,60.33910577,61b8f3437b89212fae0dfade
1,5.9086,space,4.4564,0,95,95,118,1,,,63ef938aea545fb9bd19a591,643916394a86e25a24c7370d,2023-04-14_10h03.42.524,PRaM,2021.2.3,Win32,60.33910577,61b8f3437b89212fae0dfade
2,7.563,space,6.5664,0,96,96,259,1,,,63ef938aea545fb9bd19a591,643916394a86e25a24c7370d,2023-04-14_10h03.42.524,PRaM,2021.2.3,Win32,60.33910577,61b8f3437b89212fae0dfade
2,12.5587,space,15.6118,0,97,97,126,1,,,63ef938aea545fb9bd19a591,643916394a86e25a24c7370d,2023-04-14_10h03.42.524,PRaM,2021.2.3,Win32,60.33910577,61b8f3437b89212fae0dfade
1,10.6253,space,9.1592,0,98,98,249,1,,,63ef938aea545fb9bd19a591,643916394a86e25a24c7370d,2023-04-14_10h03.42.524,PRaM,2021.2.3,Win32,60.33910577,61b8f3437b89212fae0dfade
2,3.8567,space,3.9861,0,99,99,292,1,,,63ef938aea545fb9bd19a591,643916394a86e25a24c7370d,2023-04-14_10h03.42.524,PRaM,2021.2.3,Win32,60.33910577,61b8f3437b89212fae0dfade
1,5.2808,space,3.7528,0,100,100,258,1,,,63ef938aea545fb9bd19a591,643916394a86e25a24c7370d,2023-04-14_10h03.42.524,PRaM,2021.2.3,Win32,60.33910577,61b8f3437b89212fae0dfade
2,6.9127,space,5.2912,0,101,101,304,1,,,63ef938aea545fb9bd19a591,643916394a86e25a24c7370d,2023-04-14_10h03.42.524,PRaM,2021.2.3,Win32,60.33910577,61b8f3437b89212fae0dfade
1,4.6055,space,2.936,0,102,102,27,1,,,63ef938aea545fb9bd19a591,643916394a86e25a24c7370d,2023-04-14_10h03.42.524,PRaM,2021.2.3,Win32,60.33910577,61b8f3437b89212fae0dfade
1,6.0255,space,4.4003,0,103,103,148,1,,,63ef938aea545fb9bd19a591,643916394a86e25a24c7370d,2023-04-14_10h03.42.524,PRaM,2021.2.3,Win32,60.33910577,61b8f3437b89212fae0dfade
2,3.2693,space,1.7906,0,104,104,92,1,,,63ef938aea545fb9bd19a591,643916394a86e25a24c7370d,2023-04-14_10h03.42.524,PRaM,2021.2.3,Win32,60.33910577,61b8f3437b89212fae0dfade
2,4.4686,space,2.9277,0,105,105,170,1,,,63ef938aea545fb9bd19a591,643916394a86e25a24c7370d,2023-04-14_10h03.42.524,PRaM,2021.2.3,Win32,60.33910577,61b8f3437b89212fae0dfade
3,8.7589,space,7.1906,0,106,106,377,1,,,63ef938aea545fb9bd19a591,643916394a86e25a24c7370d,2023-04-14_10h03.42.524,PRaM,2021.2.3,Win32,60.33910577,61b8f3437b89212fae0dfade
1,4.3402,space,3.2548,0,107,107,125,1,,,63ef938aea545fb9bd19a591,643916394a86e25a24c7370d,2023-04-14_10h03.42.524,PRaM,2021.2.3,Win32,60.33910577,61b8f3437b89212fae0dfade
1,9.6439,space,8.0086,0,108,108,12,1,,,63ef938aea545fb9bd19a591,643916394a86e25a24c7370d,2023-04-14_10h03.42.524,PRaM,2021.2.3,Win32,60.33910577,61b8f3437b89212fae0dfade
1,4.3892,space,2.7871,0,109,109,359,1,,,63ef938aea545fb9bd19a591,643916394a86e25a24c7370d,2023-04-14_10h03.42.524,PRaM,2021.2.3,Win32,60.33910577,61b8f3437b89212fae0dfade
6,27.4622,space,26.5905,0,110,110,281,1,,,63ef938aea545fb9bd19a591,643916394a86e25a24c7370d,2023-04-14_10h03.42.524,PRaM,2021.2.3,Win32,60.33910577,61b8f3437b89212fae0dfade
2,4.7397,space,3.3872,0,111,111,204,1,,,63ef938aea545fb9bd19a591,643916394a86e25a24c7370d,2023-04-14_10h03.42.524,PRaM,2021.2.3,Win32,60.33910577,61b8f3437b89212fae0dfade
7,11.7257,space,10.331,0,112,112,20,1,,,63ef938aea545fb9bd19a591,643916394a86e25a24c7370d,2023-04-14_10h03.42.524,PRaM,2021.2.3,Win32,60.33910577,61b8f3437b89212fae0dfade
2,4.1248,space,2.6868,0,113,113,282,1,,,63ef938aea545fb9bd19a591,643916394a86e25a24c7370d,2023-04-14_10h03.42.524,PRaM,2021.2.3,Win32,60.33910577,61b8f3437b89212fae0dfade
1,5.4074,space,3.9032,0,114,114,103,1,,,63ef938aea545fb9bd19a591,643916394a86e25a24c7370d,2023-04-14_10h03.42.524,PRaM,2021.2.3,Win32,60.33910577,61b8f3437b89212fae0dfade
1,4.902,space,3.4875,0,115,115,100,1,,,63ef938aea545fb9bd19a591,643916394a86e25a24c7370d,2023-04-14_10h03.42.524,PRaM,2021.2.3,Win32,60.33910577,61b8f3437b89212fae0dfade
1,8.1755,space,6.7902,0,116,116,44,1,,,63ef938aea545fb9bd19a591,643916394a86e25a24c7370d,2023-04-14_10h03.42.524,PRaM,2021.2.3,Win32,60.33910577,61b8f3437b89212fae0dfade
3,6.5415,space,5.4559,0,117,117,238,1,,,63ef938aea545fb9bd19a591,643916394a86e25a24c7370d,2023-04-14_10h03.42.524,PRaM,2021.2.3,Win32,60.33910577,61b8f3437b89212fae0dfade
7,8.2119,space,7.3189,0,118,118,83,1,,,63ef938aea545fb9bd19a591,643916394a86e25a24c7370d,2023-04-14_10h03.42.524,PRaM,2021.2.3,Win32,60.33910577,61b8f3437b89212fae0dfade
1,3.1998,space,1.6526,0,119,119,193,1,,,63ef938aea545fb9bd19a591,643916394a86e25a24c7370d,2023-04-14_10h03.42.524,PRaM,2021.2.3,Win32,60.33910577,61b8f3437b89212fae0dfade
6,8.6759,space,7.1555,0,120,120,173,1,,,63ef938aea545fb9bd19a591,643916394a86e25a24c7370d,2023-04-14_10h03.42.524,PRaM,2021.2.3,Win32,60.33910577,61b8f3437b89212fae0dfade
2,7.3945,space,5.8141,0,121,121,266,1,,,63ef938aea545fb9bd19a591,643916394a86e25a24c7370d,2023-04-14_10h03.42.524,PRaM,2021.2.3,Win32,60.33910577,61b8f3437b89212fae0dfade
7,5.3398,space,3.738,0,122,122,110,1,,,63ef938aea545fb9bd19a591,643916394a86e25a24c7370d,2023-04-14_10h03.42.524,PRaM,2021.2.3,Win32,60.33910577,61b8f3437b89212fae0dfade
3,10.4943,space,8.9409,0,123,123,269,1,,,63ef938aea545fb9bd19a591,643916394a86e25a24c7370d,2023-04-14_10h03.42.524,PRaM,2021.2.3,Win32,60.33910577,61b8f3437b89212fae0dfade
1,5.3889,space,3.8389,0,124,124,138,1,,,63ef938aea545fb9bd19a591,643916394a86e25a24c7370d,2023-04-14_10h03.42.524,PRaM,2021.2.3,Win32,60.33910577,61b8f3437b89212fae0dfade
1,4.725,space,2.9262,0,125,125,289,1,,,63ef938aea545fb9bd19a591,643916394a86e25a24c7370d,2023-04-14_10h03.42.524,PRaM,2021.2.3,Win32,60.33910577,61b8f3437b89212fae0dfade
3,5.8591,space,4.2229,0,126,126,306,1,,,63ef938aea545fb9bd19a591,643916394a86e25a24c7370d,2023-04-14_10h03.42.524,PRaM,2021.2.3,Win32,60.33910577,61b8f3437b89212fae0dfade
1,3.705,space,2.0369,0,127,127,63,1,,,63ef938aea545fb9bd19a591,643916394a86e25a24c7370d,2023-04-14_10h03.42.524,PRaM,2021.2.3,Win32,60.33910577,61b8f3437b89212fae0dfade
7,5.0914,space,5.3229,0,128,128,239,1,,,63ef938aea545fb9bd19a591,643916394a86e25a24c7370d,2023-04-14_10h03.42.524,PRaM,2021.2.3,Win32,60.33910577,61b8f3437b89212fae0dfade
3,22.3198,space,21.1327,0,129,129,180,1,,,63ef938aea545fb9bd19a591,643916394a86e25a24c7370d,2023-04-14_10h03.42.524,PRaM,2021.2.3,Win32,60.33910577,61b8f3437b89212fae0dfade
1,7.9443,space,6.5466,0,130,130,49,1,,,63ef938aea545fb9bd19a591,643916394a86e25a24c7370d,2023-04-14_10h03.42.524,PRaM,2021.2.3,Win32,60.33910577,61b8f3437b89212fae0dfade
2,7.3689,space,5.7871,0,131,131,314,1,,,63ef938aea545fb9bd19a591,643916394a86e25a24c7370d,2023-04-14_10h03.42.524,PRaM,2021.2.3,Win32,60.33910577,61b8f3437b89212fae0dfade
1,4.8355,space,3.2076,0,132,132,194,1,,,63ef938aea545fb9bd19a591,643916394a86e25a24c7370d,2023-04-14_10h03.42.524,PRaM,2021.2.3,Win32,60.33910577,61b8f3437b89212fae0dfade
1,3.4506,space,1.8095,0,133,133,9,1,,,63ef938aea545fb9bd19a591,643916394a86e25a24c7370d,2023-04-14_10h03.42.524,PRaM,2021.2.3,Win32,60.33910577,61b8f3437b89212fae0dfade
1,3.9721,space,2.279,0,134,134,30,1,,,63ef938aea545fb9bd19a591,643916394a86e25a24c7370d,2023-04-14_10h03.42.524,PRaM,2021.2.3,Win32,60.33910577,61b8f3437b89212fae0dfade
8,5.6425,space,7.1501,0,135,135,372,1,,,63ef938aea545fb9bd19a591,643916394a86e25a24c7370d,2023-04-14_10h03.42.524,PRaM,2021.2.3,Win32,60.33910577,61b8f3437b89212fae0dfade
1,3.3546,space,1.6701,0,136,136,171,1,,,63ef938aea545fb9bd19a591,643916394a86e25a24c7370d,2023-04-14_10h03.42.524,PRaM,2021.2.3,Win32,60.33910577,61b8f3437b89212fae0dfade
2,9.4782,space,7.8919,0,137,137,22,1,,,63ef938aea545fb9bd19a591,643916394a86e25a24c7370d,2023-04-14_10h03.42.524,PRaM,2021.2.3,Win32,60.33910577,61b8f3437b89212fae0dfade
1,4.5554,space,2.8876,0,138,138,143,1,,,63ef938aea545fb9bd19a591,643916394a86e25a24c7370d,2023-04-14_10h03.42.524,PRaM,2021.2.3,Win32,60.33910577,61b8f3437b89212fae0dfade
1,3.6091,space,3.2791,0,139,139,166,1,,,63ef938aea545fb9bd19a591,643916394a86e25a24c7370d,2023-04-14_10h03.42.524,PRaM,2021.2.3,Win32,60.33910577,61b8f3437b89212fae0dfade
2,6.2417,space,4.6371,0,140,140,271,1,,,63ef938aea545fb9bd19a591,643916394a86e25a24c7370d,2023-04-14_10h03.42.524,PRaM,2021.2.3,Win32,60.33910577,61b8f3437b89212fae0dfade
7,5.635,space,4.0699,0,141,141,305,1,,,63ef938aea545fb9bd19a591,643916394a86e25a24c7370d,2023-04-14_10h03.42.524,PRaM,2021.2.3,Win32,60.33910577,61b8f3437b89212fae0dfade
3,7.6939,space,9.4111,0,142,142,224,1,,,63ef938aea545fb9bd19a591,643916394a86e25a24c7370d,2023-04-14_10h03.42.524,PRaM,2021.2.3,Win32,60.33910577,61b8f3437b89212fae0dfade
1,9.8441,space,8.1577,0,143,143,230,1,,,63ef938aea545fb9bd19a591,643916394a86e25a24c7370d,2023-04-14_10h03.42.524,PRaM,2021.2.3,Win32,60.33910577,61b8f3437b89212fae0dfade
8,3.7883,space,2.5365,0,144,144,53,1,,,63ef938aea545fb9bd19a591,643916394a86e25a24c7370d,2023-04-14_10h03.42.524,PRaM,2021.2.3,Win32,60.33910577,61b8f3437b89212fae0dfade
8,2.9613,space,1.8622,0,145,145,197,1,,,63ef938aea545fb9bd19a591,643916394a86e25a24c7370d,2023-04-14_10h03.42.524,PRaM,2021.2.3,Win32,60.33910577,61b8f3437b89212fae0dfade
2,11.0226,space,10.2256,0,146,146,347,1,,,63ef938aea545fb9bd19a591,643916394a86e25a24c7370d,2023-04-14_10h03.42.524,PRaM,2021.2.3,Win32,60.33910577,61b8f3437b89212fae0dfade
1,2.6944,space,1.2193,0,147,147,312,1,,,63ef938aea545fb9bd19a591,643916394a86e25a24c7370d,2023-04-14_10h03.42.524,PRaM,2021.2.3,Win32,60.33910577,61b8f3437b89212fae0dfade
1,2.6711,space,1.1061,0,148,148,316,1,,,63ef938aea545fb9bd19a591,643916394a86e25a24c7370d,2023-04-14_10h03.42.524,PRaM,2021.2.3,Win32,60.33910577,61b8f3437b89212fae0dfade
3,3.6129,space,1.9534,0,149,149,102,1,,,63ef938aea545fb9bd19a591,643916394a86e25a24c7370d,2023-04-14_10h03.42.524,PRaM,2021.2.3,Win32,60.33910577,61b8f3437b89212fae0dfade
1,6.2248,space,4.6539,0,150,150,39,1,,,63ef938aea545fb9bd19a591,643916394a86e25a24c7370d,2023-04-14_10h03.42.524,PRaM,2021.2.3,Win32,60.33910577,61b8f3437b89212fae0dfade
1,4.5344,space,3.0421,0,151,151,129,1,,,63ef938aea545fb9bd19a591,643916394a86e25a24c7370d,2023-04-14_10h03.42.524,PRaM,2021.2.3,Win32,60.33910577,61b8f3437b89212fae0dfade
1,4.6411,space,3.0367,0,152,152,257,1,,,63ef938aea545fb9bd19a591,643916394a86e25a24c7370d,2023-04-14_10h03.42.524,PRaM,2021.2.3,Win32,60.33910577,61b8f3437b89212fae0dfade
4,6.357,space,11.4773,0,153,153,365,1,,,63ef938aea545fb9bd19a591,643916394a86e25a24c7370d,2023-04-14_10h03.42.524,PRaM,2021.2.3,Win32,60.33910577,61b8f3437b89212fae0dfade
2,8.4023,space,6.8252,0,154,154,160,1,,,63ef938aea545fb9bd19a591,643916394a86e25a24c7370d,2023-04-14_10h03.42.524,PRaM,2021.2.3,Win32,60.33910577,61b8f3437b89212fae0dfade
1,4.2227,space,2.6069,0,155,155,283,1,,,63ef938aea545fb9bd19a591,643916394a86e25a24c7370d,2023-04-14_10h03.42.524,PRaM,2021.2.3,Win32,60.33910577,61b8f3437b89212fae0dfade
4,6.7249,space,5.1717,0,156,156,80,1,,,63ef938aea545fb9bd19a591,643916394a86e25a24c7370d,2023-04-14_10h03.42.524,PRaM,2021.2.3,Win32,60.33910577,61b8f3437b89212fae0dfade
1,3.9341,space,2.3553,0,157,157,11,1,,,63ef938aea545fb9bd19a591,643916394a86e25a24c7370d,2023-04-14_10h03.42.524,PRaM,2021.2.3,Win32,60.33910577,61b8f3437b89212fae0dfade
3,5.873,space,4.0557,0,158,158,270,1,,,63ef938aea545fb9bd19a591,643916394a86e25a24c7370d,2023-04-14_10h03.42.524,PRaM,2021.2.3,Win32,60.33910577,61b8f3437b89212fae0dfade
8,6.5416,space,5.1818,0,159,159,320,1,,,63ef938aea545fb9bd19a591,643916394a86e25a24c7370d,2023-04-14_10h03.42.524,PRaM,2021.2.3,Win32,60.33910577,61b8f3437b89212fae0dfade
1,3.4985,space,1.8849,0,160,160,214,1,,,63ef938aea545fb9bd19a591,643916394a86e25a24c7370d,2023-04-14_10h03.42.524,PRaM,2021.2.3,Win32,60.33910577,61b8f3437b89212fae0dfade
1,4.3764,space,2.7199,0,161,161,322,1,,,63ef938aea545fb9bd19a591,643916394a86e25a24c7370d,2023-04-14_10h03.42.524,PRaM,2021.2.3,Win32,60.33910577,61b8f3437b89212fae0dfade
1,9.5265,space,7.9586,0,162,162,19,1,,,63ef938aea545fb9bd19a591,643916394a86e25a24c7370d,2023-04-14_10h03.42.524,PRaM,2021.2.3,Win32,60.33910577,61b8f3437b89212fae0dfade
1,2.3275,space,0.7019,0,163,163,109,1,,,63ef938aea545fb9bd19a591,643916394a86e25a24c7370d,2023-04-14_10h03.42.524,PRaM,2021.2.3,Win32,60.33910577,61b8f3437b89212fae0dfade
3,4.5559,space,4.7582,0,164,164,140,1,,,63ef938aea545fb9bd19a591,643916394a86e25a24c7370d,2023-04-14_10h03.42.524,PRaM,2021.2.3,Win32,60.33910577,61b8f3437b89212fae0dfade
2,6.2912,space,4.687,0,165,165,311,1,,,63ef938aea545fb9bd19a591,643916394a86e25a24c7370d,2023-04-14_10h03.42.524,PRaM,2021.2.3,Win32,60.33910577,61b8f3437b89212fae0dfade
1,5.1484,space,12.9751,0,166,166,40,1,,,63ef938aea545fb9bd19a591,643916394a86e25a24c7370d,2023-04-14_10h03.42.524,PRaM,2021.2.3,Win32,60.33910577,61b8f3437b89212fae0dfade
1,3.9869,space,4.8056,0,167,167,362,1,,,63ef938aea545fb9bd19a591,643916394a86e25a24c7370d,2023-04-14_10h03.42.524,PRaM,2021.2.3,Win32,60.33910577,61b8f3437b89212fae0dfade
1,2.8498,space,1.187,0,168,168,200,1,,,63ef938aea545fb9bd19a591,643916394a86e25a24c7370d,2023-04-14_10h03.42.524,PRaM,2021.2.3,Win32,60.33910577,61b8f3437b89212fae0dfade
8,4.6729,space,3.1754,0,169,169,291,1,,,63ef938aea545fb9bd19a591,643916394a86e25a24c7370d,2023-04-14_10h03.42.524,PRaM,2021.2.3,Win32,60.33910577,61b8f3437b89212fae0dfade
1,4.472,space,3.0365,0,170,170,5,1,,,63ef938aea545fb9bd19a591,643916394a86e25a24c7370d,2023-04-14_10h03.42.524,PRaM,2021.2.3,Win32,60.33910577,61b8f3437b89212fae0dfade
1,3.1996,space,2.0154,0,171,171,357,1,,,63ef938aea545fb9bd19a591,643916394a86e25a24c7370d,2023-04-14_10h03.42.524,PRaM,2021.2.3,Win32,60.33910577,61b8f3437b89212fae0dfade
1,4.1512,space,5.1052,0,172,172,189,1,,,63ef938aea545fb9bd19a591,643916394a86e25a24c7370d,2023-04-14_10h03.42.524,PRaM,2021.2.3,Win32,60.33910577,61b8f3437b89212fae0dfade
7,3.8363,space,8.1614,0,173,173,279,1,,,63ef938aea545fb9bd19a591,643916394a86e25a24c7370d,2023-04-14_10h03.42.524,PRaM,2021.2.3,Win32,60.33910577,61b8f3437b89212fae0dfade
1,4.2576,space,2.6468,0,174,174,341,1,,,63ef938aea545fb9bd19a591,643916394a86e25a24c7370d,2023-04-14_10h03.42.524,PRaM,2021.2.3,Win32,60.33910577,61b8f3437b89212fae0dfade
7,4.8586,space,3.7367,0,175,175,17,1,,,63ef938aea545fb9bd19a591,643916394a86e25a24c7370d,2023-04-14_10h03.42.524,PRaM,2021.2.3,Win32,60.33910577,61b8f3437b89212fae0dfade
8,11.7663,space,10.4425,0,176,176,325,1,,,63ef938aea545fb9bd19a591,643916394a86e25a24c7370d,2023-04-14_10h03.42.524,PRaM,2021.2.3,Win32,60.33910577,61b8f3437b89212fae0dfade
2,5.1947,space,4.9566,0,177,177,135,1,,,63ef938aea545fb9bd19a591,643916394a86e25a24c7370d,2023-04-14_10h03.42.524,PRaM,2021.2.3,Win32,60.33910577,61b8f3437b89212fae0dfade
1,3.3377,space,1.9879,0,178,178,284,1,,,63ef938aea545fb9bd19a591,643916394a86e25a24c7370d,2023-04-14_10h03.42.524,PRaM,2021.2.3,Win32,60.33910577,61b8f3437b89212fae0dfade
6,8.4929,space,6.8231,0,179,179,335,1,,,63ef938aea545fb9bd19a591,643916394a86e25a24c7370d,2023-04-14_10h03.42.524,PRaM,2021.2.3,Win32,60.33910577,61b8f3437b89212fae0dfade
1,7.6757,space,6.1729,0,180,180,124,1,,,63ef938aea545fb9bd19a591,643916394a86e25a24c7370d,2023-04-14_10h03.42.524,PRaM,2021.2.3,Win32,60.33910577,61b8f3437b89212fae0dfade
2,8.9153,space,7.2222,0,181,181,242,1,,,63ef938aea545fb9bd19a591,643916394a86e25a24c7370d,2023-04-14_10h03.42.524,PRaM,2021.2.3,Win32,60.33910577,61b8f3437b89212fae0dfade
1,15.9709,space,14.3435,0,182,182,343,1,,,63ef938aea545fb9bd19a591,643916394a86e25a24c7370d,2023-04-14_10h03.42.524,PRaM,2021.2.3,Win32,60.33910577,61b8f3437b89212fae0dfade
2,3.2858,space,1.6545,0,183,183,334,1,,,63ef938aea545fb9bd19a591,643916394a86e25a24c7370d,2023-04-14_10h03.42.524,PRaM,2021.2.3,Win32,60.33910577,61b8f3437b89212fae0dfade
6,4.2497,space,3.8241,0,184,184,296,1,,,63ef938aea545fb9bd19a591,643916394a86e25a24c7370d,2023-04-14_10h03.42.524,PRaM,2021.2.3,Win32,60.33910577,61b8f3437b89212fae0dfade
1,4.2888,space,2.7377,0,185,185,235,1,,,63ef938aea545fb9bd19a591,643916394a86e25a24c7370d,2023-04-14_10h03.42.524,PRaM,2021.2.3,Win32,60.33910577,61b8f3437b89212fae0dfade
2,5.5407,space,3.9639,0,186,186,237,1,,,63ef938aea545fb9bd19a591,643916394a86e25a24c7370d,2023-04-14_10h03.42.524,PRaM,2021.2.3,Win32,60.33910577,61b8f3437b89212fae0dfade
1,2.5885,space,1.0347,0,187,187,250,1,,,63ef938aea545fb9bd19a591,643916394a86e25a24c7370d,2023-04-14_10h03.42.524,PRaM,2021.2.3,Win32,60.33910577,61b8f3437b89212fae0dfade
1,3.0761,space,1.4861,0,188,188,245,1,,,63ef938aea545fb9bd19a591,643916394a86e25a24c7370d,2023-04-14_10h03.42.524,PRaM,2021.2.3,Win32,60.33910577,61b8f3437b89212fae0dfade
2,7.1776,space,5.5301,0,189,189,105,1,,,63ef938aea545fb9bd19a591,643916394a86e25a24c7370d,2023-04-14_10h03.42.524,PRaM,2021.2.3,Win32,60.33910577,61b8f3437b89212fae0dfade
1,18.5169,space,17.3488,0,190,190,293,1,,,63ef938aea545fb9bd19a591,643916394a86e25a24c7370d,2023-04-14_10h03.42.524,PRaM,2021.2.3,Win32,60.33910577,61b8f3437b89212fae0dfade
1,1.6266,space,2.4034,0,191,191,227,1,,,63ef938aea545fb9bd19a591,643916394a86e25a24c7370d,2023-04-14_10h03.42.524,PRaM,2021.2.3,Win32,60.33910577,61b8f3437b89212fae0dfade
2,6.1916,space,4.5532,0,192,192,32,1,,,63ef938aea545fb9bd19a591,643916394a86e25a24c7370d,2023-04-14_10h03.42.524,PRaM,2021.2.3,Win32,60.33910577,61b8f3437b89212fae0dfade
1,4.1678,space,2.4953,0,193,193,256,1,,,63ef938aea545fb9bd19a591,643916394a86e25a24c7370d,2023-04-14_10h03.42.524,PRaM,2021.2.3,Win32,60.33910577,61b8f3437b89212fae0dfade
3,3.9719,space,3.8368,0,194,194,142,1,,,63ef938aea545fb9bd19a591,643916394a86e25a24c7370d,2023-04-14_10h03.42.524,PRaM,2021.2.3,Win32,60.33910577,61b8f3437b89212fae0dfade
5,8.5998,space,6.8751,0,195,195,208,1,,,63ef938aea545fb9bd19a591,643916394a86e25a24c7370d,2023-04-14_10h03.42.524,PRaM,2021.2.3,Win32,60.33910577,61b8f3437b89212fae0dfade
2,7.1776,space,5.7243,0,196,196,263,1,,,63ef938aea545fb9bd19a591,643916394a86e25a24c7370d,2023-04-14_10h03.42.524,PRaM,2021.2.3,Win32,60.33910577,61b8f3437b89212fae0dfade
2,7.4584,space,5.8715,0,197,197,361,1,,,63ef938aea545fb9bd19a591,643916394a86e25a24c7370d,2023-04-14_10h03.42.524,PRaM,2021.2.3,Win32,60.33910577,61b8f3437b89212fae0dfade
7,11.4482,space,9.9255,0,198,198,294,1,,,63ef938aea545fb9bd19a591,643916394a86e25a24c7370d,2023-04-14_10h03.42.524,PRaM,2021.2.3,Win32,60.33910577,61b8f3437b89212fae0dfade
1,3.8416,space,2.2222,0,199,199,354,1,,,63ef938aea545fb9bd19a591,643916394a86e25a24c7370d,2023-04-14_10h03.42.524,PRaM,2021.2.3,Win32,60.33910577,61b8f3437b89212fae0dfade
1,6.3077,space,4.6555,0,200,200,172,1,,,63ef938aea545fb9bd19a591,643916394a86e25a24c7370d,2023-04-14_10h03.42.524,PRaM,2021.2.3,Win32,60.33910577,61b8f3437b89212fae0dfade
1,3.4054,space,1.7365,0,201,201,0,1,,,63ef938aea545fb9bd19a591,643916394a86e25a24c7370d,2023-04-14_10h03.42.524,PRaM,2021.2.3,Win32,60.33910577,61b8f3437b89212fae0dfade
2,9.1943,space,7.5575,0,202,202,339,1,,,63ef938aea545fb9bd19a591,643916394a86e25a24c7370d,2023-04-14_10h03.42.524,PRaM,2021.2.3,Win32,60.33910577,61b8f3437b89212fae0dfade
2,4.3996,space,2.7543,0,203,203,213,1,,,63ef938aea545fb9bd19a591,643916394a86e25a24c7370d,2023-04-14_10h03.42.524,PRaM,2021.2.3,Win32,60.33910577,61b8f3437b89212fae0dfade
1,3.2252,space,1.5856,0,204,204,321,1,,,63ef938aea545fb9bd19a591,643916394a86e25a24c7370d,2023-04-14_10h03.42.524,PRaM,2021.2.3,Win32,60.33910577,61b8f3437b89212fae0dfade
2,12.6293,space,10.9312,0,205,205,51,1,,,63ef938aea545fb9bd19a591,643916394a86e25a24c7370d,2023-04-14_10h03.42.524,PRaM,2021.2.3,Win32,60.33910577,61b8f3437b89212fae0dfade
6,12.8813,space,11.7451,0,206,206,219,1,,,63ef938aea545fb9bd19a591,643916394a86e25a24c7370d,2023-04-14_10h03.42.524,PRaM,2021.2.3,Win32,60.33910577,61b8f3437b89212fae0dfade
1,2.9278,space,1.7882,0,207,207,77,1,,,63ef938aea545fb9bd19a591,643916394a86e25a24c7370d,2023-04-14_10h03.42.524,PRaM,2021.2.3,Win32,60.33910577,61b8f3437b89212fae0dfade
1,2.6779,space,1.0547,0,208,208,54,1,,,63ef938aea545fb9bd19a591,643916394a86e25a24c7370d,2023-04-14_10h03.42.524,PRaM,2021.2.3,Win32,60.33910577,61b8f3437b89212fae0dfade
1,2.4334,space,0.7706,0,209,209,247,1,,,63ef938aea545fb9bd19a591,643916394a86e25a24c7370d,2023-04-14_10h03.42.524,PRaM,2021.2.3,Win32,60.33910577,61b8f3437b89212fae0dfade
1,3.2613,space,1.7024,0,210,210,41,1,,,63ef938aea545fb9bd19a591,643916394a86e25a24c7370d,2023-04-14_10h03.42.524,PRaM,2021.2.3,Win32,60.33910577,61b8f3437b89212fae0dfade
1,7.0129,space,5.5729,0,211,211,287,1,,,63ef938aea545fb9bd19a591,643916394a86e25a24c7370d,2023-04-14_10h03.42.524,PRaM,2021.2.3,Win32,60.33910577,61b8f3437b89212fae0dfade
6,10.7549,space,9.3418,0,212,212,114,1,,,63ef938aea545fb9bd19a591,643916394a86e25a24c7370d,2023-04-14_10h03.42.524,PRaM,2021.2.3,Win32,60.33910577,61b8f3437b89212fae0dfade
3,5.1302,space,3.5395,0,213,213,3,1,,,63ef938aea545fb9bd19a591,643916394a86e25a24c7370d,2023-04-14_10h03.42.524,PRaM,2021.2.3,Win32,60.33910577,61b8f3437b89212fae0dfade
1,4.2016,space,2.9319,0,214,214,243,1,,,63ef938aea545fb9bd19a591,643916394a86e25a24c7370d,2023-04-14_10h03.42.524,PRaM,2021.2.3,Win32,60.33910577,61b8f3437b89212fae0dfade
1,2.9543,space,1.7547,0,215,215,95,1,,,63ef938aea545fb9bd19a591,643916394a86e25a24c7370d,2023-04-14_10h03.42.524,PRaM,2021.2.3,Win32,60.33910577,61b8f3437b89212fae0dfade
1,2.8373,space,1.335,0,216,216,265,1,,,63ef938aea545fb9bd19a591,643916394a86e25a24c7370d,2023-04-14_10h03.42.524,PRaM,2021.2.3,Win32,60.33910577,61b8f3437b89212fae0dfade
2,4.4456,space,3.5381,0,217,217,156,1,,,63ef938aea545fb9bd19a591,643916394a86e25a24c7370d,2023-04-14_10h03.42.524,PRaM,2021.2.3,Win32,60.33910577,61b8f3437b89212fae0dfade
1,49.5396,space,49.0551,0,218,218,47,1,,,63ef938aea545fb9bd19a591,643916394a86e25a24c7370d,2023-04-14_10h03.42.524,PRaM,2021.2.3,Win32,60.33910577,61b8f3437b89212fae0dfade
1,2.6433,space,0.9008,0,219,219,24,1,,,63ef938aea545fb9bd19a591,643916394a86e25a24c7370d,2023-04-14_10h03.42.524,PRaM,2021.2.3,Win32,60.33910577,61b8f3437b89212fae0dfade
2,29.411,space,31.4084,0,220,220,98,1,,,63ef938aea545fb9bd19a591,643916394a86e25a24c7370d,2023-04-14_10h03.42.524,PRaM,2021.2.3,Win32,60.33910577,61b8f3437b89212fae0dfade
6,4.066,space,2.3859,0,221,221,370,1,,,63ef938aea545fb9bd19a591,643916394a86e25a24c7370d,2023-04-14_10h03.42.524,PRaM,2021.2.3,Win32,60.33910577,61b8f3437b89212fae0dfade
1,4.3396,space,2.7484,0,222,222,299,1,,,63ef938aea545fb9bd19a591,643916394a86e25a24c7370d,2023-04-14_10h03.42.524,PRaM,2021.2.3,Win32,60.33910577,61b8f3437b89212fae0dfade
3,4.9653,space,5.3556,0,223,223,74,1,,,63ef938aea545fb9bd19a591,643916394a86e25a24c7370d,2023-04-14_10h03.42.524,PRaM,2021.2.3,Win32,60.33910577,61b8f3437b89212fae0dfade
6,3.8866,space,5.7112,0,224,224,99,1,,,63ef938aea545fb9bd19a591,643916394a86e25a24c7370d,2023-04-14_10h03.42.524,PRaM,2021.2.3,Win32,60.33910577,61b8f3437b89212fae0dfade
2,6.6959,space,5.0588,0,225,225,327,1,,,63ef938aea545fb9bd19a591,643916394a86e25a24c7370d,2023-04-14_10h03.42.524,PRaM,2021.2.3,Win32,60.33910577,61b8f3437b89212fae0dfade
2,2.2446,space,0.5519,0,226,226,115,1,,,63ef938aea545fb9bd19a591,643916394a86e25a24c7370d,2023-04-14_10h03.42.524,PRaM,2021.2.3,Win32,60.33910577,61b8f3437b89212fae0dfade
1,2.5731,space,0.9882,0,227,227,318,1,,,63ef938aea545fb9bd19a591,643916394a86e25a24c7370d,2023-04-14_10h03.42.524,PRaM,2021.2.3,Win32,60.33910577,61b8f3437b89212fae0dfade
1,3.1389,space,1.7527,0,228,228,168,1,,,63ef938aea545fb9bd19a591,643916394a86e25a24c7370d,2023-04-14_10h03.42.524,PRaM,2021.2.3,Win32,60.33910577,61b8f3437b89212fae0dfade
7,4.5761,space,4.8069,0,229,229,363,1,,,63ef938aea545fb9bd19a591,643916394a86e25a24c7370d,2023-04-14_10h03.42.524,PRaM,2021.2.3,Win32,60.33910577,61b8f3437b89212fae0dfade
7,3.9888,space,7.725,0,230,230,179,1,,,63ef938aea545fb9bd19a591,643916394a86e25a24c7370d,2023-04-14_10h03.42.524,PRaM,2021.2.3,Win32,60.33910577,61b8f3437b89212fae0dfade
7,4.8148,space,3.1899,0,231,231,136,1,,,63ef938aea545fb9bd19a591,643916394a86e25a24c7370d,2023-04-14_10h03.42.524,PRaM,2021.2.3,Win32,60.33910577,61b8f3437b89212fae0dfade
1,4.2898,space,2.8041,0,232,232,184,1,,,63ef938aea545fb9bd19a591,643916394a86e25a24c7370d,2023-04-14_10h03.42.524,PRaM,2021.2.3,Win32,60.33910577,61b8f3437b89212fae0dfade
8,4.0228,space,2.6633,0,233,233,285,1,,,63ef938aea545fb9bd19a591,643916394a86e25a24c7370d,2023-04-14_10h03.42.524,PRaM,2021.2.3,Win32,60.33910577,61b8f3437b89212fae0dfade
1,3.6588,space,2.1523,0,234,234,212,1,,,63ef938aea545fb9bd19a591,643916394a86e25a24c7370d,2023-04-14_10h03.42.524,PRaM,2021.2.3,Win32,60.33910577,61b8f3437b89212fae0dfade
1,6.9909,space,5.3892,0,235,235,57,1,,,63ef938aea545fb9bd19a591,643916394a86e25a24c7370d,2023-04-14_10h03.42.524,PRaM,2021.2.3,Win32,60.33910577,61b8f3437b89212fae0dfade
3,4.3889,space,4.5051,0,236,236,86,1,,,63ef938aea545fb9bd19a591,643916394a86e25a24c7370d,2023-04-14_10h03.42.524,PRaM,2021.2.3,Win32,60.33910577,61b8f3437b89212fae0dfade
1,4.0389,space,2.485,0,237,237,155,1,,,63ef938aea545fb9bd19a591,643916394a86e25a24c7370d,2023-04-14_10h03.42.524,PRaM,2021.2.3,Win32,60.33910577,61b8f3437b89212fae0dfade
1,3.6412,space,2.0117,0,238,238,122,1,,,63ef938aea545fb9bd19a591,643916394a86e25a24c7370d,2023-04-14_10h03.42.524,PRaM,2021.2.3,Win32,60.33910577,61b8f3437b89212fae0dfade
2,5.4378,space,3.7724,0,239,239,186,1,,,63ef938aea545fb9bd19a591,643916394a86e25a24c7370d,2023-04-14_10h03.42.524,PRaM,2021.2.3,Win32,60.33910577,61b8f3437b89212fae0dfade
2,7.092,space,5.3724,0,240,240,244,1,,,63ef938aea545fb9bd19a591,643916394a86e25a24c7370d,2023-04-14_10h03.42.524,PRaM,2021.2.3,Win32,60.33910577,61b8f3437b89212fae0dfade
1,8.9764,space,9.8603,0,241,241,374,1,,,63ef938aea545fb9bd19a591,643916394a86e25a24c7370d,2023-04-14_10h03.42.524,PRaM,2021.2.3,Win32,60.33910577,61b8f3437b89212fae0dfade
1,2.1942,space,0.5689,0,242,242,10,1,,,63ef938aea545fb9bd19a591,643916394a86e25a24c7370d,2023-04-14_10h03.42.524,PRaM,2021.2.3,Win32,60.33910577,61b8f3437b89212fae0dfade
3,5.6806,space,4.193,0,243,243,152,1,,,63ef938aea545fb9bd19a591,643916394a86e25a24c7370d,2023-04-14_10h03.42.524,PRaM,2021.2.3,Win32,60.33910577,61b8f3437b89212fae0dfade
1,6.5408,space,5.0876,0,244,244,295,1,,,63ef938aea545fb9bd19a591,643916394a86e25a24c7370d,2023-04-14_10h03.42.524,PRaM,2021.2.3,Win32,60.33910577,61b8f3437b89212fae0dfade
2,3.921,space,2.2531,0,245,245,346,1,,,63ef938aea545fb9bd19a591,643916394a86e25a24c7370d,2023-04-14_10h03.42.524,PRaM,2021.2.3,Win32,60.33910577,61b8f3437b89212fae0dfade
1,2.7944,space,1.1941,0,246,246,23,1,,,63ef938aea545fb9bd19a591,643916394a86e25a24c7370d,2023-04-14_10h03.42.524,PRaM,2021.2.3,Win32,60.33910577,61b8f3437b89212fae0dfade
3,5.1721,space,3.5374,0,247,247,264,1,,,63ef938aea545fb9bd19a591,643916394a86e25a24c7370d,2023-04-14_10h03.42.524,PRaM,2021.2.3,Win32,60.33910577,61b8f3437b89212fae0dfade
3,2.3143,space,0.8177,0,248,248,302,1,,,63ef938aea545fb9bd19a591,643916394a86e25a24c7370d,2023-04-14_10h03.42.524,PRaM,2021.2.3,Win32,60.33910577,61b8f3437b89212fae0dfade
1,3.3299,space,1.6574,0,249,249,300,1,,,63ef938aea545fb9bd19a591,643916394a86e25a24c7370d,2023-04-14_10h03.42.524,PRaM,2021.2.3,Win32,60.33910577,61b8f3437b89212fae0dfade
1,6.1266,space,4.526,0,250,250,8,1,,,63ef938aea545fb9bd19a591,643916394a86e25a24c7370d,2023-04-14_10h03.42.524,PRaM,2021.2.3,Win32,60.33910577,61b8f3437b89212fae0dfade
3,4.4853,space,4.4091,0,251,251,367,1,,,63ef938aea545fb9bd19a591,643916394a86e25a24c7370d,2023-04-14_10h03.42.524,PRaM,2021.2.3,Win32,60.33910577,61b8f3437b89212fae0dfade
1,2.4815,space,0.8644,0,252,252,65,1,,,63ef938aea545fb9bd19a591,643916394a86e25a24c7370d,2023-04-14_10h03.42.524,PRaM,2021.2.3,Win32,60.33910577,61b8f3437b89212fae0dfade
1,7.2762,space,8.8564,0,253,253,25,1,,,63ef938aea545fb9bd19a591,643916394a86e25a24c7370d,2023-04-14_10h03.42.524,PRaM,2021.2.3,Win32,60.33910577,61b8f3437b89212fae0dfade
1,1.8987,space,0.2206,0,254,254,251,1,,,63ef938aea545fb9bd19a591,643916394a86e25a24c7370d,2023-04-14_10h03.42.524,PRaM,2021.2.3,Win32,60.33910577,61b8f3437b89212fae0dfade
2,4.9281,space,3.3783,0,255,255,37,1,,,63ef938aea545fb9bd19a591,643916394a86e25a24c7370d,2023-04-14_10h03.42.524,PRaM,2021.2.3,Win32,60.33910577,61b8f3437b89212fae0dfade
1,4.2217,space,2.6359,0,256,256,217,1,,,63ef938aea545fb9bd19a591,643916394a86e25a24c7370d,2023-04-14_10h03.42.524,PRaM,2021.2.3,Win32,60.33910577,61b8f3437b89212fae0dfade
2,5.341,space,3.7375,0,257,257,119,1,,,63ef938aea545fb9bd19a591,643916394a86e25a24c7370d,2023-04-14_10h03.42.524,PRaM,2021.2.3,Win32,60.33910577,61b8f3437b89212fae0dfade
1,2.5439,space,0.8875,0,258,258,313,1,,,63ef938aea545fb9bd19a591,643916394a86e25a24c7370d,2023-04-14_10h03.42.524,PRaM,2021.2.3,Win32,60.33910577,61b8f3437b89212fae0dfade
1,3.1635,space,1.5367,0,259,259,130,1,,,63ef938aea545fb9bd19a591,643916394a86e25a24c7370d,2023-04-14_10h03.42.524,PRaM,2021.2.3,Win32,60.33910577,61b8f3437b89212fae0dfade
1,5.5941,space,3.9716,0,260,260,267,1,,,63ef938aea545fb9bd19a591,643916394a86e25a24c7370d,2023-04-14_10h03.42.524,PRaM,2021.2.3,Win32,60.33910577,61b8f3437b89212fae0dfade
1,3.605,space,1.9354,0,261,261,116,1,,,63ef938aea545fb9bd19a591,643916394a86e25a24c7370d,2023-04-14_10h03.42.524,PRaM,2021.2.3,Win32,60.33910577,61b8f3437b89212fae0dfade
3,7.2663,space,5.6397,0,262,262,233,1,,,63ef938aea545fb9bd19a591,643916394a86e25a24c7370d,2023-04-14_10h03.42.524,PRaM,2021.2.3,Win32,60.33910577,61b8f3437b89212fae0dfade
6,4.4407,space,3.1211,0,263,263,127,1,,,63ef938aea545fb9bd19a591,643916394a86e25a24c7370d,2023-04-14_10h03.42.524,PRaM,2021.2.3,Win32,60.33910577,61b8f3437b89212fae0dfade
6,7.6261,space,5.9713,0,264,264,350,1,,,63ef938aea545fb9bd19a591,643916394a86e25a24c7370d,2023-04-14_10h03.42.524,PRaM,2021.2.3,Win32,60.33910577,61b8f3437b89212fae0dfade
1,3.2313,space,1.5853,0,265,265,360,1,,,63ef938aea545fb9bd19a591,643916394a86e25a24c7370d,2023-04-14_10h03.42.524,PRaM,2021.2.3,Win32,60.33910577,61b8f3437b89212fae0dfade
1,5.8634,space,5.5332,0,266,266,303,1,,,63ef938aea545fb9bd19a591,643916394a86e25a24c7370d,2023-04-14_10h03.42.524,PRaM,2021.2.3,Win32,60.33910577,61b8f3437b89212fae0dfade
3,14.1926,space,12.8451,0,267,267,226,1,,,63ef938aea545fb9bd19a591,643916394a86e25a24c7370d,2023-04-14_10h03.42.524,PRaM,2021.2.3,Win32,60.33910577,61b8f3437b89212fae0dfade
1,10.1635,space,8.5225,0,268,268,337,1,,,63ef938aea545fb9bd19a591,643916394a86e25a24c7370d,2023-04-14_10h03.42.524,PRaM,2021.2.3,Win32,60.33910577,61b8f3437b89212fae0dfade
5,8.311,space,6.7074,0,269,269,66,1,,,63ef938aea545fb9bd19a591,643916394a86e25a24c7370d,2023-04-14_10h03.42.524,PRaM,2021.2.3,Win32,60.33910577,61b8f3437b89212fae0dfade
6,11.7386,space,10.2262,0,270,270,301,1,,,63ef938aea545fb9bd19a591,643916394a86e25a24c7370d,2023-04-14_10h03.42.524,PRaM,2021.2.3,Win32,60.33910577,61b8f3437b89212fae0dfade
1,3.1807,space,1.5461,0,271,271,94,1,,,63ef938aea545fb9bd19a591,643916394a86e25a24c7370d,2023-04-14_10h03.42.524,PRaM,2021.2.3,Win32,60.33910577,61b8f3437b89212fae0dfade
1,2.574,space,2.9204,0,272,272,97,1,,,63ef938aea545fb9bd19a591,643916394a86e25a24c7370d,2023-04-14_10h03.42.524,PRaM,2021.2.3,Win32,60.33910577,61b8f3437b89212fae0dfade
1,2.2945,space,0.9584,0,273,273,290,1,,,63ef938aea545fb9bd19a591,643916394a86e25a24c7370d,2023-04-14_10h03.42.524,PRaM,2021.2.3,Win32,60.33910577,61b8f3437b89212fae0dfade
2,4.2738,space,2.9199,0,274,274,298,1,,,63ef938aea545fb9bd19a591,643916394a86e25a24c7370d,2023-04-14_10h03.42.524,PRaM,2021.2.3,Win32,60.33910577,61b8f3437b89212fae0dfade
1,3.6547,space,2.0394,0,275,275,58,1,,,63ef938aea545fb9bd19a591,643916394a86e25a24c7370d,2023-04-14_10h03.42.524,PRaM,2021.2.3,Win32,60.33910577,61b8f3437b89212fae0dfade
2,4.8065,space,3.1045,0,276,276,203,1,,,63ef938aea545fb9bd19a591,643916394a86e25a24c7370d,2023-04-14_10h03.42.524,PRaM,2021.2.3,Win32,60.33910577,61b8f3437b89212fae0dfade
9,4.6448,space,3.9546,0,277,277,276,1,,,63ef938aea545fb9bd19a591,643916394a86e25a24c7370d,2023-04-14_10h03.42.524,PRaM,2021.2.3,Win32,60.33910577,61b8f3437b89212fae0dfade
3,5.9745,space,4.3368,0,278,278,252,1,,,63ef938aea545fb9bd19a591,643916394a86e25a24c7370d,2023-04-14_10h03.42.524,PRaM,2021.2.3,Win32,60.33910577,61b8f3437b89212fae0dfade
1,4.1066,space,2.7492,0,279,279,358,1,,,63ef938aea545fb9bd19a591,643916394a86e25a24c7370d,2023-04-14_10h03.42.524,PRaM,2021.2.3,Win32,60.33910577,61b8f3437b89212fae0dfade
1,3.427,space,1.7784,0,280,280,286,1,,,63ef938aea545fb9bd19a591,643916394a86e25a24c7370d,2023-04-14_10h03.42.524,PRaM,2021.2.3,Win32,60.33910577,61b8f3437b89212fae0dfade
2,5.5419,space,3.8211,0,281,281,167,1,,,63ef938aea545fb9bd19a591,643916394a86e25a24c7370d,2023-04-14_10h03.42.524,PRaM,2021.2.3,Win32,60.33910577,61b8f3437b89212fae0dfade
5,7.8673,space,6.2615,0,282,282,209,1,,,63ef938aea545fb9bd19a591,643916394a86e25a24c7370d,2023-04-14_10h03.42.524,PRaM,2021.2.3,Win32,60.33910577,61b8f3437b89212fae0dfade
1,3.3111,space,1.7472,0,283,283,234,1,,,63ef938aea545fb9bd19a591,643916394a86e25a24c7370d,2023-04-14_10h03.42.524,PRaM,2021.2.3,Win32,60.33910577,61b8f3437b89212fae0dfade
1,4.9834,space,3.4242,0,284,284,175,1,,,63ef938aea545fb9bd19a591,643916394a86e25a24c7370d,2023-04-14_10h03.42.524,PRaM,2021.2.3,Win32,60.33910577,61b8f3437b89212fae0dfade
1,2.8221,space,1.1448,0,285,285,121,1,,,63ef938aea545fb9bd19a591,643916394a86e25a24c7370d,2023-04-14_10h03.42.524,PRaM,2021.2.3,Win32,60.33910577,61b8f3437b89212fae0dfade
3,5.5069,space,3.92,0,286,286,328,1,,,63ef938aea545fb9bd19a591,643916394a86e25a24c7370d,2023-04-14_10h03.42.524,PRaM,2021.2.3,Win32,60.33910577,61b8f3437b89212fae0dfade
4,9.0606,space,9.0086,0,287,287,216,1,,,63ef938aea545fb9bd19a591,643916394a86e25a24c7370d,2023-04-14_10h03.42.524,PRaM,2021.2.3,Win32,60.33910577,61b8f3437b89212fae0dfade
6,9.1957,space,7.5737,0,288,288,319,1,,,63ef938aea545fb9bd19a591,643916394a86e25a24c7370d,2023-04-14_10h03.42.524,PRaM,2021.2.3,Win32,60.33910577,61b8f3437b89212fae0dfade
1,4.7121,space,3.2396,0,289,289,336,1,,,63ef938aea545fb9bd19a591,643916394a86e25a24c7370d,2023-04-14_10h03.42.524,PRaM,2021.2.3,Win32,60.33910577,61b8f3437b89212fae0dfade
3,10.4453,space,8.8369,0,290,290,165,1,,,63ef938aea545fb9bd19a591,643916394a86e25a24c7370d,2023-04-14_10h03.42.524,PRaM,2021.2.3,Win32,60.33910577,61b8f3437b89212fae0dfade
2,7.0498,space,5.5891,0,291,291,144,1,,,63ef938aea545fb9bd19a591,643916394a86e25a24c7370d,2023-04-14_10h03.42.524,PRaM,2021.2.3,Win32,60.33910577,61b8f3437b89212fae0dfade
2,9.4264,space,7.7574,0,292,292,344,1,,,63ef938aea545fb9bd19a591,643916394a86e25a24c7370d,2023-04-14_10h03.42.524,PRaM,2021.2.3,Win32,60.33910577,61b8f3437b89212fae0dfade
1,2.4442,space,0.7877,0,293,293,329,1,,,63ef938aea545fb9bd19a591,643916394a86e25a24c7370d,2023-04-14_10h03.42.524,PRaM,2021.2.3,Win32,60.33910577,61b8f3437b89212fae0dfade
2,4.0165,space,2.4056,0,294,294,376,1,,,63ef938aea545fb9bd19a591,643916394a86e25a24c7370d,2023-04-14_10h03.42.524,PRaM,2021.2.3,Win32,60.33910577,61b8f3437b89212fae0dfade
1,6.5941,space,5.0056,0,295,295,151,1,,,63ef938aea545fb9bd19a591,643916394a86e25a24c7370d,2023-04-14_10h03.42.524,PRaM,2021.2.3,Win32,60.33910577,61b8f3437b89212fae0dfade
1,3.5296,space,2.0702,0,296,296,107,1,,,63ef938aea545fb9bd19a591,643916394a86e25a24c7370d,2023-04-14_10h03.42.524,PRaM,2021.2.3,Win32,60.33910577,61b8f3437b89212fae0dfade
2,4.6277,space,3.0636,0,297,297,178,1,,,63ef938aea545fb9bd19a591,643916394a86e25a24c7370d,2023-04-14_10h03.42.524,PRaM,2021.2.3,Win32,60.33910577,61b8f3437b89212fae0dfade
1,2.7594,space,1.1317,0,298,298,220,1,,,63ef938aea545fb9bd19a591,643916394a86e25a24c7370d,2023-04-14_10h03.42.524,PRaM,2021.2.3,Win32,60.33910577,61b8f3437b89212fae0dfade
4,7.5005,space,5.7718,0,299,299,84,1,,,63ef938aea545fb9bd19a591,643916394a86e25a24c7370d,2023-04-14_10h03.42.524,PRaM,2021.2.3,Win32,60.33910577,61b8f3437b89212fae0dfade
3,6.1581,space,4.5502,0,300,300,254,1,,,63ef938aea545fb9bd19a591,643916394a86e25a24c7370d,2023-04-14_10h03.42.524,PRaM,2021.2.3,Win32,60.33910577,61b8f3437b89212fae0dfade
1,5.9663,space,4.4052,0,301,301,73,1,,,63ef938aea545fb9bd19a591,643916394a86e25a24c7370d,2023-04-14_10h03.42.524,PRaM,2021.2.3,Win32,60.33910577,61b8f3437b89212fae0dfade
1,5.628,space,4.0048,0,302,302,46,1,,,63ef938aea545fb9bd19a591,643916394a86e25a24c7370d,2023-04-14_10h03.42.524,PRaM,2021.2.3,Win32,60.33910577,61b8f3437b89212fae0dfade
1,4.6597,space,3.0055,0,303,303,176,1,,,63ef938aea545fb9bd19a591,643916394a86e25a24c7370d,2023-04-14_10h03.42.524,PRaM,2021.2.3,Win32,60.33910577,61b8f3437b89212fae0dfade
1,2.2604,space,0.5776,0,304,304,236,1,,,63ef938aea545fb9bd19a591,643916394a86e25a24c7370d,2023-04-14_10h03.42.524,PRaM,2021.2.3,Win32,60.33910577,61b8f3437b89212fae0dfade
1,2.6719,space,1.0011,0,305,305,18,1,,,63ef938aea545fb9bd19a591,643916394a86e25a24c7370d,2023-04-14_10h03.42.524,PRaM,2021.2.3,Win32,60.33910577,61b8f3437b89212fae0dfade
6,9.3118,space,7.6891,0,306,306,59,1,,,63ef938aea545fb9bd19a591,643916394a86e25a24c7370d,2023-04-14_10h03.42.524,PRaM,2021.2.3,Win32,60.33910577,61b8f3437b89212fae0dfade
1,2.6157,space,0.9468,0,307,307,373,1,,,63ef938aea545fb9bd19a591,643916394a86e25a24c7370d,2023-04-14_10h03.42.524,PRaM,2021.2.3,Win32,60.33910577,61b8f3437b89212fae0dfade
2,2.9162,space,1.286,0,308,308,52,1,,,63ef938aea545fb9bd19a591,643916394a86e25a24c7370d,2023-04-14_10h03.42.524,PRaM,2021.2.3,Win32,60.33910577,61b8f3437b89212fae0dfade
1,4.9332,space,3.8877,0,309,309,33,1,,,63ef938aea545fb9bd19a591,643916394a86e25a24c7370d,2023-04-14_10h03.42.524,PRaM,2021.2.3,Win32,60.33910577,61b8f3437b89212fae0dfade
2,6.7554,space,5.0876,0,310,310,123,1,,,63ef938aea545fb9bd19a591,643916394a86e25a24c7370d,2023-04-14_10h03.42.524,PRaM,2021.2.3,Win32,60.33910577,61b8f3437b89212fae0dfade
1,2.4726,space,0.8035,0,311,311,330,1,,,63ef938aea545fb9bd19a591,643916394a86e25a24c7370d,2023-04-14_10h03.42.524,PRaM,2021.2.3,Win32,60.33910577,61b8f3437b89212fae0dfade
2,2.637,space,1.2536,0,312,312,333,1,,,63ef938aea545fb9bd19a591,643916394a86e25a24c7370d,2023-04-14_10h03.42.524,PRaM,2021.2.3,Win32,60.33910577,61b8f3437b89212fae0dfade
1,4.0362,space,2.3739,0,313,313,355,1,,,63ef938aea545fb9bd19a591,643916394a86e25a24c7370d,2023-04-14_10h03.42.524,PRaM,2021.2.3,Win32,60.33910577,61b8f3437b89212fae0dfade
1,1.9966,space,0.331,0,314,314,70,1,,,63ef938aea545fb9bd19a591,643916394a86e25a24c7370d,2023-04-14_10h03.42.524,PRaM,2021.2.3,Win32,60.33910577,61b8f3437b89212fae0dfade
1,2.1781,space,0.4701,0,315,315,210,1,,,63ef938aea545fb9bd19a591,643916394a86e25a24c7370d,2023-04-14_10h03.42.524,PRaM,2021.2.3,Win32,60.33910577,61b8f3437b89212fae0dfade
2,6.8749,space,5.7381,0,316,316,128,1,,,63ef938aea545fb9bd19a591,643916394a86e25a24c7370d,2023-04-14_10h03.42.524,PRaM,2021.2.3,Win32,60.33910577,61b8f3437b89212fae0dfade
6,13.6252,space,11.9269,0,317,317,192,1,,,63ef938aea545fb9bd19a591,643916394a86e25a24c7370d,2023-04-14_10h03.42.524,PRaM,2021.2.3,Win32,60.33910577,61b8f3437b89212fae0dfade
3,3.592,space,1.9308,0,318,318,241,1,,,63ef938aea545fb9bd19a591,643916394a86e25a24c7370d,2023-04-14_10h03.42.524,PRaM,2021.2.3,Win32,60.33910577,61b8f3437b89212fae0dfade
3,5.114,space,6.5058,0,319,319,164,1,,,63ef938aea545fb9bd19a591,643916394a86e25a24c7370d,2023-04-14_10h03.42.524,PRaM,2021.2.3,Win32,60.33910577,61b8f3437b89212fae0dfade
7,6.7365,space,5.0888,0,320,320,323,1,,,63ef938aea545fb9bd19a591,643916394a86e25a24c7370d,2023-04-14_10h03.42.524,PRaM,2021.2.3,Win32,60.33910577,61b8f3437b89212fae0dfade
1,3.2049,space,1.5533,0,321,321,157,1,,,63ef938aea545fb9bd19a591,643916394a86e25a24c7370d,2023-04-14_10h03.42.524,PRaM,2021.2.3,Win32,60.33910577,61b8f3437b89212fae0dfade
2,6.7422,space,5.1733,0,322,322,368,1,,,63ef938aea545fb9bd19a591,643916394a86e25a24c7370d,2023-04-14_10h03.42.524,PRaM,2021.2.3,Win32,60.33910577,61b8f3437b89212fae0dfade
7,3.4446,space,2.9297,0,323,323,4,1,,,63ef938aea545fb9bd19a591,643916394a86e25a24c7370d,2023-04-14_10h03.42.524,PRaM,2021.2.3,Win32,60.33910577,61b8f3437b89212fae0dfade
2,3.5993,space,1.9529,0,324,324,187,1,,,63ef938aea545fb9bd19a591,643916394a86e25a24c7370d,2023-04-14_10h03.42.524,PRaM,2021.2.3,Win32,60.33910577,61b8f3437b89212fae0dfade
2,3.8757,space,2.2721,0,325,325,174,1,,,63ef938aea545fb9bd19a591,643916394a86e25a24c7370d,2023-04-14_10h03.42.524,PRaM,2021.2.3,Win32,60.33910577,61b8f3437b89212fae0dfade
2,10.0625,space,9.5754,0,326,326,246,1,,,63ef938aea545fb9bd19a591,643916394a86e25a24c7370d,2023-04-14_10h03.42.524,PRaM,2021.2.3,Win32,60.33910577,61b8f3437b89212fae0dfade
7,3.1075,space,2.0363,0,327,327,331,1,,,63ef938aea545fb9bd19a591,643916394a86e25a24c7370d,2023-04-14_10h03.42.524,PRaM,2021.2.3,Win32,60.33910577,61b8f3437b89212fae0dfade
1,7.4113,space,5.8014,0,328,328,158,1,,,63ef938aea545fb9bd19a591,643916394a86e25a24c7370d,2023-04-14_10h03.42.524,PRaM,2021.2.3,Win32,60.33910577,61b8f3437b89212fae0dfade
1,6.2615,space,4.593,0,329,329,120,1,,,63ef938aea545fb9bd19a591,643916394a86e25a24c7370d,2023-04-14_10h03.42.524,PRaM,2021.2.3,Win32,60.33910577,61b8f3437b89212fae0dfade
1,2.7603,space,1.102,0,330,330,141,1,,,63ef938aea545fb9bd19a591,643916394a86e25a24c7370d,2023-04-14_10h03.42.524,PRaM,2021.2.3,Win32,60.33910577,61b8f3437b89212fae0dfade
1,4.3234,space,2.934,0,331,331,260,1,,,63ef938aea545fb9bd19a591,643916394a86e25a24c7370d,2023-04-14_10h03.42.524,PRaM,2021.2.3,Win32,60.33910577,61b8f3437b89212fae0dfade
1,2.4476,space,0.8517,0,332,332,324,1,,,63ef938aea545fb9bd19a591,643916394a86e25a24c7370d,2023-04-14_10h03.42.524,PRaM,2021.2.3,Win32,60.33910577,61b8f3437b89212fae0dfade
7,3.0216,space,3.2702,0,333,333,207,1,,,63ef938aea545fb9bd19a591,643916394a86e25a24c7370d,2023-04-14_10h03.42.524,PRaM,2021.2.3,Win32,60.33910577,61b8f3437b89212fae0dfade
1,5.2388,space,3.988,0,334,334,82,1,,,63ef938aea545fb9bd19a591,643916394a86e25a24c7370d,2023-04-14_10h03.42.524,PRaM,2021.2.3,Win32,60.33910577,61b8f3437b89212fae0dfade
1,24.5915,space,23.4023,0,335,335,81,1,,,63ef938aea545fb9bd19a591,643916394a86e25a24c7370d,2023-04-14_10h03.42.524,PRaM,2021.2.3,Win32,60.33910577,61b8f3437b89212fae0dfade
1,3.2217,space,3.8111,0,336,336,191,1,,,63ef938aea545fb9bd19a591,643916394a86e25a24c7370d,2023-04-14_10h03.42.524,PRaM,2021.2.3,Win32,60.33910577,61b8f3437b89212fae0dfade
1,3.7148,space,2.6398,0,337,337,21,1,,,63ef938aea545fb9bd19a591,643916394a86e25a24c7370d,2023-04-14_10h03.42.524,PRaM,2021.2.3,Win32,60.33910577,61b8f3437b89212fae0dfade
4,3.906,space,2.237,0,338,338,280,1,,,63ef938aea545fb9bd19a591,643916394a86e25a24c7370d,2023-04-14_10h03.42.524,PRaM,2021.2.3,Win32,60.33910577,61b8f3437b89212fae0dfade
1,4.6689,space,3.1025,0,339,339,36,1,,,63ef938aea545fb9bd19a591,643916394a86e25a24c7370d,2023-04-14_10h03.42.524,PRaM,2021.2.3,Win32,60.33910577,61b8f3437b89212fae0dfade
4,5.2244,space,3.5378,0,340,340,134,1,,,63ef938aea545fb9bd19a591,643916394a86e25a24c7370d,2023-04-14_10h03.42.524,PRaM,2021.2.3,Win32,60.33910577,61b8f3437b89212fae0dfade
1,4.6229,space,3.0554,0,341,341,2,1,,,63ef938aea545fb9bd19a591,643916394a86e25a24c7370d,2023-04-14_10h03.42.524,PRaM,2021.2.3,Win32,60.33910577,61b8f3437b89212fae0dfade
3,8.2652,space,6.537,0,342,342,342,1,,,63ef938aea545fb9bd19a591,643916394a86e25a24c7370d,2023-04-14_10h03.42.524,PRaM,2021.2.3,Win32,60.33910577,61b8f3437b89212fae0dfade
1,5.4933,space,3.8679,0,343,343,185,1,,,63ef938aea545fb9bd19a591,643916394a86e25a24c7370d,2023-04-14_10h03.42.524,PRaM,2021.2.3,Win32,60.33910577,61b8f3437b89212fae0dfade
5,6.016,space,5.1535,0,344,344,196,1,,,63ef938aea545fb9bd19a591,643916394a86e25a24c7370d,2023-04-14_10h03.42.524,PRaM,2021.2.3,Win32,60.33910577,61b8f3437b89212fae0dfade
5,6.3966,space,4.7545,0,345,345,274,1,,,63ef938aea545fb9bd19a591,643916394a86e25a24c7370d,2023-04-14_10h03.42.524,PRaM,2021.2.3,Win32,60.33910577,61b8f3437b89212fae0dfade
2,6.207,space,4.5712,0,346,346,29,1,,,63ef938aea545fb9bd19a591,643916394a86e25a24c7370d,2023-04-14_10h03.42.524,PRaM,2021.2.3,Win32,60.33910577,61b8f3437b89212fae0dfade
1,4.9447,space,3.2543,0,347,347,87,1,,,63ef938aea545fb9bd19a591,643916394a86e25a24c7370d,2023-04-14_10h03.42.524,PRaM,2021.2.3,Win32,60.33910577,61b8f3437b89212fae0dfade
1,9.2294,space,10.7444,0,348,348,228,1,,,63ef938aea545fb9bd19a591,643916394a86e25a24c7370d,2023-04-14_10h03.42.524,PRaM,2021.2.3,Win32,60.33910577,61b8f3437b89212fae0dfade
4,4.6227,space,3.0378,0,349,349,221,1,,,63ef938aea545fb9bd19a591,643916394a86e25a24c7370d,2023-04-14_10h03.42.524,PRaM,2021.2.3,Win32,60.33910577,61b8f3437b89212fae0dfade
6,4.5912,space,2.8988,0,350,350,132,1,,,63ef938aea545fb9bd19a591,643916394a86e25a24c7370d,2023-04-14_10h03.42.524,PRaM,2021.2.3,Win32,60.33910577,61b8f3437b89212fae0dfade
1,2.7953,space,1.1847,0,351,351,67,1,,,63ef938aea545fb9bd19a591,643916394a86e25a24c7370d,2023-04-14_10h03.42.524,PRaM,2021.2.3,Win32,60.33910577,61b8f3437b89212fae0dfade
6,5.2512,space,3.7537,0,352,352,163,1,,,63ef938aea545fb9bd19a591,643916394a86e25a24c7370d,2023-04-14_10h03.42.524,PRaM,2021.2.3,Win32,60.33910577,61b8f3437b89212fae0dfade
1,3.285,space,1.6652,0,353,353,78,1,,,63ef938aea545fb9bd19a591,643916394a86e25a24c7370d,2023-04-14_10h03.42.524,PRaM,2021.2.3,Win32,60.33910577,61b8f3437b89212fae0dfade
3,5.6018,space,3.9057,0,354,354,351,1,,,63ef938aea545fb9bd19a591,643916394a86e25a24c7370d,2023-04-14_10h03.42.524,PRaM,2021.2.3,Win32,60.33910577,61b8f3437b89212fae0dfade
1,3.156,space,1.3856,0,355,355,261,1,,,63ef938aea545fb9bd19a591,643916394a86e25a24c7370d,2023-04-14_10h03.42.524,PRaM,2021.2.3,Win32,60.33910577,61b8f3437b89212fae0dfade
7,4.5035,space,3.0357,0,356,356,222,1,,,63ef938aea545fb9bd19a591,643916394a86e25a24c7370d,2023-04-14_10h03.42.524,PRaM,2021.2.3,Win32,60.33910577,61b8f3437b89212fae0dfade
2,3.8847,space,2.2229,0,357,357,145,1,,,63ef938aea545fb9bd19a591,643916394a86e25a24c7370d,2023-04-14_10h03.42.524,PRaM,2021.2.3,Win32,60.33910577,61b8f3437b89212fae0dfade
1,4.2055,space,2.5872,0,358,358,153,1,,,63ef938aea545fb9bd19a591,643916394a86e25a24c7370d,2023-04-14_10h03.42.524,PRaM,2021.2.3,Win32,60.33910577,61b8f3437b89212fae0dfade
3,5.824,space,4.1398,0,359,359,199,1,,,63ef938aea545fb9bd19a591,643916394a86e25a24c7370d,2023-04-14_10h03.42.524,PRaM,2021.2.3,Win32,60.33910577,61b8f3437b89212fae0dfade
1,3.4062,space,1.7369,0,360,360,28,1,,,63ef938aea545fb9bd19a591,643916394a86e25a24c7370d,2023-04-14_10h03.42.524,PRaM,2021.2.3,Win32,60.33910577,61b8f3437b89212fae0dfade
1,5.1894,space,3.5025,0,361,361,89,1,,,63ef938aea545fb9bd19a591,643916394a86e25a24c7370d,2023-04-14_10h03.42.524,PRaM,2021.2.3,Win32,60.33910577,61b8f3437b89212fae0dfade
1,2.5627,space,1.3716,0,362,362,232,1,,,63ef938aea545fb9bd19a591,643916394a86e25a24c7370d,2023-04-14_10h03.42.524,PRaM,2021.2.3,Win32,60.33910577,61b8f3437b89212fae0dfade
1,3.0463,space,1.4518,0,363,363,262,1,,,63ef938aea545fb9bd19a591,643916394a86e25a24c7370d,2023-04-14_10h03.42.524,PRaM,2021.2.3,Win32,60.33910577,61b8f3437b89212fae0dfade
1,9.7487,space,8.1121,0,364,364,162,1,,,63ef938aea545fb9bd19a591,643916394a86e25a24c7370d,2023-04-14_10h03.42.524,PRaM,2021.2.3,Win32,60.33910577,61b8f3437b89212fae0dfade
3,7.315,space,5.8057,0,365,365,278,1,,,63ef938aea545fb9bd19a591,643916394a86e25a24c7370d,2023-04-14_10h03.42.524,PRaM,2021.2.3,Win32,60.33910577,61b8f3437b89212fae0dfade
2,2.8901,space,1.202,0,366,366,272,1,,,63ef938aea545fb9bd19a591,643916394a86e25a24c7370d,2023-04-14_10h03.42.524,PRaM,2021.2.3,Win32,60.33910577,61b8f3437b89212fae0dfade
3,8.6145,space,6.9555,0,367,367,352,1,,,63ef938aea545fb9bd19a591,643916394a86e25a24c7370d,2023-04-14_10h03.42.524,PRaM,2021.2.3,Win32,60.33910577,61b8f3437b89212fae0dfade
3,3.7023,space,2.1353,0,368,368,55,1,,,63ef938aea545fb9bd19a591,643916394a86e25a24c7370d,2023-04-14_10h03.42.524,PRaM,2021.2.3,Win32,60.33910577,61b8f3437b89212fae0dfade
6,7.4429,space,5.8096,0,369,369,7,1,,,63ef938aea545fb9bd19a591,643916394a86e25a24c7370d,2023-04-14_10h03.42.524,PRaM,2021.2.3,Win32,60.33910577,61b8f3437b89212fae0dfade
2,5.1056,space,3.3876,0,370,370,340,1,,,63ef938aea545fb9bd19a591,643916394a86e25a24c7370d,2023-04-14_10h03.42.524,PRaM,2021.2.3,Win32,60.33910577,61b8f3437b89212fae0dfade
1,2.7613,space,1.1172,0,371,371,71,1,,,63ef938aea545fb9bd19a591,643916394a86e25a24c7370d,2023-04-14_10h03.42.524,PRaM,2021.2.3,Win32,60.33910577,61b8f3437b89212fae0dfade
3,6.693,space,4.9588,0,372,372,14,1,,,63ef938aea545fb9bd19a591,643916394a86e25a24c7370d,2023-04-14_10h03.42.524,PRaM,2021.2.3,Win32,60.33910577,61b8f3437b89212fae0dfade
8,4.1791,space,2.7986,0,373,373,137,1,,,63ef938aea545fb9bd19a591,643916394a86e25a24c7370d,2023-04-14_10h03.42.524,PRaM,2021.2.3,Win32,60.33910577,61b8f3437b89212fae0dfade
2,25.1221,space,24.9709,0,374,374,96,1,,,63ef938aea545fb9bd19a591,643916394a86e25a24c7370d,2023-04-14_10h03.42.524,PRaM,2021.2.3,Win32,60.33910577,61b8f3437b89212fae0dfade
1,21.2926,space,19.8848,0,375,375,308,1,,,63ef938aea545fb9bd19a591,643916394a86e25a24c7370d,2023-04-14_10h03.42.524,PRaM,2021.2.3,Win32,60.33910577,61b8f3437b89212fae0dfade
3,4.4085,space,2.7381,0,376,376,149,1,,,63ef938aea545fb9bd19a591,643916394a86e25a24c7370d,2023-04-14_10h03.42.524,PRaM,2021.2.3,Win32,60.33910577,61b8f3437b89212fae0dfade
3,4.4731,space,3.8229,0,377,377,16,1,,,63ef938aea545fb9bd19a591,643916394a86e25a24c7370d,2023-04-14_10h03.42.524,PRaM,2021.2.3,Win32,60.33910577,61b8f3437b89212fae0dfade
