Rating.response,Rating.rt,EndTrial.keys,EndTrial.rt,trials.thisRepN,trials.thisTrialN,trials.thisN,trials.thisIndex,trials.ran,Pos1,Pos2,participant,session,date,expName,psychopyVersion,OS,frameRate,study_id
6,5.8211,space,5.3155,0,0,0,298,1,,,6428b84211dcbd13d44f2d9c,643774cf6f9981838dc652d7,2023-04-13_13h20.24.023,PRaM,2021.2.3,Win32,59.19962112,61b8f3437b89212fae0dfadf
2,6.4503,space,5.5411,0,1,1,252,1,,,6428b84211dcbd13d44f2d9c,643774cf6f9981838dc652d7,2023-04-13_13h20.24.023,PRaM,2021.2.3,Win32,59.19962112,61b8f3437b89212fae0dfadf
5,4.526,space,3.4572,0,2,2,201,1,,,6428b84211dcbd13d44f2d9c,643774cf6f9981838dc652d7,2023-04-13_13h20.24.023,PRaM,2021.2.3,Win32,59.19962112,61b8f3437b89212fae0dfadf
1,3.5095,space,2.7006,0,3,3,125,1,,,6428b84211dcbd13d44f2d9c,643774cf6f9981838dc652d7,2023-04-13_13h20.24.023,PRaM,2021.2.3,Win32,59.19962112,61b8f3437b89212fae0dfadf
8,4.0625,space,3.4672,0,4,4,64,1,,,6428b84211dcbd13d44f2d9c,643774cf6f9981838dc652d7,2023-04-13_13h20.24.023,PRaM,2021.2.3,Win32,59.19962112,61b8f3437b89212fae0dfadf
7,3.9853,space,4.1184,0,5,5,4,1,,,6428b84211dcbd13d44f2d9c,643774cf6f9981838dc652d7,2023-04-13_13h20.24.023,PRaM,2021.2.3,Win32,59.19962112,61b8f3437b89212fae0dfadf
3,4.6673,space,5.1891,0,6,6,375,1,,,6428b84211dcbd13d44f2d9c,643774cf6f9981838dc652d7,2023-04-13_13h20.24.023,PRaM,2021.2.3,Win32,59.19962112,61b8f3437b89212fae0dfadf
1,4.1406,space,3.6019,0,7,7,122,1,,,6428b84211dcbd13d44f2d9c,643774cf6f9981838dc652d7,2023-04-13_13h20.24.023,PRaM,2021.2.3,Win32,59.19962112,61b8f3437b89212fae0dfadf
4,3.145,space,3.2341,0,8,8,141,1,,,6428b84211dcbd13d44f2d9c,643774cf6f9981838dc652d7,2023-04-13_13h20.24.023,PRaM,2021.2.3,Win32,59.19962112,61b8f3437b89212fae0dfadf
7,4.2826,space,3.5045,0,9,9,31,1,,,6428b84211dcbd13d44f2d9c,643774cf6f9981838dc652d7,2023-04-13_13h20.24.023,PRaM,2021.2.3,Win32,59.19962112,61b8f3437b89212fae0dfadf
8,4.2364,space,3.1457,0,10,10,88,1,,,6428b84211dcbd13d44f2d9c,643774cf6f9981838dc652d7,2023-04-13_13h20.24.023,PRaM,2021.2.3,Win32,59.19962112,61b8f3437b89212fae0dfadf
2,3.3064,space,2.6685,0,11,11,374,1,,,6428b84211dcbd13d44f2d9c,643774cf6f9981838dc652d7,2023-04-13_13h20.24.023,PRaM,2021.2.3,Win32,59.19962112,61b8f3437b89212fae0dfadf
4,4.3306,space,3.1196,0,12,12,216,1,,,6428b84211dcbd13d44f2d9c,643774cf6f9981838dc652d7,2023-04-13_13h20.24.023,PRaM,2021.2.3,Win32,59.19962112,61b8f3437b89212fae0dfadf
7,4.4761,space,3.2007,0,13,13,66,1,,,6428b84211dcbd13d44f2d9c,643774cf6f9981838dc652d7,2023-04-13_13h20.24.023,PRaM,2021.2.3,Win32,59.19962112,61b8f3437b89212fae0dfadf
9,3.0484,space,3.1213,0,14,14,137,1,,,6428b84211dcbd13d44f2d9c,643774cf6f9981838dc652d7,2023-04-13_13h20.24.023,PRaM,2021.2.3,Win32,59.19962112,61b8f3437b89212fae0dfadf
2,1.9415,space,1.2187,0,15,15,158,1,,,6428b84211dcbd13d44f2d9c,643774cf6f9981838dc652d7,2023-04-13_13h20.24.023,PRaM,2021.2.3,Win32,59.19962112,61b8f3437b89212fae0dfadf
9,6.8197,space,5.2775,0,16,16,222,1,,,6428b84211dcbd13d44f2d9c,643774cf6f9981838dc652d7,2023-04-13_13h20.24.023,PRaM,2021.2.3,Win32,59.19962112,61b8f3437b89212fae0dfadf
6,5.525,space,4.6273,0,17,17,48,1,,,6428b84211dcbd13d44f2d9c,643774cf6f9981838dc652d7,2023-04-13_13h20.24.023,PRaM,2021.2.3,Win32,59.19962112,61b8f3437b89212fae0dfadf
1,2.5963,space,2.5321,0,18,18,184,1,,,6428b84211dcbd13d44f2d9c,643774cf6f9981838dc652d7,2023-04-13_13h20.24.023,PRaM,2021.2.3,Win32,59.19962112,61b8f3437b89212fae0dfadf
7,2.7082,space,1.6616,0,19,19,194,1,,,6428b84211dcbd13d44f2d9c,643774cf6f9981838dc652d7,2023-04-13_13h20.24.023,PRaM,2021.2.3,Win32,59.19962112,61b8f3437b89212fae0dfadf
4,2.6676,space,1.7475,0,20,20,46,1,,,6428b84211dcbd13d44f2d9c,643774cf6f9981838dc652d7,2023-04-13_13h20.24.023,PRaM,2021.2.3,Win32,59.19962112,61b8f3437b89212fae0dfadf
1,3.8556,space,2.619,0,21,21,189,1,,,6428b84211dcbd13d44f2d9c,643774cf6f9981838dc652d7,2023-04-13_13h20.24.023,PRaM,2021.2.3,Win32,59.19962112,61b8f3437b89212fae0dfadf
9,4.2541,space,3.2679,0,22,22,279,1,,,6428b84211dcbd13d44f2d9c,643774cf6f9981838dc652d7,2023-04-13_13h20.24.023,PRaM,2021.2.3,Win32,59.19962112,61b8f3437b89212fae0dfadf
1,6.3536,space,4.9456,0,23,23,232,1,,,6428b84211dcbd13d44f2d9c,643774cf6f9981838dc652d7,2023-04-13_13h20.24.023,PRaM,2021.2.3,Win32,59.19962112,61b8f3437b89212fae0dfadf
7,4.5982,space,3.35,0,24,24,230,1,,,6428b84211dcbd13d44f2d9c,643774cf6f9981838dc652d7,2023-04-13_13h20.24.023,PRaM,2021.2.3,Win32,59.19962112,61b8f3437b89212fae0dfadf
8,4.7975,space,3.6874,0,25,25,80,1,,,6428b84211dcbd13d44f2d9c,643774cf6f9981838dc652d7,2023-04-13_13h20.24.023,PRaM,2021.2.3,Win32,59.19962112,61b8f3437b89212fae0dfadf
7,2.8714,space,3.468,0,26,26,348,1,,,6428b84211dcbd13d44f2d9c,643774cf6f9981838dc652d7,2023-04-13_13h20.24.023,PRaM,2021.2.3,Win32,59.19962112,61b8f3437b89212fae0dfadf
2,3.511,space,2.3523,0,27,27,265,1,,,6428b84211dcbd13d44f2d9c,643774cf6f9981838dc652d7,2023-04-13_13h20.24.023,PRaM,2021.2.3,Win32,59.19962112,61b8f3437b89212fae0dfadf
1,2.0766,space,1.1158,0,28,28,79,1,,,6428b84211dcbd13d44f2d9c,643774cf6f9981838dc652d7,2023-04-13_13h20.24.023,PRaM,2021.2.3,Win32,59.19962112,61b8f3437b89212fae0dfadf
8,2.6198,space,2.2191,0,29,29,147,1,,,6428b84211dcbd13d44f2d9c,643774cf6f9981838dc652d7,2023-04-13_13h20.24.023,PRaM,2021.2.3,Win32,59.19962112,61b8f3437b89212fae0dfadf
2,3.2265,space,2.2648,0,30,30,97,1,,,6428b84211dcbd13d44f2d9c,643774cf6f9981838dc652d7,2023-04-13_13h20.24.023,PRaM,2021.2.3,Win32,59.19962112,61b8f3437b89212fae0dfadf
8,3.5453,space,2.4842,0,31,31,115,1,,,6428b84211dcbd13d44f2d9c,643774cf6f9981838dc652d7,2023-04-13_13h20.24.023,PRaM,2021.2.3,Win32,59.19962112,61b8f3437b89212fae0dfadf
4,2.815,space,1.4181,0,32,32,33,1,,,6428b84211dcbd13d44f2d9c,643774cf6f9981838dc652d7,2023-04-13_13h20.24.023,PRaM,2021.2.3,Win32,59.19962112,61b8f3437b89212fae0dfadf
7,3.0104,space,1.8599,0,33,33,86,1,,,6428b84211dcbd13d44f2d9c,643774cf6f9981838dc652d7,2023-04-13_13h20.24.023,PRaM,2021.2.3,Win32,59.19962112,61b8f3437b89212fae0dfadf
1,2.6466,space,1.1341,0,34,34,129,1,,,6428b84211dcbd13d44f2d9c,643774cf6f9981838dc652d7,2023-04-13_13h20.24.023,PRaM,2021.2.3,Win32,59.19962112,61b8f3437b89212fae0dfadf
1,1.8657,space,0.5686,0,35,35,312,1,,,6428b84211dcbd13d44f2d9c,643774cf6f9981838dc652d7,2023-04-13_13h20.24.023,PRaM,2021.2.3,Win32,59.19962112,61b8f3437b89212fae0dfadf
6,3.3803,space,1.8996,0,36,36,81,1,,,6428b84211dcbd13d44f2d9c,643774cf6f9981838dc652d7,2023-04-13_13h20.24.023,PRaM,2021.2.3,Win32,59.19962112,61b8f3437b89212fae0dfadf
1,2.1675,space,0.8013,0,37,37,55,1,,,6428b84211dcbd13d44f2d9c,643774cf6f9981838dc652d7,2023-04-13_13h20.24.023,PRaM,2021.2.3,Win32,59.19962112,61b8f3437b89212fae0dfadf
7,4.5138,space,2.9677,0,38,38,187,1,,,6428b84211dcbd13d44f2d9c,643774cf6f9981838dc652d7,2023-04-13_13h20.24.023,PRaM,2021.2.3,Win32,59.19962112,61b8f3437b89212fae0dfadf
1,2.3459,space,1.0832,0,39,39,82,1,,,6428b84211dcbd13d44f2d9c,643774cf6f9981838dc652d7,2023-04-13_13h20.24.023,PRaM,2021.2.3,Win32,59.19962112,61b8f3437b89212fae0dfadf
8,2.8773,space,2.3348,0,40,40,225,1,,,6428b84211dcbd13d44f2d9c,643774cf6f9981838dc652d7,2023-04-13_13h20.24.023,PRaM,2021.2.3,Win32,59.19962112,61b8f3437b89212fae0dfadf
8,2.4115,space,1.4342,0,41,41,154,1,,,6428b84211dcbd13d44f2d9c,643774cf6f9981838dc652d7,2023-04-13_13h20.24.023,PRaM,2021.2.3,Win32,59.19962112,61b8f3437b89212fae0dfadf
8,1.9318,space,0.8846,0,42,42,244,1,,,6428b84211dcbd13d44f2d9c,643774cf6f9981838dc652d7,2023-04-13_13h20.24.023,PRaM,2021.2.3,Win32,59.19962112,61b8f3437b89212fae0dfadf
8,2.6148,space,2.0684,0,43,43,149,1,,,6428b84211dcbd13d44f2d9c,643774cf6f9981838dc652d7,2023-04-13_13h20.24.023,PRaM,2021.2.3,Win32,59.19962112,61b8f3437b89212fae0dfadf
8,3.1199,space,1.8164,0,44,44,12,1,,,6428b84211dcbd13d44f2d9c,643774cf6f9981838dc652d7,2023-04-13_13h20.24.023,PRaM,2021.2.3,Win32,59.19962112,61b8f3437b89212fae0dfadf
6,2.494,space,1.1227,0,45,45,145,1,,,6428b84211dcbd13d44f2d9c,643774cf6f9981838dc652d7,2023-04-13_13h20.24.023,PRaM,2021.2.3,Win32,59.19962112,61b8f3437b89212fae0dfadf
4,8.4431,space,7.2509,0,46,46,40,1,,,6428b84211dcbd13d44f2d9c,643774cf6f9981838dc652d7,2023-04-13_13h20.24.023,PRaM,2021.2.3,Win32,59.19962112,61b8f3437b89212fae0dfadf
1,2.3129,space,1.7505,0,47,47,36,1,,,6428b84211dcbd13d44f2d9c,643774cf6f9981838dc652d7,2023-04-13_13h20.24.023,PRaM,2021.2.3,Win32,59.19962112,61b8f3437b89212fae0dfadf
1,2.715,space,1.1687,0,48,48,322,1,,,6428b84211dcbd13d44f2d9c,643774cf6f9981838dc652d7,2023-04-13_13h20.24.023,PRaM,2021.2.3,Win32,59.19962112,61b8f3437b89212fae0dfadf
1,3.7281,space,1.9763,0,49,49,89,1,,,6428b84211dcbd13d44f2d9c,643774cf6f9981838dc652d7,2023-04-13_13h20.24.023,PRaM,2021.2.3,Win32,59.19962112,61b8f3437b89212fae0dfadf
7,2.4715,space,0.8279,0,50,50,105,1,,,6428b84211dcbd13d44f2d9c,643774cf6f9981838dc652d7,2023-04-13_13h20.24.023,PRaM,2021.2.3,Win32,59.19962112,61b8f3437b89212fae0dfadf
1,2.3081,space,1.1181,0,51,51,261,1,,,6428b84211dcbd13d44f2d9c,643774cf6f9981838dc652d7,2023-04-13_13h20.24.023,PRaM,2021.2.3,Win32,59.19962112,61b8f3437b89212fae0dfadf
1,2.3739,space,0.7991,0,52,52,251,1,,,6428b84211dcbd13d44f2d9c,643774cf6f9981838dc652d7,2023-04-13_13h20.24.023,PRaM,2021.2.3,Win32,59.19962112,61b8f3437b89212fae0dfadf
4,4.2928,space,2.6304,0,53,53,314,1,,,6428b84211dcbd13d44f2d9c,643774cf6f9981838dc652d7,2023-04-13_13h20.24.023,PRaM,2021.2.3,Win32,59.19962112,61b8f3437b89212fae0dfadf
8,4.4898,space,2.9008,0,54,54,355,1,,,6428b84211dcbd13d44f2d9c,643774cf6f9981838dc652d7,2023-04-13_13h20.24.023,PRaM,2021.2.3,Win32,59.19962112,61b8f3437b89212fae0dfadf
9,2.5648,space,0.9138,0,55,55,197,1,,,6428b84211dcbd13d44f2d9c,643774cf6f9981838dc652d7,2023-04-13_13h20.24.023,PRaM,2021.2.3,Win32,59.19962112,61b8f3437b89212fae0dfadf
2,2.2224,space,0.8466,0,56,56,210,1,,,6428b84211dcbd13d44f2d9c,643774cf6f9981838dc652d7,2023-04-13_13h20.24.023,PRaM,2021.2.3,Win32,59.19962112,61b8f3437b89212fae0dfadf
1,1.856,space,0.2349,0,57,57,214,1,,,6428b84211dcbd13d44f2d9c,643774cf6f9981838dc652d7,2023-04-13_13h20.24.023,PRaM,2021.2.3,Win32,59.19962112,61b8f3437b89212fae0dfadf
7,2.5968,space,1.2018,0,58,58,208,1,,,6428b84211dcbd13d44f2d9c,643774cf6f9981838dc652d7,2023-04-13_13h20.24.023,PRaM,2021.2.3,Win32,59.19962112,61b8f3437b89212fae0dfadf
7,2.3412,space,0.8716,0,59,59,294,1,,,6428b84211dcbd13d44f2d9c,643774cf6f9981838dc652d7,2023-04-13_13h20.24.023,PRaM,2021.2.3,Win32,59.19962112,61b8f3437b89212fae0dfadf
2,2.3592,space,0.8172,0,60,60,295,1,,,6428b84211dcbd13d44f2d9c,643774cf6f9981838dc652d7,2023-04-13_13h20.24.023,PRaM,2021.2.3,Win32,59.19962112,61b8f3437b89212fae0dfadf
1,3.9656,space,2.3675,0,61,61,109,1,,,6428b84211dcbd13d44f2d9c,643774cf6f9981838dc652d7,2023-04-13_13h20.24.023,PRaM,2021.2.3,Win32,59.19962112,61b8f3437b89212fae0dfadf
1,1.5468,space,0.8843,0,62,62,229,1,,,6428b84211dcbd13d44f2d9c,643774cf6f9981838dc652d7,2023-04-13_13h20.24.023,PRaM,2021.2.3,Win32,59.19962112,61b8f3437b89212fae0dfadf
6,1.9643,space,0.7333,0,63,63,281,1,,,6428b84211dcbd13d44f2d9c,643774cf6f9981838dc652d7,2023-04-13_13h20.24.023,PRaM,2021.2.3,Win32,59.19962112,61b8f3437b89212fae0dfadf
1,3.9839,space,2.3839,0,64,64,128,1,,,6428b84211dcbd13d44f2d9c,643774cf6f9981838dc652d7,2023-04-13_13h20.24.023,PRaM,2021.2.3,Win32,59.19962112,61b8f3437b89212fae0dfadf
2,6.7465,space,5.0173,0,65,65,223,1,,,6428b84211dcbd13d44f2d9c,643774cf6f9981838dc652d7,2023-04-13_13h20.24.023,PRaM,2021.2.3,Win32,59.19962112,61b8f3437b89212fae0dfadf
6,2.7073,space,1.2679,0,66,66,297,1,,,6428b84211dcbd13d44f2d9c,643774cf6f9981838dc652d7,2023-04-13_13h20.24.023,PRaM,2021.2.3,Win32,59.19962112,61b8f3437b89212fae0dfadf
7,1.993,space,0.6174,0,67,67,84,1,,,6428b84211dcbd13d44f2d9c,643774cf6f9981838dc652d7,2023-04-13_13h20.24.023,PRaM,2021.2.3,Win32,59.19962112,61b8f3437b89212fae0dfadf
1,2.5468,space,1.1166,0,68,68,315,1,,,6428b84211dcbd13d44f2d9c,643774cf6f9981838dc652d7,2023-04-13_13h20.24.023,PRaM,2021.2.3,Win32,59.19962112,61b8f3437b89212fae0dfadf
1,2.7158,space,1.3167,0,69,69,308,1,,,6428b84211dcbd13d44f2d9c,643774cf6f9981838dc652d7,2023-04-13_13h20.24.023,PRaM,2021.2.3,Win32,59.19962112,61b8f3437b89212fae0dfadf
7,2.6664,space,1.5516,0,70,70,345,1,,,6428b84211dcbd13d44f2d9c,643774cf6f9981838dc652d7,2023-04-13_13h20.24.023,PRaM,2021.2.3,Win32,59.19962112,61b8f3437b89212fae0dfadf
3,3.0144,space,1.3842,0,71,71,333,1,,,6428b84211dcbd13d44f2d9c,643774cf6f9981838dc652d7,2023-04-13_13h20.24.023,PRaM,2021.2.3,Win32,59.19962112,61b8f3437b89212fae0dfadf
5,5.9263,space,4.3079,0,72,72,358,1,,,6428b84211dcbd13d44f2d9c,643774cf6f9981838dc652d7,2023-04-13_13h20.24.023,PRaM,2021.2.3,Win32,59.19962112,61b8f3437b89212fae0dfadf
6,2.3589,space,0.8171,0,73,73,87,1,,,6428b84211dcbd13d44f2d9c,643774cf6f9981838dc652d7,2023-04-13_13h20.24.023,PRaM,2021.2.3,Win32,59.19962112,61b8f3437b89212fae0dfadf
4,2.3117,space,0.818,0,74,74,72,1,,,6428b84211dcbd13d44f2d9c,643774cf6f9981838dc652d7,2023-04-13_13h20.24.023,PRaM,2021.2.3,Win32,59.19962112,61b8f3437b89212fae0dfadf
1,3.6798,space,1.9307,0,75,75,203,1,,,6428b84211dcbd13d44f2d9c,643774cf6f9981838dc652d7,2023-04-13_13h20.24.023,PRaM,2021.2.3,Win32,59.19962112,61b8f3437b89212fae0dfadf
7,2.1544,space,0.52,0,76,76,344,1,,,6428b84211dcbd13d44f2d9c,643774cf6f9981838dc652d7,2023-04-13_13h20.24.023,PRaM,2021.2.3,Win32,59.19962112,61b8f3437b89212fae0dfadf
1,2.5655,space,0.9849,0,77,77,95,1,,,6428b84211dcbd13d44f2d9c,643774cf6f9981838dc652d7,2023-04-13_13h20.24.023,PRaM,2021.2.3,Win32,59.19962112,61b8f3437b89212fae0dfadf
7,2.4709,space,0.9866,0,78,78,274,1,,,6428b84211dcbd13d44f2d9c,643774cf6f9981838dc652d7,2023-04-13_13h20.24.023,PRaM,2021.2.3,Win32,59.19962112,61b8f3437b89212fae0dfadf
4,6.9298,space,5.2337,0,79,79,199,1,,,6428b84211dcbd13d44f2d9c,643774cf6f9981838dc652d7,2023-04-13_13h20.24.023,PRaM,2021.2.3,Win32,59.19962112,61b8f3437b89212fae0dfadf
2,2.4921,space,1.2291,0,80,80,185,1,,,6428b84211dcbd13d44f2d9c,643774cf6f9981838dc652d7,2023-04-13_13h20.24.023,PRaM,2021.2.3,Win32,59.19962112,61b8f3437b89212fae0dfadf
7,3.316,space,1.8182,0,81,81,367,1,,,6428b84211dcbd13d44f2d9c,643774cf6f9981838dc652d7,2023-04-13_13h20.24.023,PRaM,2021.2.3,Win32,59.19962112,61b8f3437b89212fae0dfadf
8,2.5639,space,0.9743,0,82,82,323,1,,,6428b84211dcbd13d44f2d9c,643774cf6f9981838dc652d7,2023-04-13_13h20.24.023,PRaM,2021.2.3,Win32,59.19962112,61b8f3437b89212fae0dfadf
2,4.3173,space,2.6662,0,83,83,68,1,,,6428b84211dcbd13d44f2d9c,643774cf6f9981838dc652d7,2023-04-13_13h20.24.023,PRaM,2021.2.3,Win32,59.19962112,61b8f3437b89212fae0dfadf
2,7.5487,space,6.0163,0,84,84,364,1,,,6428b84211dcbd13d44f2d9c,643774cf6f9981838dc652d7,2023-04-13_13h20.24.023,PRaM,2021.2.3,Win32,59.19962112,61b8f3437b89212fae0dfadf
6,3.2814,space,1.5115,0,85,85,349,1,,,6428b84211dcbd13d44f2d9c,643774cf6f9981838dc652d7,2023-04-13_13h20.24.023,PRaM,2021.2.3,Win32,59.19962112,61b8f3437b89212fae0dfadf
8,2.7438,space,1.1139,0,86,86,271,1,,,6428b84211dcbd13d44f2d9c,643774cf6f9981838dc652d7,2023-04-13_13h20.24.023,PRaM,2021.2.3,Win32,59.19962112,61b8f3437b89212fae0dfadf
4,2.9954,space,1.2516,0,87,87,289,1,,,6428b84211dcbd13d44f2d9c,643774cf6f9981838dc652d7,2023-04-13_13h20.24.023,PRaM,2021.2.3,Win32,59.19962112,61b8f3437b89212fae0dfadf
8,2.3476,space,0.6179,0,88,88,100,1,,,6428b84211dcbd13d44f2d9c,643774cf6f9981838dc652d7,2023-04-13_13h20.24.023,PRaM,2021.2.3,Win32,59.19962112,61b8f3437b89212fae0dfadf
2,3.1151,space,1.408,0,89,89,162,1,,,6428b84211dcbd13d44f2d9c,643774cf6f9981838dc652d7,2023-04-13_13h20.24.023,PRaM,2021.2.3,Win32,59.19962112,61b8f3437b89212fae0dfadf
9,2.6088,space,0.9105,0,90,90,325,1,,,6428b84211dcbd13d44f2d9c,643774cf6f9981838dc652d7,2023-04-13_13h20.24.023,PRaM,2021.2.3,Win32,59.19962112,61b8f3437b89212fae0dfadf
9,1.9249,space,0.3929,0,91,91,127,1,,,6428b84211dcbd13d44f2d9c,643774cf6f9981838dc652d7,2023-04-13_13h20.24.023,PRaM,2021.2.3,Win32,59.19962112,61b8f3437b89212fae0dfadf
2,2.2363,space,0.6242,0,92,92,155,1,,,6428b84211dcbd13d44f2d9c,643774cf6f9981838dc652d7,2023-04-13_13h20.24.023,PRaM,2021.2.3,Win32,59.19962112,61b8f3437b89212fae0dfadf
7,5.2443,space,3.7297,0,93,93,338,1,,,6428b84211dcbd13d44f2d9c,643774cf6f9981838dc652d7,2023-04-13_13h20.24.023,PRaM,2021.2.3,Win32,59.19962112,61b8f3437b89212fae0dfadf
8,2.7111,space,1.1194,0,94,94,61,1,,,6428b84211dcbd13d44f2d9c,643774cf6f9981838dc652d7,2023-04-13_13h20.24.023,PRaM,2021.2.3,Win32,59.19962112,61b8f3437b89212fae0dfadf
2,3.5623,space,1.8656,0,95,95,183,1,,,6428b84211dcbd13d44f2d9c,643774cf6f9981838dc652d7,2023-04-13_13h20.24.023,PRaM,2021.2.3,Win32,59.19962112,61b8f3437b89212fae0dfadf
1,4.5999,space,2.9027,0,96,96,258,1,,,6428b84211dcbd13d44f2d9c,643774cf6f9981838dc652d7,2023-04-13_13h20.24.023,PRaM,2021.2.3,Win32,59.19962112,61b8f3437b89212fae0dfadf
4,4.5333,space,2.7842,0,97,97,267,1,,,6428b84211dcbd13d44f2d9c,643774cf6f9981838dc652d7,2023-04-13_13h20.24.023,PRaM,2021.2.3,Win32,59.19962112,61b8f3437b89212fae0dfadf
,,space,0.8217,0,98,98,299,1,,,6428b84211dcbd13d44f2d9c,643774cf6f9981838dc652d7,2023-04-13_13h20.24.023,PRaM,2021.2.3,Win32,59.19962112,61b8f3437b89212fae0dfadf
2,8.1129,space,6.4775,0,99,99,78,1,,,6428b84211dcbd13d44f2d9c,643774cf6f9981838dc652d7,2023-04-13_13h20.24.023,PRaM,2021.2.3,Win32,59.19962112,61b8f3437b89212fae0dfadf
7,2.5407,space,1.0024,0,100,100,239,1,,,6428b84211dcbd13d44f2d9c,643774cf6f9981838dc652d7,2023-04-13_13h20.24.023,PRaM,2021.2.3,Win32,59.19962112,61b8f3437b89212fae0dfadf
8,2.0687,space,0.5356,0,101,101,186,1,,,6428b84211dcbd13d44f2d9c,643774cf6f9981838dc652d7,2023-04-13_13h20.24.023,PRaM,2021.2.3,Win32,59.19962112,61b8f3437b89212fae0dfadf
4,2.2966,space,0.6309,0,102,102,181,1,,,6428b84211dcbd13d44f2d9c,643774cf6f9981838dc652d7,2023-04-13_13h20.24.023,PRaM,2021.2.3,Win32,59.19962112,61b8f3437b89212fae0dfadf
1,4.9603,space,3.3543,0,103,103,15,1,,,6428b84211dcbd13d44f2d9c,643774cf6f9981838dc652d7,2023-04-13_13h20.24.023,PRaM,2021.2.3,Win32,59.19962112,61b8f3437b89212fae0dfadf
1,2.3259,space,0.5184,0,104,104,176,1,,,6428b84211dcbd13d44f2d9c,643774cf6f9981838dc652d7,2023-04-13_13h20.24.023,PRaM,2021.2.3,Win32,59.19962112,61b8f3437b89212fae0dfadf
8,2.3269,space,1.2451,0,105,105,124,1,,,6428b84211dcbd13d44f2d9c,643774cf6f9981838dc652d7,2023-04-13_13h20.24.023,PRaM,2021.2.3,Win32,59.19962112,61b8f3437b89212fae0dfadf
2,2.4419,space,0.9138,0,106,106,329,1,,,6428b84211dcbd13d44f2d9c,643774cf6f9981838dc652d7,2023-04-13_13h20.24.023,PRaM,2021.2.3,Win32,59.19962112,61b8f3437b89212fae0dfadf
1,2.7993,space,1.2349,0,107,107,92,1,,,6428b84211dcbd13d44f2d9c,643774cf6f9981838dc652d7,2023-04-13_13h20.24.023,PRaM,2021.2.3,Win32,59.19962112,61b8f3437b89212fae0dfadf
8,2.679,space,1.1176,0,108,108,117,1,,,6428b84211dcbd13d44f2d9c,643774cf6f9981838dc652d7,2023-04-13_13h20.24.023,PRaM,2021.2.3,Win32,59.19962112,61b8f3437b89212fae0dfadf
7,2.2309,space,1.0177,0,109,109,168,1,,,6428b84211dcbd13d44f2d9c,643774cf6f9981838dc652d7,2023-04-13_13h20.24.023,PRaM,2021.2.3,Win32,59.19962112,61b8f3437b89212fae0dfadf
3,2.581,space,1.1662,0,110,110,224,1,,,6428b84211dcbd13d44f2d9c,643774cf6f9981838dc652d7,2023-04-13_13h20.24.023,PRaM,2021.2.3,Win32,59.19962112,61b8f3437b89212fae0dfadf
8,2.6827,space,1.0342,0,111,111,178,1,,,6428b84211dcbd13d44f2d9c,643774cf6f9981838dc652d7,2023-04-13_13h20.24.023,PRaM,2021.2.3,Win32,59.19962112,61b8f3437b89212fae0dfadf
7,2.3154,space,0.7,0,112,112,47,1,,,6428b84211dcbd13d44f2d9c,643774cf6f9981838dc652d7,2023-04-13_13h20.24.023,PRaM,2021.2.3,Win32,59.19962112,61b8f3437b89212fae0dfadf
2,7.3832,space,5.7011,0,113,113,373,1,,,6428b84211dcbd13d44f2d9c,643774cf6f9981838dc652d7,2023-04-13_13h20.24.023,PRaM,2021.2.3,Win32,59.19962112,61b8f3437b89212fae0dfadf
6,4.8791,space,3.2163,0,114,114,228,1,,,6428b84211dcbd13d44f2d9c,643774cf6f9981838dc652d7,2023-04-13_13h20.24.023,PRaM,2021.2.3,Win32,59.19962112,61b8f3437b89212fae0dfadf
4,2.8991,space,1.16,0,115,115,351,1,,,6428b84211dcbd13d44f2d9c,643774cf6f9981838dc652d7,2023-04-13_13h20.24.023,PRaM,2021.2.3,Win32,59.19962112,61b8f3437b89212fae0dfadf
8,2.0797,space,0.6519,0,116,116,213,1,,,6428b84211dcbd13d44f2d9c,643774cf6f9981838dc652d7,2023-04-13_13h20.24.023,PRaM,2021.2.3,Win32,59.19962112,61b8f3437b89212fae0dfadf
1,3.5773,space,1.8793,0,117,117,11,1,,,6428b84211dcbd13d44f2d9c,643774cf6f9981838dc652d7,2023-04-13_13h20.24.023,PRaM,2021.2.3,Win32,59.19962112,61b8f3437b89212fae0dfadf
9,3.2203,space,1.7,0,118,118,60,1,,,6428b84211dcbd13d44f2d9c,643774cf6f9981838dc652d7,2023-04-13_13h20.24.023,PRaM,2021.2.3,Win32,59.19962112,61b8f3437b89212fae0dfadf
1,2.3633,space,1.0004,0,119,119,41,1,,,6428b84211dcbd13d44f2d9c,643774cf6f9981838dc652d7,2023-04-13_13h20.24.023,PRaM,2021.2.3,Win32,59.19962112,61b8f3437b89212fae0dfadf
7,3.0614,space,1.518,0,120,120,273,1,,,6428b84211dcbd13d44f2d9c,643774cf6f9981838dc652d7,2023-04-13_13h20.24.023,PRaM,2021.2.3,Win32,59.19962112,61b8f3437b89212fae0dfadf
9,3.3948,space,1.8351,0,121,121,192,1,,,6428b84211dcbd13d44f2d9c,643774cf6f9981838dc652d7,2023-04-13_13h20.24.023,PRaM,2021.2.3,Win32,59.19962112,61b8f3437b89212fae0dfadf
3,3.7306,space,2.0744,0,122,122,52,1,,,6428b84211dcbd13d44f2d9c,643774cf6f9981838dc652d7,2023-04-13_13h20.24.023,PRaM,2021.2.3,Win32,59.19962112,61b8f3437b89212fae0dfadf
9,2.4038,space,0.8554,0,123,123,16,1,,,6428b84211dcbd13d44f2d9c,643774cf6f9981838dc652d7,2023-04-13_13h20.24.023,PRaM,2021.2.3,Win32,59.19962112,61b8f3437b89212fae0dfadf
8,1.7652,space,0.2125,0,124,124,132,1,,,6428b84211dcbd13d44f2d9c,643774cf6f9981838dc652d7,2023-04-13_13h20.24.023,PRaM,2021.2.3,Win32,59.19962112,61b8f3437b89212fae0dfadf
7,2.8681,space,1.2565,0,125,125,282,1,,,6428b84211dcbd13d44f2d9c,643774cf6f9981838dc652d7,2023-04-13_13h20.24.023,PRaM,2021.2.3,Win32,59.19962112,61b8f3437b89212fae0dfadf
1,1.9383,space,0.3351,0,126,126,70,1,,,6428b84211dcbd13d44f2d9c,643774cf6f9981838dc652d7,2023-04-13_13h20.24.023,PRaM,2021.2.3,Win32,59.19962112,61b8f3437b89212fae0dfadf
3,9.3895,space,7.7507,0,127,127,233,1,,,6428b84211dcbd13d44f2d9c,643774cf6f9981838dc652d7,2023-04-13_13h20.24.023,PRaM,2021.2.3,Win32,59.19962112,61b8f3437b89212fae0dfadf
2,2.4309,space,0.7335,0,128,128,172,1,,,6428b84211dcbd13d44f2d9c,643774cf6f9981838dc652d7,2023-04-13_13h20.24.023,PRaM,2021.2.3,Win32,59.19962112,61b8f3437b89212fae0dfadf
9,2.6314,space,1.0515,0,129,129,302,1,,,6428b84211dcbd13d44f2d9c,643774cf6f9981838dc652d7,2023-04-13_13h20.24.023,PRaM,2021.2.3,Win32,59.19962112,61b8f3437b89212fae0dfadf
3,2.5463,space,1.2016,0,130,130,161,1,,,6428b84211dcbd13d44f2d9c,643774cf6f9981838dc652d7,2023-04-13_13h20.24.023,PRaM,2021.2.3,Win32,59.19962112,61b8f3437b89212fae0dfadf
9,2.8659,space,1.2674,0,131,131,135,1,,,6428b84211dcbd13d44f2d9c,643774cf6f9981838dc652d7,2023-04-13_13h20.24.023,PRaM,2021.2.3,Win32,59.19962112,61b8f3437b89212fae0dfadf
9,2.0988,space,0.4841,0,132,132,278,1,,,6428b84211dcbd13d44f2d9c,643774cf6f9981838dc652d7,2023-04-13_13h20.24.023,PRaM,2021.2.3,Win32,59.19962112,61b8f3437b89212fae0dfadf
1,2.032,space,0.4189,0,133,133,50,1,,,6428b84211dcbd13d44f2d9c,643774cf6f9981838dc652d7,2023-04-13_13h20.24.023,PRaM,2021.2.3,Win32,59.19962112,61b8f3437b89212fae0dfadf
3,2.7652,space,1.1015,0,134,134,104,1,,,6428b84211dcbd13d44f2d9c,643774cf6f9981838dc652d7,2023-04-13_13h20.24.023,PRaM,2021.2.3,Win32,59.19962112,61b8f3437b89212fae0dfadf
9,3.7608,space,2.3012,0,135,135,139,1,,,6428b84211dcbd13d44f2d9c,643774cf6f9981838dc652d7,2023-04-13_13h20.24.023,PRaM,2021.2.3,Win32,59.19962112,61b8f3437b89212fae0dfadf
7,3.0475,space,1.6674,0,136,136,238,1,,,6428b84211dcbd13d44f2d9c,643774cf6f9981838dc652d7,2023-04-13_13h20.24.023,PRaM,2021.2.3,Win32,59.19962112,61b8f3437b89212fae0dfadf
1,1.7489,space,0.367,0,137,137,330,1,,,6428b84211dcbd13d44f2d9c,643774cf6f9981838dc652d7,2023-04-13_13h20.24.023,PRaM,2021.2.3,Win32,59.19962112,61b8f3437b89212fae0dfadf
7,2.9161,space,1.3496,0,138,138,93,1,,,6428b84211dcbd13d44f2d9c,643774cf6f9981838dc652d7,2023-04-13_13h20.24.023,PRaM,2021.2.3,Win32,59.19962112,61b8f3437b89212fae0dfadf
9,2.9342,space,1.3248,0,139,139,159,1,,,6428b84211dcbd13d44f2d9c,643774cf6f9981838dc652d7,2023-04-13_13h20.24.023,PRaM,2021.2.3,Win32,59.19962112,61b8f3437b89212fae0dfadf
2,2.621,space,1.7512,0,140,140,90,1,,,6428b84211dcbd13d44f2d9c,643774cf6f9981838dc652d7,2023-04-13_13h20.24.023,PRaM,2021.2.3,Win32,59.19962112,61b8f3437b89212fae0dfadf
2,1.8244,space,0.2178,0,141,141,160,1,,,6428b84211dcbd13d44f2d9c,643774cf6f9981838dc652d7,2023-04-13_13h20.24.023,PRaM,2021.2.3,Win32,59.19962112,61b8f3437b89212fae0dfadf
2,3.0087,space,1.3829,0,142,142,347,1,,,6428b84211dcbd13d44f2d9c,643774cf6f9981838dc652d7,2023-04-13_13h20.24.023,PRaM,2021.2.3,Win32,59.19962112,61b8f3437b89212fae0dfadf
1,4.53,space,2.8846,0,143,143,111,1,,,6428b84211dcbd13d44f2d9c,643774cf6f9981838dc652d7,2023-04-13_13h20.24.023,PRaM,2021.2.3,Win32,59.19962112,61b8f3437b89212fae0dfadf
7,2.8477,space,1.3345,0,144,144,32,1,,,6428b84211dcbd13d44f2d9c,643774cf6f9981838dc652d7,2023-04-13_13h20.24.023,PRaM,2021.2.3,Win32,59.19962112,61b8f3437b89212fae0dfadf
8,2.4976,space,0.9016,0,145,145,242,1,,,6428b84211dcbd13d44f2d9c,643774cf6f9981838dc652d7,2023-04-13_13h20.24.023,PRaM,2021.2.3,Win32,59.19962112,61b8f3437b89212fae0dfadf
1,9.3944,space,7.7333,0,146,146,188,1,,,6428b84211dcbd13d44f2d9c,643774cf6f9981838dc652d7,2023-04-13_13h20.24.023,PRaM,2021.2.3,Win32,59.19962112,61b8f3437b89212fae0dfadf
7,3.2576,space,1.6353,0,147,147,152,1,,,6428b84211dcbd13d44f2d9c,643774cf6f9981838dc652d7,2023-04-13_13h20.24.023,PRaM,2021.2.3,Win32,59.19962112,61b8f3437b89212fae0dfadf
4,5.4288,space,3.7345,0,148,148,142,1,,,6428b84211dcbd13d44f2d9c,643774cf6f9981838dc652d7,2023-04-13_13h20.24.023,PRaM,2021.2.3,Win32,59.19962112,61b8f3437b89212fae0dfadf
7,2.9794,space,1.2446,0,149,149,264,1,,,6428b84211dcbd13d44f2d9c,643774cf6f9981838dc652d7,2023-04-13_13h20.24.023,PRaM,2021.2.3,Win32,59.19962112,61b8f3437b89212fae0dfadf
2,2.136,space,0.4492,0,150,150,240,1,,,6428b84211dcbd13d44f2d9c,643774cf6f9981838dc652d7,2023-04-13_13h20.24.023,PRaM,2021.2.3,Win32,59.19962112,61b8f3437b89212fae0dfadf
8,2.6532,space,0.9953,0,151,151,221,1,,,6428b84211dcbd13d44f2d9c,643774cf6f9981838dc652d7,2023-04-13_13h20.24.023,PRaM,2021.2.3,Win32,59.19962112,61b8f3437b89212fae0dfadf
8,1.5048,space,1.7415,0,152,152,62,1,,,6428b84211dcbd13d44f2d9c,643774cf6f9981838dc652d7,2023-04-13_13h20.24.023,PRaM,2021.2.3,Win32,59.19962112,61b8f3437b89212fae0dfadf
1,2.7583,space,1.1343,0,153,153,10,1,,,6428b84211dcbd13d44f2d9c,643774cf6f9981838dc652d7,2023-04-13_13h20.24.023,PRaM,2021.2.3,Win32,59.19962112,61b8f3437b89212fae0dfadf
1,2.1434,space,0.4997,0,154,154,283,1,,,6428b84211dcbd13d44f2d9c,643774cf6f9981838dc652d7,2023-04-13_13h20.24.023,PRaM,2021.2.3,Win32,59.19962112,61b8f3437b89212fae0dfadf
2,2.1275,space,0.4842,0,155,155,246,1,,,6428b84211dcbd13d44f2d9c,643774cf6f9981838dc652d7,2023-04-13_13h20.24.023,PRaM,2021.2.3,Win32,59.19962112,61b8f3437b89212fae0dfadf
7,2.7114,space,1.3185,0,156,156,306,1,,,6428b84211dcbd13d44f2d9c,643774cf6f9981838dc652d7,2023-04-13_13h20.24.023,PRaM,2021.2.3,Win32,59.19962112,61b8f3437b89212fae0dfadf
8,1.6976,space,0.0844,0,157,157,331,1,,,6428b84211dcbd13d44f2d9c,643774cf6f9981838dc652d7,2023-04-13_13h20.24.023,PRaM,2021.2.3,Win32,59.19962112,61b8f3437b89212fae0dfadf
8,2.0308,space,0.3188,0,158,158,136,1,,,6428b84211dcbd13d44f2d9c,643774cf6f9981838dc652d7,2023-04-13_13h20.24.023,PRaM,2021.2.3,Win32,59.19962112,61b8f3437b89212fae0dfadf
1,1.9806,space,0.2851,0,159,159,1,1,,,6428b84211dcbd13d44f2d9c,643774cf6f9981838dc652d7,2023-04-13_13h20.24.023,PRaM,2021.2.3,Win32,59.19962112,61b8f3437b89212fae0dfadf
6,11.0145,space,11.1718,0,160,160,151,1,,,6428b84211dcbd13d44f2d9c,643774cf6f9981838dc652d7,2023-04-13_13h20.24.023,PRaM,2021.2.3,Win32,59.19962112,61b8f3437b89212fae0dfadf
1,3.1103,space,1.4841,0,161,161,204,1,,,6428b84211dcbd13d44f2d9c,643774cf6f9981838dc652d7,2023-04-13_13h20.24.023,PRaM,2021.2.3,Win32,59.19962112,61b8f3437b89212fae0dfadf
1,1.4633,space,2.6844,0,162,162,107,1,,,6428b84211dcbd13d44f2d9c,643774cf6f9981838dc652d7,2023-04-13_13h20.24.023,PRaM,2021.2.3,Win32,59.19962112,61b8f3437b89212fae0dfadf
2,3.935,space,2.2682,0,163,163,249,1,,,6428b84211dcbd13d44f2d9c,643774cf6f9981838dc652d7,2023-04-13_13h20.24.023,PRaM,2021.2.3,Win32,59.19962112,61b8f3437b89212fae0dfadf
7,2.4529,space,0.8915,0,164,164,51,1,,,6428b84211dcbd13d44f2d9c,643774cf6f9981838dc652d7,2023-04-13_13h20.24.023,PRaM,2021.2.3,Win32,59.19962112,61b8f3437b89212fae0dfadf
1,2.619,space,1.0231,0,165,165,248,1,,,6428b84211dcbd13d44f2d9c,643774cf6f9981838dc652d7,2023-04-13_13h20.24.023,PRaM,2021.2.3,Win32,59.19962112,61b8f3437b89212fae0dfadf
8,2.3939,space,0.7342,0,166,166,25,1,,,6428b84211dcbd13d44f2d9c,643774cf6f9981838dc652d7,2023-04-13_13h20.24.023,PRaM,2021.2.3,Win32,59.19962112,61b8f3437b89212fae0dfadf
1,3.6455,space,2.1014,0,167,167,13,1,,,6428b84211dcbd13d44f2d9c,643774cf6f9981838dc652d7,2023-04-13_13h20.24.023,PRaM,2021.2.3,Win32,59.19962112,61b8f3437b89212fae0dfadf
8,2.0276,space,0.4335,0,168,168,45,1,,,6428b84211dcbd13d44f2d9c,643774cf6f9981838dc652d7,2023-04-13_13h20.24.023,PRaM,2021.2.3,Win32,59.19962112,61b8f3437b89212fae0dfadf
4,2.9322,space,1.2843,0,169,169,305,1,,,6428b84211dcbd13d44f2d9c,643774cf6f9981838dc652d7,2023-04-13_13h20.24.023,PRaM,2021.2.3,Win32,59.19962112,61b8f3437b89212fae0dfadf
6,3.7521,space,3.1772,0,170,170,167,1,,,6428b84211dcbd13d44f2d9c,643774cf6f9981838dc652d7,2023-04-13_13h20.24.023,PRaM,2021.2.3,Win32,59.19962112,61b8f3437b89212fae0dfadf
7,1.5304,space,1.9923,0,171,171,327,1,,,6428b84211dcbd13d44f2d9c,643774cf6f9981838dc652d7,2023-04-13_13h20.24.023,PRaM,2021.2.3,Win32,59.19962112,61b8f3437b89212fae0dfadf
9,4.2845,space,2.8331,0,172,172,307,1,,,6428b84211dcbd13d44f2d9c,643774cf6f9981838dc652d7,2023-04-13_13h20.24.023,PRaM,2021.2.3,Win32,59.19962112,61b8f3437b89212fae0dfadf
3,2.4572,space,0.9124,0,173,173,157,1,,,6428b84211dcbd13d44f2d9c,643774cf6f9981838dc652d7,2023-04-13_13h20.24.023,PRaM,2021.2.3,Win32,59.19962112,61b8f3437b89212fae0dfadf
9,2.1762,space,0.5963,0,174,174,166,1,,,6428b84211dcbd13d44f2d9c,643774cf6f9981838dc652d7,2023-04-13_13h20.24.023,PRaM,2021.2.3,Win32,59.19962112,61b8f3437b89212fae0dfadf
9,2.4775,space,0.8332,0,175,175,118,1,,,6428b84211dcbd13d44f2d9c,643774cf6f9981838dc652d7,2023-04-13_13h20.24.023,PRaM,2021.2.3,Win32,59.19962112,61b8f3437b89212fae0dfadf
7,5.8799,space,4.2432,0,176,176,150,1,,,6428b84211dcbd13d44f2d9c,643774cf6f9981838dc652d7,2023-04-13_13h20.24.023,PRaM,2021.2.3,Win32,59.19962112,61b8f3437b89212fae0dfadf
1,2.7671,space,1.3125,0,177,177,227,1,,,6428b84211dcbd13d44f2d9c,643774cf6f9981838dc652d7,2023-04-13_13h20.24.023,PRaM,2021.2.3,Win32,59.19962112,61b8f3437b89212fae0dfadf
2,3.11,space,1.4493,0,178,178,27,1,,,6428b84211dcbd13d44f2d9c,643774cf6f9981838dc652d7,2023-04-13_13h20.24.023,PRaM,2021.2.3,Win32,59.19962112,61b8f3437b89212fae0dfadf
1,1.9795,space,0.4541,0,179,179,257,1,,,6428b84211dcbd13d44f2d9c,643774cf6f9981838dc652d7,2023-04-13_13h20.24.023,PRaM,2021.2.3,Win32,59.19962112,61b8f3437b89212fae0dfadf
9,2.2234,space,0.6021,0,180,180,304,1,,,6428b84211dcbd13d44f2d9c,643774cf6f9981838dc652d7,2023-04-13_13h20.24.023,PRaM,2021.2.3,Win32,59.19962112,61b8f3437b89212fae0dfadf
7,2.5149,space,0.8967,0,181,181,270,1,,,6428b84211dcbd13d44f2d9c,643774cf6f9981838dc652d7,2023-04-13_13h20.24.023,PRaM,2021.2.3,Win32,59.19962112,61b8f3437b89212fae0dfadf
7,2.1109,space,0.4502,0,182,182,119,1,,,6428b84211dcbd13d44f2d9c,643774cf6f9981838dc652d7,2023-04-13_13h20.24.023,PRaM,2021.2.3,Win32,59.19962112,61b8f3437b89212fae0dfadf
3,2.2959,space,0.6831,0,183,183,332,1,,,6428b84211dcbd13d44f2d9c,643774cf6f9981838dc652d7,2023-04-13_13h20.24.023,PRaM,2021.2.3,Win32,59.19962112,61b8f3437b89212fae0dfadf
1,2.2226,space,0.7192,0,184,184,266,1,,,6428b84211dcbd13d44f2d9c,643774cf6f9981838dc652d7,2023-04-13_13h20.24.023,PRaM,2021.2.3,Win32,59.19962112,61b8f3437b89212fae0dfadf
1,5.8449,space,4.2298,0,185,185,9,1,,,6428b84211dcbd13d44f2d9c,643774cf6f9981838dc652d7,2023-04-13_13h20.24.023,PRaM,2021.2.3,Win32,59.19962112,61b8f3437b89212fae0dfadf
8,3.0263,space,1.4507,0,186,186,171,1,,,6428b84211dcbd13d44f2d9c,643774cf6f9981838dc652d7,2023-04-13_13h20.24.023,PRaM,2021.2.3,Win32,59.19962112,61b8f3437b89212fae0dfadf
8,1.6231,space,0.1845,0,187,187,340,1,,,6428b84211dcbd13d44f2d9c,643774cf6f9981838dc652d7,2023-04-13_13h20.24.023,PRaM,2021.2.3,Win32,59.19962112,61b8f3437b89212fae0dfadf
1,3.1238,space,1.5008,0,188,188,54,1,,,6428b84211dcbd13d44f2d9c,643774cf6f9981838dc652d7,2023-04-13_13h20.24.023,PRaM,2021.2.3,Win32,59.19962112,61b8f3437b89212fae0dfadf
1,2.4091,space,0.8611,0,189,189,73,1,,,6428b84211dcbd13d44f2d9c,643774cf6f9981838dc652d7,2023-04-13_13h20.24.023,PRaM,2021.2.3,Win32,59.19962112,61b8f3437b89212fae0dfadf
6,2.4775,space,0.9104,0,190,190,346,1,,,6428b84211dcbd13d44f2d9c,643774cf6f9981838dc652d7,2023-04-13_13h20.24.023,PRaM,2021.2.3,Win32,59.19962112,61b8f3437b89212fae0dfadf
1,1.9624,space,0.3017,0,191,191,359,1,,,6428b84211dcbd13d44f2d9c,643774cf6f9981838dc652d7,2023-04-13_13h20.24.023,PRaM,2021.2.3,Win32,59.19962112,61b8f3437b89212fae0dfadf
1,1.4639,space,1.4511,0,192,192,58,1,,,6428b84211dcbd13d44f2d9c,643774cf6f9981838dc652d7,2023-04-13_13h20.24.023,PRaM,2021.2.3,Win32,59.19962112,61b8f3437b89212fae0dfadf
1,4.2998,space,2.6669,0,193,193,303,1,,,6428b84211dcbd13d44f2d9c,643774cf6f9981838dc652d7,2023-04-13_13h20.24.023,PRaM,2021.2.3,Win32,59.19962112,61b8f3437b89212fae0dfadf
1,1.684,space,0.0876,0,194,194,354,1,,,6428b84211dcbd13d44f2d9c,643774cf6f9981838dc652d7,2023-04-13_13h20.24.023,PRaM,2021.2.3,Win32,59.19962112,61b8f3437b89212fae0dfadf
2,3.3757,space,1.8176,0,195,195,290,1,,,6428b84211dcbd13d44f2d9c,643774cf6f9981838dc652d7,2023-04-13_13h20.24.023,PRaM,2021.2.3,Win32,59.19962112,61b8f3437b89212fae0dfadf
7,2.1353,space,0.7023,0,196,196,140,1,,,6428b84211dcbd13d44f2d9c,643774cf6f9981838dc652d7,2023-04-13_13h20.24.023,PRaM,2021.2.3,Win32,59.19962112,61b8f3437b89212fae0dfadf
8,3.3734,space,1.7019,0,197,197,328,1,,,6428b84211dcbd13d44f2d9c,643774cf6f9981838dc652d7,2023-04-13_13h20.24.023,PRaM,2021.2.3,Win32,59.19962112,61b8f3437b89212fae0dfadf
8,1.8451,space,0.1844,0,198,198,0,1,,,6428b84211dcbd13d44f2d9c,643774cf6f9981838dc652d7,2023-04-13_13h20.24.023,PRaM,2021.2.3,Win32,59.19962112,61b8f3437b89212fae0dfadf
1,2.513,space,0.818,0,199,199,91,1,,,6428b84211dcbd13d44f2d9c,643774cf6f9981838dc652d7,2023-04-13_13h20.24.023,PRaM,2021.2.3,Win32,59.19962112,61b8f3437b89212fae0dfadf
3,3.8681,space,2.2542,0,200,200,342,1,,,6428b84211dcbd13d44f2d9c,643774cf6f9981838dc652d7,2023-04-13_13h20.24.023,PRaM,2021.2.3,Win32,59.19962112,61b8f3437b89212fae0dfadf
1,1.7532,space,0.1443,0,201,201,8,1,,,6428b84211dcbd13d44f2d9c,643774cf6f9981838dc652d7,2023-04-13_13h20.24.023,PRaM,2021.2.3,Win32,59.19962112,61b8f3437b89212fae0dfadf
1,2.1812,space,0.5112,0,202,202,215,1,,,6428b84211dcbd13d44f2d9c,643774cf6f9981838dc652d7,2023-04-13_13h20.24.023,PRaM,2021.2.3,Win32,59.19962112,61b8f3437b89212fae0dfadf
1,1.5122,space,1.0116,0,203,203,250,1,,,6428b84211dcbd13d44f2d9c,643774cf6f9981838dc652d7,2023-04-13_13h20.24.023,PRaM,2021.2.3,Win32,59.19962112,61b8f3437b89212fae0dfadf
1,3.1549,space,1.5054,0,204,204,262,1,,,6428b84211dcbd13d44f2d9c,643774cf6f9981838dc652d7,2023-04-13_13h20.24.023,PRaM,2021.2.3,Win32,59.19962112,61b8f3437b89212fae0dfadf
9,2.3921,space,0.7666,0,205,205,42,1,,,6428b84211dcbd13d44f2d9c,643774cf6f9981838dc652d7,2023-04-13_13h20.24.023,PRaM,2021.2.3,Win32,59.19962112,61b8f3437b89212fae0dfadf
1,1.943,space,0.347,0,206,206,284,1,,,6428b84211dcbd13d44f2d9c,643774cf6f9981838dc652d7,2023-04-13_13h20.24.023,PRaM,2021.2.3,Win32,59.19962112,61b8f3437b89212fae0dfadf
1,1.9135,space,0.5669,0,207,207,339,1,,,6428b84211dcbd13d44f2d9c,643774cf6f9981838dc652d7,2023-04-13_13h20.24.023,PRaM,2021.2.3,Win32,59.19962112,61b8f3437b89212fae0dfadf
7,3.0475,space,1.434,0,208,208,43,1,,,6428b84211dcbd13d44f2d9c,643774cf6f9981838dc652d7,2023-04-13_13h20.24.023,PRaM,2021.2.3,Win32,59.19962112,61b8f3437b89212fae0dfadf
6,3.1963,space,1.6683,0,209,209,243,1,,,6428b84211dcbd13d44f2d9c,643774cf6f9981838dc652d7,2023-04-13_13h20.24.023,PRaM,2021.2.3,Win32,59.19962112,61b8f3437b89212fae0dfadf
1,1.7972,space,0.2009,0,210,210,369,1,,,6428b84211dcbd13d44f2d9c,643774cf6f9981838dc652d7,2023-04-13_13h20.24.023,PRaM,2021.2.3,Win32,59.19962112,61b8f3437b89212fae0dfadf
9,1.7816,space,0.3994,0,211,211,17,1,,,6428b84211dcbd13d44f2d9c,643774cf6f9981838dc652d7,2023-04-13_13h20.24.023,PRaM,2021.2.3,Win32,59.19962112,61b8f3437b89212fae0dfadf
1,5.1812,space,3.5015,0,212,212,121,1,,,6428b84211dcbd13d44f2d9c,643774cf6f9981838dc652d7,2023-04-13_13h20.24.023,PRaM,2021.2.3,Win32,59.19962112,61b8f3437b89212fae0dfadf
7,1.7256,space,0.0874,0,213,213,255,1,,,6428b84211dcbd13d44f2d9c,643774cf6f9981838dc652d7,2023-04-13_13h20.24.023,PRaM,2021.2.3,Win32,59.19962112,61b8f3437b89212fae0dfadf
9,6.1946,space,4.4836,0,214,214,226,1,,,6428b84211dcbd13d44f2d9c,643774cf6f9981838dc652d7,2023-04-13_13h20.24.023,PRaM,2021.2.3,Win32,59.19962112,61b8f3437b89212fae0dfadf
1,2.8641,space,1.1845,0,215,215,23,1,,,6428b84211dcbd13d44f2d9c,643774cf6f9981838dc652d7,2023-04-13_13h20.24.023,PRaM,2021.2.3,Win32,59.19962112,61b8f3437b89212fae0dfadf
6,3.0814,space,1.4014,0,216,216,254,1,,,6428b84211dcbd13d44f2d9c,643774cf6f9981838dc652d7,2023-04-13_13h20.24.023,PRaM,2021.2.3,Win32,59.19962112,61b8f3437b89212fae0dfadf
8,2.0152,space,0.3758,0,217,217,74,1,,,6428b84211dcbd13d44f2d9c,643774cf6f9981838dc652d7,2023-04-13_13h20.24.023,PRaM,2021.2.3,Win32,59.19962112,61b8f3437b89212fae0dfadf
7,2.0031,space,0.3852,0,218,218,153,1,,,6428b84211dcbd13d44f2d9c,643774cf6f9981838dc652d7,2023-04-13_13h20.24.023,PRaM,2021.2.3,Win32,59.19962112,61b8f3437b89212fae0dfadf
4,2.0948,space,0.4191,0,219,219,163,1,,,6428b84211dcbd13d44f2d9c,643774cf6f9981838dc652d7,2023-04-13_13h20.24.023,PRaM,2021.2.3,Win32,59.19962112,61b8f3437b89212fae0dfadf
7,1.9903,space,0.2353,0,220,220,114,1,,,6428b84211dcbd13d44f2d9c,643774cf6f9981838dc652d7,2023-04-13_13h20.24.023,PRaM,2021.2.3,Win32,59.19962112,61b8f3437b89212fae0dfadf
8,1.7417,space,0.0536,0,221,221,143,1,,,6428b84211dcbd13d44f2d9c,643774cf6f9981838dc652d7,2023-04-13_13h20.24.023,PRaM,2021.2.3,Win32,59.19962112,61b8f3437b89212fae0dfadf
3,2.0265,space,0.3353,0,222,222,103,1,,,6428b84211dcbd13d44f2d9c,643774cf6f9981838dc652d7,2023-04-13_13h20.24.023,PRaM,2021.2.3,Win32,59.19962112,61b8f3437b89212fae0dfadf
4,2.8775,space,1.2509,0,223,223,317,1,,,6428b84211dcbd13d44f2d9c,643774cf6f9981838dc652d7,2023-04-13_13h20.24.023,PRaM,2021.2.3,Win32,59.19962112,61b8f3437b89212fae0dfadf
1,1.9129,space,0.2009,0,224,224,212,1,,,6428b84211dcbd13d44f2d9c,643774cf6f9981838dc652d7,2023-04-13_13h20.24.023,PRaM,2021.2.3,Win32,59.19962112,61b8f3437b89212fae0dfadf
8,1.9141,space,0.2502,0,225,225,182,1,,,6428b84211dcbd13d44f2d9c,643774cf6f9981838dc652d7,2023-04-13_13h20.24.023,PRaM,2021.2.3,Win32,59.19962112,61b8f3437b89212fae0dfadf
9,2.7318,space,1.0502,0,226,226,207,1,,,6428b84211dcbd13d44f2d9c,643774cf6f9981838dc652d7,2023-04-13_13h20.24.023,PRaM,2021.2.3,Win32,59.19962112,61b8f3437b89212fae0dfadf
4,2,space,0.3841,0,227,227,337,1,,,6428b84211dcbd13d44f2d9c,643774cf6f9981838dc652d7,2023-04-13_13h20.24.023,PRaM,2021.2.3,Win32,59.19962112,61b8f3437b89212fae0dfadf
7,1.7811,space,0.1684,0,228,228,99,1,,,6428b84211dcbd13d44f2d9c,643774cf6f9981838dc652d7,2023-04-13_13h20.24.023,PRaM,2021.2.3,Win32,59.19962112,61b8f3437b89212fae0dfadf
1,3.3134,space,1.6685,0,229,229,39,1,,,6428b84211dcbd13d44f2d9c,643774cf6f9981838dc652d7,2023-04-13_13h20.24.023,PRaM,2021.2.3,Win32,59.19962112,61b8f3437b89212fae0dfadf
,,space,0.1015,0,230,230,65,1,,,6428b84211dcbd13d44f2d9c,643774cf6f9981838dc652d7,2023-04-13_13h20.24.023,PRaM,2021.2.3,Win32,59.19962112,61b8f3437b89212fae0dfadf
6,5.0641,space,3.4353,0,231,231,269,1,,,6428b84211dcbd13d44f2d9c,643774cf6f9981838dc652d7,2023-04-13_13h20.24.023,PRaM,2021.2.3,Win32,59.19962112,61b8f3437b89212fae0dfadf
8,3.9318,space,2.558,0,232,232,53,1,,,6428b84211dcbd13d44f2d9c,643774cf6f9981838dc652d7,2023-04-13_13h20.24.023,PRaM,2021.2.3,Win32,59.19962112,61b8f3437b89212fae0dfadf
1,2.7067,space,0.9819,0,233,233,321,1,,,6428b84211dcbd13d44f2d9c,643774cf6f9981838dc652d7,2023-04-13_13h20.24.023,PRaM,2021.2.3,Win32,59.19962112,61b8f3437b89212fae0dfadf
1,6.6181,space,4.9885,0,234,234,22,1,,,6428b84211dcbd13d44f2d9c,643774cf6f9981838dc652d7,2023-04-13_13h20.24.023,PRaM,2021.2.3,Win32,59.19962112,61b8f3437b89212fae0dfadf
1,1.5599,space,1.2179,0,235,235,234,1,,,6428b84211dcbd13d44f2d9c,643774cf6f9981838dc652d7,2023-04-13_13h20.24.023,PRaM,2021.2.3,Win32,59.19962112,61b8f3437b89212fae0dfadf
8,4.5803,space,3.0849,0,236,236,301,1,,,6428b84211dcbd13d44f2d9c,643774cf6f9981838dc652d7,2023-04-13_13h20.24.023,PRaM,2021.2.3,Win32,59.19962112,61b8f3437b89212fae0dfadf
2,2.127,space,0.6641,0,237,237,5,1,,,6428b84211dcbd13d44f2d9c,643774cf6f9981838dc652d7,2023-04-13_13h20.24.023,PRaM,2021.2.3,Win32,59.19962112,61b8f3437b89212fae0dfadf
1,1.895,space,0.2502,0,238,238,260,1,,,6428b84211dcbd13d44f2d9c,643774cf6f9981838dc652d7,2023-04-13_13h20.24.023,PRaM,2021.2.3,Win32,59.19962112,61b8f3437b89212fae0dfadf
1,2.8642,space,1.2401,0,239,239,220,1,,,6428b84211dcbd13d44f2d9c,643774cf6f9981838dc652d7,2023-04-13_13h20.24.023,PRaM,2021.2.3,Win32,59.19962112,61b8f3437b89212fae0dfadf
2,3.0755,space,1.4705,0,240,240,341,1,,,6428b84211dcbd13d44f2d9c,643774cf6f9981838dc652d7,2023-04-13_13h20.24.023,PRaM,2021.2.3,Win32,59.19962112,61b8f3437b89212fae0dfadf
1,2.1945,space,0.5493,0,241,241,343,1,,,6428b84211dcbd13d44f2d9c,643774cf6f9981838dc652d7,2023-04-13_13h20.24.023,PRaM,2021.2.3,Win32,59.19962112,61b8f3437b89212fae0dfadf
8,1.9645,space,0.3971,0,242,242,352,1,,,6428b84211dcbd13d44f2d9c,643774cf6f9981838dc652d7,2023-04-13_13h20.24.023,PRaM,2021.2.3,Win32,59.19962112,61b8f3437b89212fae0dfadf
9,2.31,space,0.673,0,243,243,3,1,,,6428b84211dcbd13d44f2d9c,643774cf6f9981838dc652d7,2023-04-13_13h20.24.023,PRaM,2021.2.3,Win32,59.19962112,61b8f3437b89212fae0dfadf
8,1.6076,space,1.2205,0,244,244,173,1,,,6428b84211dcbd13d44f2d9c,643774cf6f9981838dc652d7,2023-04-13_13h20.24.023,PRaM,2021.2.3,Win32,59.19962112,61b8f3437b89212fae0dfadf
8,1.5784,space,0.9855,0,245,245,134,1,,,6428b84211dcbd13d44f2d9c,643774cf6f9981838dc652d7,2023-04-13_13h20.24.023,PRaM,2021.2.3,Win32,59.19962112,61b8f3437b89212fae0dfadf
8,1.4785,space,2.5341,0,246,246,326,1,,,6428b84211dcbd13d44f2d9c,643774cf6f9981838dc652d7,2023-04-13_13h20.24.023,PRaM,2021.2.3,Win32,59.19962112,61b8f3437b89212fae0dfadf
1,5.446,space,3.6411,0,247,247,206,1,,,6428b84211dcbd13d44f2d9c,643774cf6f9981838dc652d7,2023-04-13_13h20.24.023,PRaM,2021.2.3,Win32,59.19962112,61b8f3437b89212fae0dfadf
1,2.505,space,0.8992,0,248,248,71,1,,,6428b84211dcbd13d44f2d9c,643774cf6f9981838dc652d7,2023-04-13_13h20.24.023,PRaM,2021.2.3,Win32,59.19962112,61b8f3437b89212fae0dfadf
1,1.6327,space,0.0419,0,249,249,108,1,,,6428b84211dcbd13d44f2d9c,643774cf6f9981838dc652d7,2023-04-13_13h20.24.023,PRaM,2021.2.3,Win32,59.19962112,61b8f3437b89212fae0dfadf
7,2.0377,space,0.4185,0,250,250,177,1,,,6428b84211dcbd13d44f2d9c,643774cf6f9981838dc652d7,2023-04-13_13h20.24.023,PRaM,2021.2.3,Win32,59.19962112,61b8f3437b89212fae0dfadf
8,1.8638,space,0.2683,0,251,251,259,1,,,6428b84211dcbd13d44f2d9c,643774cf6f9981838dc652d7,2023-04-13_13h20.24.023,PRaM,2021.2.3,Win32,59.19962112,61b8f3437b89212fae0dfadf
2,1.8921,space,0.2949,0,252,252,360,1,,,6428b84211dcbd13d44f2d9c,643774cf6f9981838dc652d7,2023-04-13_13h20.24.023,PRaM,2021.2.3,Win32,59.19962112,61b8f3437b89212fae0dfadf
1,2.2909,space,0.6343,0,253,253,34,1,,,6428b84211dcbd13d44f2d9c,643774cf6f9981838dc652d7,2023-04-13_13h20.24.023,PRaM,2021.2.3,Win32,59.19962112,61b8f3437b89212fae0dfadf
1,1.2295,space,0.8006,0,254,254,113,1,,,6428b84211dcbd13d44f2d9c,643774cf6f9981838dc652d7,2023-04-13_13h20.24.023,PRaM,2021.2.3,Win32,59.19962112,61b8f3437b89212fae0dfadf
1,1.9284,space,0.2832,0,255,255,170,1,,,6428b84211dcbd13d44f2d9c,643774cf6f9981838dc652d7,2023-04-13_13h20.24.023,PRaM,2021.2.3,Win32,59.19962112,61b8f3437b89212fae0dfadf
7,1.9313,space,0.3008,0,256,256,112,1,,,6428b84211dcbd13d44f2d9c,643774cf6f9981838dc652d7,2023-04-13_13h20.24.023,PRaM,2021.2.3,Win32,59.19962112,61b8f3437b89212fae0dfadf
8,1.8312,space,0.5345,0,257,257,85,1,,,6428b84211dcbd13d44f2d9c,643774cf6f9981838dc652d7,2023-04-13_13h20.24.023,PRaM,2021.2.3,Win32,59.19962112,61b8f3437b89212fae0dfadf
5,3.6696,space,2.0676,0,258,258,256,1,,,6428b84211dcbd13d44f2d9c,643774cf6f9981838dc652d7,2023-04-13_13h20.24.023,PRaM,2021.2.3,Win32,59.19962112,61b8f3437b89212fae0dfadf
1,1.8661,space,0.173,0,259,259,131,1,,,6428b84211dcbd13d44f2d9c,643774cf6f9981838dc652d7,2023-04-13_13h20.24.023,PRaM,2021.2.3,Win32,59.19962112,61b8f3437b89212fae0dfadf
3,2.5203,space,0.9001,0,260,260,101,1,,,6428b84211dcbd13d44f2d9c,643774cf6f9981838dc652d7,2023-04-13_13h20.24.023,PRaM,2021.2.3,Win32,59.19962112,61b8f3437b89212fae0dfadf
4,2.1573,space,0.4401,0,261,261,336,1,,,6428b84211dcbd13d44f2d9c,643774cf6f9981838dc652d7,2023-04-13_13h20.24.023,PRaM,2021.2.3,Win32,59.19962112,61b8f3437b89212fae0dfadf
2,10.1427,space,8.3488,0,262,262,198,1,,,6428b84211dcbd13d44f2d9c,643774cf6f9981838dc652d7,2023-04-13_13h20.24.023,PRaM,2021.2.3,Win32,59.19962112,61b8f3437b89212fae0dfadf
8,2.5685,space,0.9759,0,263,263,291,1,,,6428b84211dcbd13d44f2d9c,643774cf6f9981838dc652d7,2023-04-13_13h20.24.023,PRaM,2021.2.3,Win32,59.19962112,61b8f3437b89212fae0dfadf
7,3.0655,space,1.6755,0,264,264,363,1,,,6428b84211dcbd13d44f2d9c,643774cf6f9981838dc652d7,2023-04-13_13h20.24.023,PRaM,2021.2.3,Win32,59.19962112,61b8f3437b89212fae0dfadf
7,2.0438,space,0.3691,0,265,265,19,1,,,6428b84211dcbd13d44f2d9c,643774cf6f9981838dc652d7,2023-04-13_13h20.24.023,PRaM,2021.2.3,Win32,59.19962112,61b8f3437b89212fae0dfadf
2,3.1087,space,1.4165,0,266,266,202,1,,,6428b84211dcbd13d44f2d9c,643774cf6f9981838dc652d7,2023-04-13_13h20.24.023,PRaM,2021.2.3,Win32,59.19962112,61b8f3437b89212fae0dfadf
1,1.5905,space,1.0176,0,267,267,116,1,,,6428b84211dcbd13d44f2d9c,643774cf6f9981838dc652d7,2023-04-13_13h20.24.023,PRaM,2021.2.3,Win32,59.19962112,61b8f3437b89212fae0dfadf
1,1.8619,space,0.2179,0,268,268,193,1,,,6428b84211dcbd13d44f2d9c,643774cf6f9981838dc652d7,2023-04-13_13h20.24.023,PRaM,2021.2.3,Win32,59.19962112,61b8f3437b89212fae0dfadf
1,2.0103,space,0.9352,0,269,269,44,1,,,6428b84211dcbd13d44f2d9c,643774cf6f9981838dc652d7,2023-04-13_13h20.24.023,PRaM,2021.2.3,Win32,59.19962112,61b8f3437b89212fae0dfadf
1,1.5461,space,1.2831,0,270,270,356,1,,,6428b84211dcbd13d44f2d9c,643774cf6f9981838dc652d7,2023-04-13_13h20.24.023,PRaM,2021.2.3,Win32,59.19962112,61b8f3437b89212fae0dfadf
1,2.4325,space,0.8332,0,271,271,376,1,,,6428b84211dcbd13d44f2d9c,643774cf6f9981838dc652d7,2023-04-13_13h20.24.023,PRaM,2021.2.3,Win32,59.19962112,61b8f3437b89212fae0dfadf
6,2.9669,space,2.2027,0,272,272,219,1,,,6428b84211dcbd13d44f2d9c,643774cf6f9981838dc652d7,2023-04-13_13h20.24.023,PRaM,2021.2.3,Win32,59.19962112,61b8f3437b89212fae0dfadf
8,1.7602,space,0.1083,0,273,273,366,1,,,6428b84211dcbd13d44f2d9c,643774cf6f9981838dc652d7,2023-04-13_13h20.24.023,PRaM,2021.2.3,Win32,59.19962112,61b8f3437b89212fae0dfadf
2,2.2706,space,0.904,0,274,274,148,1,,,6428b84211dcbd13d44f2d9c,643774cf6f9981838dc652d7,2023-04-13_13h20.24.023,PRaM,2021.2.3,Win32,59.19962112,61b8f3437b89212fae0dfadf
8,3.0707,space,1.4997,0,275,275,288,1,,,6428b84211dcbd13d44f2d9c,643774cf6f9981838dc652d7,2023-04-13_13h20.24.023,PRaM,2021.2.3,Win32,59.19962112,61b8f3437b89212fae0dfadf
1,1.8374,space,0.2012,0,276,276,247,1,,,6428b84211dcbd13d44f2d9c,643774cf6f9981838dc652d7,2023-04-13_13h20.24.023,PRaM,2021.2.3,Win32,59.19962112,61b8f3437b89212fae0dfadf
2,6.3769,space,4.7341,0,277,277,361,1,,,6428b84211dcbd13d44f2d9c,643774cf6f9981838dc652d7,2023-04-13_13h20.24.023,PRaM,2021.2.3,Win32,59.19962112,61b8f3437b89212fae0dfadf
4,2.3475,space,0.7179,0,278,278,96,1,,,6428b84211dcbd13d44f2d9c,643774cf6f9981838dc652d7,2023-04-13_13h20.24.023,PRaM,2021.2.3,Win32,59.19962112,61b8f3437b89212fae0dfadf
1,2.1311,space,0.4348,0,279,279,293,1,,,6428b84211dcbd13d44f2d9c,643774cf6f9981838dc652d7,2023-04-13_13h20.24.023,PRaM,2021.2.3,Win32,59.19962112,61b8f3437b89212fae0dfadf
9,3.5489,space,1.8207,0,280,280,83,1,,,6428b84211dcbd13d44f2d9c,643774cf6f9981838dc652d7,2023-04-13_13h20.24.023,PRaM,2021.2.3,Win32,59.19962112,61b8f3437b89212fae0dfadf
9,3.4075,space,1.6648,0,281,281,319,1,,,6428b84211dcbd13d44f2d9c,643774cf6f9981838dc652d7,2023-04-13_13h20.24.023,PRaM,2021.2.3,Win32,59.19962112,61b8f3437b89212fae0dfadf
1,6.1217,space,4.4346,0,282,282,133,1,,,6428b84211dcbd13d44f2d9c,643774cf6f9981838dc652d7,2023-04-13_13h20.24.023,PRaM,2021.2.3,Win32,59.19962112,61b8f3437b89212fae0dfadf
8,2.7773,space,1.184,0,283,283,209,1,,,6428b84211dcbd13d44f2d9c,643774cf6f9981838dc652d7,2023-04-13_13h20.24.023,PRaM,2021.2.3,Win32,59.19962112,61b8f3437b89212fae0dfadf
7,2.2623,space,0.6682,0,284,284,165,1,,,6428b84211dcbd13d44f2d9c,643774cf6f9981838dc652d7,2023-04-13_13h20.24.023,PRaM,2021.2.3,Win32,59.19962112,61b8f3437b89212fae0dfadf
1,1.8137,space,0.1677,0,285,285,24,1,,,6428b84211dcbd13d44f2d9c,643774cf6f9981838dc652d7,2023-04-13_13h20.24.023,PRaM,2021.2.3,Win32,59.19962112,61b8f3437b89212fae0dfadf
7,2.6976,space,1.0312,0,286,286,120,1,,,6428b84211dcbd13d44f2d9c,643774cf6f9981838dc652d7,2023-04-13_13h20.24.023,PRaM,2021.2.3,Win32,59.19962112,61b8f3437b89212fae0dfadf
1,4.0238,space,2.3182,0,287,287,237,1,,,6428b84211dcbd13d44f2d9c,643774cf6f9981838dc652d7,2023-04-13_13h20.24.023,PRaM,2021.2.3,Win32,59.19962112,61b8f3437b89212fae0dfadf
2,2.2576,space,0.5751,0,288,288,26,1,,,6428b84211dcbd13d44f2d9c,643774cf6f9981838dc652d7,2023-04-13_13h20.24.023,PRaM,2021.2.3,Win32,59.19962112,61b8f3437b89212fae0dfadf
8,1.74,space,0.1024,0,289,289,335,1,,,6428b84211dcbd13d44f2d9c,643774cf6f9981838dc652d7,2023-04-13_13h20.24.023,PRaM,2021.2.3,Win32,59.19962112,61b8f3437b89212fae0dfadf
7,9.2225,space,7.5786,0,290,290,75,1,,,6428b84211dcbd13d44f2d9c,643774cf6f9981838dc652d7,2023-04-13_13h20.24.023,PRaM,2021.2.3,Win32,59.19962112,61b8f3437b89212fae0dfadf
6,3.1266,space,1.5235,0,291,291,311,1,,,6428b84211dcbd13d44f2d9c,643774cf6f9981838dc652d7,2023-04-13_13h20.24.023,PRaM,2021.2.3,Win32,59.19962112,61b8f3437b89212fae0dfadf
4,2.2211,space,1.1332,0,292,292,296,1,,,6428b84211dcbd13d44f2d9c,643774cf6f9981838dc652d7,2023-04-13_13h20.24.023,PRaM,2021.2.3,Win32,59.19962112,61b8f3437b89212fae0dfadf
7,2.3751,space,0.769,0,293,293,211,1,,,6428b84211dcbd13d44f2d9c,643774cf6f9981838dc652d7,2023-04-13_13h20.24.023,PRaM,2021.2.3,Win32,59.19962112,61b8f3437b89212fae0dfadf
8,2.1408,space,0.7897,0,294,294,156,1,,,6428b84211dcbd13d44f2d9c,643774cf6f9981838dc652d7,2023-04-13_13h20.24.023,PRaM,2021.2.3,Win32,59.19962112,61b8f3437b89212fae0dfadf
8,1.6242,space,1.2688,0,295,295,350,1,,,6428b84211dcbd13d44f2d9c,643774cf6f9981838dc652d7,2023-04-13_13h20.24.023,PRaM,2021.2.3,Win32,59.19962112,61b8f3437b89212fae0dfadf
9,1.6638,space,0.001,0,296,296,372,1,,,6428b84211dcbd13d44f2d9c,643774cf6f9981838dc652d7,2023-04-13_13h20.24.023,PRaM,2021.2.3,Win32,59.19962112,61b8f3437b89212fae0dfadf
9,1.1117,space,0.6009,0,297,297,276,1,,,6428b84211dcbd13d44f2d9c,643774cf6f9981838dc652d7,2023-04-13_13h20.24.023,PRaM,2021.2.3,Win32,59.19962112,61b8f3437b89212fae0dfadf
7,2.3158,space,0.7692,0,298,298,14,1,,,6428b84211dcbd13d44f2d9c,643774cf6f9981838dc652d7,2023-04-13_13h20.24.023,PRaM,2021.2.3,Win32,59.19962112,61b8f3437b89212fae0dfadf
6,2.7089,space,0.8923,0,299,299,357,1,,,6428b84211dcbd13d44f2d9c,643774cf6f9981838dc652d7,2023-04-13_13h20.24.023,PRaM,2021.2.3,Win32,59.19962112,61b8f3437b89212fae0dfadf
1,2.6977,space,0.9589,0,300,300,318,1,,,6428b84211dcbd13d44f2d9c,643774cf6f9981838dc652d7,2023-04-13_13h20.24.023,PRaM,2021.2.3,Win32,59.19962112,61b8f3437b89212fae0dfadf
1,2.2423,space,0.5739,0,301,301,253,1,,,6428b84211dcbd13d44f2d9c,643774cf6f9981838dc652d7,2023-04-13_13h20.24.023,PRaM,2021.2.3,Win32,59.19962112,61b8f3437b89212fae0dfadf
1,1.7868,space,0.135,0,302,302,300,1,,,6428b84211dcbd13d44f2d9c,643774cf6f9981838dc652d7,2023-04-13_13h20.24.023,PRaM,2021.2.3,Win32,59.19962112,61b8f3437b89212fae0dfadf
7,12.0204,space,11.1115,0,303,303,6,1,,,6428b84211dcbd13d44f2d9c,643774cf6f9981838dc652d7,2023-04-13_13h20.24.023,PRaM,2021.2.3,Win32,59.19962112,61b8f3437b89212fae0dfadf
4,13.2452,space,11.5434,0,304,304,310,1,,,6428b84211dcbd13d44f2d9c,643774cf6f9981838dc652d7,2023-04-13_13h20.24.023,PRaM,2021.2.3,Win32,59.19962112,61b8f3437b89212fae0dfadf
8,2.3065,space,1.0802,0,305,305,179,1,,,6428b84211dcbd13d44f2d9c,643774cf6f9981838dc652d7,2023-04-13_13h20.24.023,PRaM,2021.2.3,Win32,59.19962112,61b8f3437b89212fae0dfadf
1,2.1277,space,0.5128,0,306,306,35,1,,,6428b84211dcbd13d44f2d9c,643774cf6f9981838dc652d7,2023-04-13_13h20.24.023,PRaM,2021.2.3,Win32,59.19962112,61b8f3437b89212fae0dfadf
1,1.573,space,1.1185,0,307,307,191,1,,,6428b84211dcbd13d44f2d9c,643774cf6f9981838dc652d7,2023-04-13_13h20.24.023,PRaM,2021.2.3,Win32,59.19962112,61b8f3437b89212fae0dfadf
1,2.0085,space,0.2688,0,308,308,292,1,,,6428b84211dcbd13d44f2d9c,643774cf6f9981838dc652d7,2023-04-13_13h20.24.023,PRaM,2021.2.3,Win32,59.19962112,61b8f3437b89212fae0dfadf
6,30.1618,space,28.483,0,309,309,174,1,,,6428b84211dcbd13d44f2d9c,643774cf6f9981838dc652d7,2023-04-13_13h20.24.023,PRaM,2021.2.3,Win32,59.19962112,61b8f3437b89212fae0dfadf
3,2.3986,space,0.8854,0,310,310,37,1,,,6428b84211dcbd13d44f2d9c,643774cf6f9981838dc652d7,2023-04-13_13h20.24.023,PRaM,2021.2.3,Win32,59.19962112,61b8f3437b89212fae0dfadf
8,1.8464,space,0.152,0,311,311,280,1,,,6428b84211dcbd13d44f2d9c,643774cf6f9981838dc652d7,2023-04-13_13h20.24.023,PRaM,2021.2.3,Win32,59.19962112,61b8f3437b89212fae0dfadf
1,1.7801,space,0.0679,0,312,312,195,1,,,6428b84211dcbd13d44f2d9c,643774cf6f9981838dc652d7,2023-04-13_13h20.24.023,PRaM,2021.2.3,Win32,59.19962112,61b8f3437b89212fae0dfadf
1,2.3209,space,0.6008,0,313,313,169,1,,,6428b84211dcbd13d44f2d9c,643774cf6f9981838dc652d7,2023-04-13_13h20.24.023,PRaM,2021.2.3,Win32,59.19962112,61b8f3437b89212fae0dfadf
1,2.4972,space,0.8343,0,314,314,353,1,,,6428b84211dcbd13d44f2d9c,643774cf6f9981838dc652d7,2023-04-13_13h20.24.023,PRaM,2021.2.3,Win32,59.19962112,61b8f3437b89212fae0dfadf
1,1.4644,space,0.7337,0,315,315,268,1,,,6428b84211dcbd13d44f2d9c,643774cf6f9981838dc652d7,2023-04-13_13h20.24.023,PRaM,2021.2.3,Win32,59.19962112,61b8f3437b89212fae0dfadf
7,15.0179,space,13.31,0,316,316,56,1,,,6428b84211dcbd13d44f2d9c,643774cf6f9981838dc652d7,2023-04-13_13h20.24.023,PRaM,2021.2.3,Win32,59.19962112,61b8f3437b89212fae0dfadf
1,2.3019,space,0.672,0,317,317,190,1,,,6428b84211dcbd13d44f2d9c,643774cf6f9981838dc652d7,2023-04-13_13h20.24.023,PRaM,2021.2.3,Win32,59.19962112,61b8f3437b89212fae0dfadf
4,4.1432,space,2.4648,0,318,318,371,1,,,6428b84211dcbd13d44f2d9c,643774cf6f9981838dc652d7,2023-04-13_13h20.24.023,PRaM,2021.2.3,Win32,59.19962112,61b8f3437b89212fae0dfadf
7,1.9892,space,0.4826,0,319,319,110,1,,,6428b84211dcbd13d44f2d9c,643774cf6f9981838dc652d7,2023-04-13_13h20.24.023,PRaM,2021.2.3,Win32,59.19962112,61b8f3437b89212fae0dfadf
7,2.4335,space,0.7004,0,320,320,29,1,,,6428b84211dcbd13d44f2d9c,643774cf6f9981838dc652d7,2023-04-13_13h20.24.023,PRaM,2021.2.3,Win32,59.19962112,61b8f3437b89212fae0dfadf
6,2.266,space,0.6166,0,321,321,146,1,,,6428b84211dcbd13d44f2d9c,643774cf6f9981838dc652d7,2023-04-13_13h20.24.023,PRaM,2021.2.3,Win32,59.19962112,61b8f3437b89212fae0dfadf
2,2.196,space,0.4995,0,322,322,231,1,,,6428b84211dcbd13d44f2d9c,643774cf6f9981838dc652d7,2023-04-13_13h20.24.023,PRaM,2021.2.3,Win32,59.19962112,61b8f3437b89212fae0dfadf
6,2.031,space,0.3337,0,323,323,123,1,,,6428b84211dcbd13d44f2d9c,643774cf6f9981838dc652d7,2023-04-13_13h20.24.023,PRaM,2021.2.3,Win32,59.19962112,61b8f3437b89212fae0dfadf
1,2.798,space,1.0509,0,324,324,368,1,,,6428b84211dcbd13d44f2d9c,643774cf6f9981838dc652d7,2023-04-13_13h20.24.023,PRaM,2021.2.3,Win32,59.19962112,61b8f3437b89212fae0dfadf
6,2.3647,space,0.4839,0,325,325,377,1,,,6428b84211dcbd13d44f2d9c,643774cf6f9981838dc652d7,2023-04-13_13h20.24.023,PRaM,2021.2.3,Win32,59.19962112,61b8f3437b89212fae0dfadf
1,2.6975,space,0.8687,0,326,326,235,1,,,6428b84211dcbd13d44f2d9c,643774cf6f9981838dc652d7,2023-04-13_13h20.24.023,PRaM,2021.2.3,Win32,59.19962112,61b8f3437b89212fae0dfadf
1,2.6366,space,0.9662,0,327,327,241,1,,,6428b84211dcbd13d44f2d9c,643774cf6f9981838dc652d7,2023-04-13_13h20.24.023,PRaM,2021.2.3,Win32,59.19962112,61b8f3437b89212fae0dfadf
1,1.5733,space,0.7176,0,328,328,2,1,,,6428b84211dcbd13d44f2d9c,643774cf6f9981838dc652d7,2023-04-13_13h20.24.023,PRaM,2021.2.3,Win32,59.19962112,61b8f3437b89212fae0dfadf
1,1.641,space,0.568,0,329,329,263,1,,,6428b84211dcbd13d44f2d9c,643774cf6f9981838dc652d7,2023-04-13_13h20.24.023,PRaM,2021.2.3,Win32,59.19962112,61b8f3437b89212fae0dfadf
1,3.2421,space,1.5865,0,330,330,144,1,,,6428b84211dcbd13d44f2d9c,643774cf6f9981838dc652d7,2023-04-13_13h20.24.023,PRaM,2021.2.3,Win32,59.19962112,61b8f3437b89212fae0dfadf
7,3.0111,space,1.3839,0,331,331,76,1,,,6428b84211dcbd13d44f2d9c,643774cf6f9981838dc652d7,2023-04-13_13h20.24.023,PRaM,2021.2.3,Win32,59.19962112,61b8f3437b89212fae0dfadf
4,2.6312,space,0.9595,0,332,332,67,1,,,6428b84211dcbd13d44f2d9c,643774cf6f9981838dc652d7,2023-04-13_13h20.24.023,PRaM,2021.2.3,Win32,59.19962112,61b8f3437b89212fae0dfadf
8,1.8779,space,0.4741,0,333,333,334,1,,,6428b84211dcbd13d44f2d9c,643774cf6f9981838dc652d7,2023-04-13_13h20.24.023,PRaM,2021.2.3,Win32,59.19962112,61b8f3437b89212fae0dfadf
1,2.3776,space,0.7134,0,334,334,287,1,,,6428b84211dcbd13d44f2d9c,643774cf6f9981838dc652d7,2023-04-13_13h20.24.023,PRaM,2021.2.3,Win32,59.19962112,61b8f3437b89212fae0dfadf
2,2.9424,space,1.2946,0,335,335,218,1,,,6428b84211dcbd13d44f2d9c,643774cf6f9981838dc652d7,2023-04-13_13h20.24.023,PRaM,2021.2.3,Win32,59.19962112,61b8f3437b89212fae0dfadf
4,3.1883,space,1.5186,0,336,336,57,1,,,6428b84211dcbd13d44f2d9c,643774cf6f9981838dc652d7,2023-04-13_13h20.24.023,PRaM,2021.2.3,Win32,59.19962112,61b8f3437b89212fae0dfadf
7,1.9611,space,0.6293,0,337,337,102,1,,,6428b84211dcbd13d44f2d9c,643774cf6f9981838dc652d7,2023-04-13_13h20.24.023,PRaM,2021.2.3,Win32,59.19962112,61b8f3437b89212fae0dfadf
1,4.3228,space,2.6541,0,338,338,77,1,,,6428b84211dcbd13d44f2d9c,643774cf6f9981838dc652d7,2023-04-13_13h20.24.023,PRaM,2021.2.3,Win32,59.19962112,61b8f3437b89212fae0dfadf
9,3.8767,space,2.068,0,339,339,20,1,,,6428b84211dcbd13d44f2d9c,643774cf6f9981838dc652d7,2023-04-13_13h20.24.023,PRaM,2021.2.3,Win32,59.19962112,61b8f3437b89212fae0dfadf
8,1.9965,space,0.2849,0,340,340,175,1,,,6428b84211dcbd13d44f2d9c,643774cf6f9981838dc652d7,2023-04-13_13h20.24.023,PRaM,2021.2.3,Win32,59.19962112,61b8f3437b89212fae0dfadf
4,2.0305,space,0.3522,0,341,341,30,1,,,6428b84211dcbd13d44f2d9c,643774cf6f9981838dc652d7,2023-04-13_13h20.24.023,PRaM,2021.2.3,Win32,59.19962112,61b8f3437b89212fae0dfadf
9,2.0631,space,0.3236,0,342,342,277,1,,,6428b84211dcbd13d44f2d9c,643774cf6f9981838dc652d7,2023-04-13_13h20.24.023,PRaM,2021.2.3,Win32,59.19962112,61b8f3437b89212fae0dfadf
3,6.7912,space,5.0955,0,343,343,138,1,,,6428b84211dcbd13d44f2d9c,643774cf6f9981838dc652d7,2023-04-13_13h20.24.023,PRaM,2021.2.3,Win32,59.19962112,61b8f3437b89212fae0dfadf
8,2.3071,space,0.601,0,344,344,164,1,,,6428b84211dcbd13d44f2d9c,643774cf6f9981838dc652d7,2023-04-13_13h20.24.023,PRaM,2021.2.3,Win32,59.19962112,61b8f3437b89212fae0dfadf
1,1.5826,space,0.7348,0,345,345,316,1,,,6428b84211dcbd13d44f2d9c,643774cf6f9981838dc652d7,2023-04-13_13h20.24.023,PRaM,2021.2.3,Win32,59.19962112,61b8f3437b89212fae0dfadf
1,1.8624,space,0.1852,0,346,346,236,1,,,6428b84211dcbd13d44f2d9c,643774cf6f9981838dc652d7,2023-04-13_13h20.24.023,PRaM,2021.2.3,Win32,59.19962112,61b8f3437b89212fae0dfadf
8,3.3122,space,1.5844,0,347,347,370,1,,,6428b84211dcbd13d44f2d9c,643774cf6f9981838dc652d7,2023-04-13_13h20.24.023,PRaM,2021.2.3,Win32,59.19962112,61b8f3437b89212fae0dfadf
2,2.2135,space,0.5344,0,348,348,272,1,,,6428b84211dcbd13d44f2d9c,643774cf6f9981838dc652d7,2023-04-13_13h20.24.023,PRaM,2021.2.3,Win32,59.19962112,61b8f3437b89212fae0dfadf
1,1.5306,space,0.5516,0,349,349,245,1,,,6428b84211dcbd13d44f2d9c,643774cf6f9981838dc652d7,2023-04-13_13h20.24.023,PRaM,2021.2.3,Win32,59.19962112,61b8f3437b89212fae0dfadf
1,1.5807,space,0.0011,0,350,350,362,1,,,6428b84211dcbd13d44f2d9c,643774cf6f9981838dc652d7,2023-04-13_13h20.24.023,PRaM,2021.2.3,Win32,59.19962112,61b8f3437b89212fae0dfadf
1,2.2976,space,0.6499,0,351,351,309,1,,,6428b84211dcbd13d44f2d9c,643774cf6f9981838dc652d7,2023-04-13_13h20.24.023,PRaM,2021.2.3,Win32,59.19962112,61b8f3437b89212fae0dfadf
4,2.566,space,0.8846,0,352,352,324,1,,,6428b84211dcbd13d44f2d9c,643774cf6f9981838dc652d7,2023-04-13_13h20.24.023,PRaM,2021.2.3,Win32,59.19962112,61b8f3437b89212fae0dfadf
1,1.9477,space,0.2007,0,353,353,275,1,,,6428b84211dcbd13d44f2d9c,643774cf6f9981838dc652d7,2023-04-13_13h20.24.023,PRaM,2021.2.3,Win32,59.19962112,61b8f3437b89212fae0dfadf
1,1.5149,space,0.6172,0,354,354,106,1,,,6428b84211dcbd13d44f2d9c,643774cf6f9981838dc652d7,2023-04-13_13h20.24.023,PRaM,2021.2.3,Win32,59.19962112,61b8f3437b89212fae0dfadf
6,2.6981,space,0.9677,0,355,355,200,1,,,6428b84211dcbd13d44f2d9c,643774cf6f9981838dc652d7,2023-04-13_13h20.24.023,PRaM,2021.2.3,Win32,59.19962112,61b8f3437b89212fae0dfadf
8,2.3115,space,0.7512,0,356,356,196,1,,,6428b84211dcbd13d44f2d9c,643774cf6f9981838dc652d7,2023-04-13_13h20.24.023,PRaM,2021.2.3,Win32,59.19962112,61b8f3437b89212fae0dfadf
1,2.0976,space,0.4512,0,357,357,94,1,,,6428b84211dcbd13d44f2d9c,643774cf6f9981838dc652d7,2023-04-13_13h20.24.023,PRaM,2021.2.3,Win32,59.19962112,61b8f3437b89212fae0dfadf
4,2.4474,space,0.802,0,358,358,21,1,,,6428b84211dcbd13d44f2d9c,643774cf6f9981838dc652d7,2023-04-13_13h20.24.023,PRaM,2021.2.3,Win32,59.19962112,61b8f3437b89212fae0dfadf
1,1.9475,space,0.5662,0,359,359,49,1,,,6428b84211dcbd13d44f2d9c,643774cf6f9981838dc652d7,2023-04-13_13h20.24.023,PRaM,2021.2.3,Win32,59.19962112,61b8f3437b89212fae0dfadf
8,13.0653,space,11.568,0,360,360,59,1,,,6428b84211dcbd13d44f2d9c,643774cf6f9981838dc652d7,2023-04-13_13h20.24.023,PRaM,2021.2.3,Win32,59.19962112,61b8f3437b89212fae0dfadf
1,2.2623,space,0.6182,0,361,361,130,1,,,6428b84211dcbd13d44f2d9c,643774cf6f9981838dc652d7,2023-04-13_13h20.24.023,PRaM,2021.2.3,Win32,59.19962112,61b8f3437b89212fae0dfadf
6,7.6161,space,5.9249,0,362,362,69,1,,,6428b84211dcbd13d44f2d9c,643774cf6f9981838dc652d7,2023-04-13_13h20.24.023,PRaM,2021.2.3,Win32,59.19962112,61b8f3437b89212fae0dfadf
7,7.8679,space,6.1168,0,363,363,205,1,,,6428b84211dcbd13d44f2d9c,643774cf6f9981838dc652d7,2023-04-13_13h20.24.023,PRaM,2021.2.3,Win32,59.19962112,61b8f3437b89212fae0dfadf
9,2.2901,space,0.7012,0,364,364,38,1,,,6428b84211dcbd13d44f2d9c,643774cf6f9981838dc652d7,2023-04-13_13h20.24.023,PRaM,2021.2.3,Win32,59.19962112,61b8f3437b89212fae0dfadf
9,2.2087,space,0.5347,0,365,365,285,1,,,6428b84211dcbd13d44f2d9c,643774cf6f9981838dc652d7,2023-04-13_13h20.24.023,PRaM,2021.2.3,Win32,59.19962112,61b8f3437b89212fae0dfadf
1,1.86,space,0.1864,0,366,366,217,1,,,6428b84211dcbd13d44f2d9c,643774cf6f9981838dc652d7,2023-04-13_13h20.24.023,PRaM,2021.2.3,Win32,59.19962112,61b8f3437b89212fae0dfadf
6,2.2453,space,0.5847,0,367,367,63,1,,,6428b84211dcbd13d44f2d9c,643774cf6f9981838dc652d7,2023-04-13_13h20.24.023,PRaM,2021.2.3,Win32,59.19962112,61b8f3437b89212fae0dfadf
6,1.8966,space,0.1839,0,368,368,365,1,,,6428b84211dcbd13d44f2d9c,643774cf6f9981838dc652d7,2023-04-13_13h20.24.023,PRaM,2021.2.3,Win32,59.19962112,61b8f3437b89212fae0dfadf
6,4.982,space,3.2549,0,369,369,28,1,,,6428b84211dcbd13d44f2d9c,643774cf6f9981838dc652d7,2023-04-13_13h20.24.023,PRaM,2021.2.3,Win32,59.19962112,61b8f3437b89212fae0dfadf
9,2.8197,space,1.0993,0,370,370,320,1,,,6428b84211dcbd13d44f2d9c,643774cf6f9981838dc652d7,2023-04-13_13h20.24.023,PRaM,2021.2.3,Win32,59.19962112,61b8f3437b89212fae0dfadf
2,2.1607,space,0.4859,0,371,371,126,1,,,6428b84211dcbd13d44f2d9c,643774cf6f9981838dc652d7,2023-04-13_13h20.24.023,PRaM,2021.2.3,Win32,59.19962112,61b8f3437b89212fae0dfadf
8,2.7575,space,1.0514,0,372,372,180,1,,,6428b84211dcbd13d44f2d9c,643774cf6f9981838dc652d7,2023-04-13_13h20.24.023,PRaM,2021.2.3,Win32,59.19962112,61b8f3437b89212fae0dfadf
3,2.1238,space,0.4239,0,373,373,286,1,,,6428b84211dcbd13d44f2d9c,643774cf6f9981838dc652d7,2023-04-13_13h20.24.023,PRaM,2021.2.3,Win32,59.19962112,61b8f3437b89212fae0dfadf
9,1.9791,space,0.2626,0,374,374,7,1,,,6428b84211dcbd13d44f2d9c,643774cf6f9981838dc652d7,2023-04-13_13h20.24.023,PRaM,2021.2.3,Win32,59.19962112,61b8f3437b89212fae0dfadf
2,2.727,space,1.0853,0,375,375,98,1,,,6428b84211dcbd13d44f2d9c,643774cf6f9981838dc652d7,2023-04-13_13h20.24.023,PRaM,2021.2.3,Win32,59.19962112,61b8f3437b89212fae0dfadf
1,1.8639,space,0.184,0,376,376,18,1,,,6428b84211dcbd13d44f2d9c,643774cf6f9981838dc652d7,2023-04-13_13h20.24.023,PRaM,2021.2.3,Win32,59.19962112,61b8f3437b89212fae0dfadf
8,2.7477,space,1.1348,0,377,377,313,1,,,6428b84211dcbd13d44f2d9c,643774cf6f9981838dc652d7,2023-04-13_13h20.24.023,PRaM,2021.2.3,Win32,59.19962112,61b8f3437b89212fae0dfadf
